acc_x,acc_y,acc_z,gyr_x,gyr_y,gyr_z,grav_x,grav_y,grav_z,label,timestamp
-0.040127814,0.00034880562,0.9827826,-0.0004005432,-0.0004005432,0.0005340576,-0.42861703,-0.015107656,9.797268,2,1683900714.3180697
-0.04428315,-0.0011222442,0.9798557,-0.0004005432,-0.0004005432,0.0005340576,-0.42861703,-0.015107656,9.797268,2,1683900714.3284209
-0.04428315,-0.0011222442,0.9798557,0.000667572,0.000667572,-0.0005340576,-0.42867583,-0.01505466,9.797265,2,1683900714.3337896
-0.04428315,-0.0011222442,0.9798557,-0.0014686584,0.000667572,-0.0016021729,-0.42867583,-0.01505466,9.797265,2,1683900714.3390322
-0.045739036,-0.002820776,0.98084146,-0.0014686584,0.000667572,-0.0016021729,-0.42867583,-0.01505466,9.797265,2,1683900714.344252
-0.045739036,-0.002820776,0.98084146,-0.0014686584,0.000667572,-0.0016021729,-0.42917457,-0.015446179,9.797242,2,1683900714.3597076
-0.045739036,-0.002820776,0.98084146,-0.0004005432,-0.0004005432,0.0005340576,-0.42917457,-0.015446179,9.797242,2,1683900714.3955927
-0.045739036,-0.002820776,0.98084146,-0.0004005432,-0.0004005432,0.0005340576,-0.42938632,-0.015573751,9.797234,2,1683900714.400726
-0.045011092,-0.002335481,0.98132676,-0.0004005432,-0.0004005432,0.0005340576,-0.42938632,-0.015573751,9.797234,2,1683900714.4211893
-0.045011092,-0.002335481,0.98132676,-0.0004005432,-0.0004005432,0.0005340576,-0.42944455,-0.015822448,9.79723,2,1683900714.4262779
-0.042326804,-0.0060055233,0.9837684,-0.0004005432,-0.0004005432,0.0005340576,-0.42944455,-0.015822448,9.79723,2,1683900714.4467494
-0.042326804,-0.0060055233,0.9837684,-0.0004005432,-0.0004005432,0.0005340576,-0.42942926,-0.016121836,9.79723,2,1683900714.4569662
-0.042326804,-0.0060055233,0.9837684,0.000667572,0.000667572,-0.0005340576,-0.42942926,-0.016121836,9.79723,2,1683900714.4620903
-0.042326804,-0.0060055233,0.9837684,-0.0004005432,0.000667572,-0.0016021729,-0.42942926,-0.016121836,9.79723,2,1683900714.4671743
-0.04402534,-0.001607539,0.98254,-0.0004005432,0.000667572,-0.0016021729,-0.42942926,-0.016121836,9.79723,2,1683900714.472269
-0.04402534,-0.001607539,0.98254,0.000667572,-0.0004005432,-0.0005340576,-0.42942926,-0.016121836,9.79723,2,1683900714.4773781
-0.04402534,-0.001607539,0.98254,0.000667572,-0.0004005432,-0.0005340576,-0.42965665,-0.016054843,9.79722,2,1683900714.4876354
-0.04402534,-0.001607539,0.98254,0.000667572,0.000667572,0.0005340576,-0.42965665,-0.016054843,9.79722,2,1683900714.5081513
-0.04402534,-0.001607539,0.98254,0.000667572,0.000667572,0.0005340576,-0.42927873,-0.015972504,9.797236,2,1683900714.5285742
-0.042569455,-0.0008795968,0.98401105,0.000667572,0.000667572,0.0005340576,-0.42927873,-0.015972504,9.797236,2,1683900714.5336971
-0.042569455,-0.0008795968,0.98401105,0.000667572,0.000667572,0.0005340576,-0.42890525,-0.015870595,9.797254,2,1683900714.589921
-0.042569455,-0.0008795968,0.98401105,0.000667572,-0.0004005432,0.0005340576,-0.42890525,-0.015870595,9.797254,2,1683900714.6001804
-0.039157223,-0.004534473,0.98254,0.000667572,-0.0004005432,0.0005340576,-0.42890525,-0.015870595,9.797254,2,1683900714.605311
-0.04428315,-0.0020928339,0.97961307,0.000667572,-0.0004005432,0.0005340576,-0.42890525,-0.015870595,9.797254,2,1683900714.6104026
-0.04428315,-0.0020928339,0.97961307,0.000667572,-0.0004005432,0.0005340576,-0.42898482,-0.015715035,9.797251,2,1683900714.6359565
-0.04428315,-0.0020928339,0.97961307,0.000667572,-0.0004005432,0.0005340576,-0.42909417,-0.015576819,9.797245,2,1683900714.6513064
-0.0445258,0.00034880562,0.9815694,0.000667572,-0.0004005432,0.0005340576,-0.42909417,-0.015576819,9.797245,2,1683900714.6666842
-0.0445258,0.00034880562,0.9815694,-0.0004005432,-0.0004005432,0.0005340576,-0.42909417,-0.015576819,9.797245,2,1683900714.6717756
-0.045011092,-0.0038065312,0.98449636,-0.0004005432,-0.0004005432,0.0005340576,-0.42909417,-0.015576819,9.797245,2,1683900714.6819985
-0.045011092,-0.0038065312,0.98449636,0.000667572,-0.0004005432,-0.0005340576,-0.42909417,-0.015576819,9.797245,2,1683900714.6871548
-0.045011092,-0.0038065312,0.98449636,0.000667572,-0.0004005432,-0.0005340576,-0.4294166,-0.015575728,9.797232,2,1683900714.6974065
-0.045011092,-0.0038065312,0.98449636,-0.0004005432,0.000667572,0.0005340576,-0.4294166,-0.015575728,9.797232,2,1683900714.7230694
-0.045011092,-0.0038065312,0.98449636,0.000667572,0.000667572,-0.0005340576,-0.4294166,-0.015575728,9.797232,2,1683900714.7589138
-0.04428315,-0.003078589,0.98181206,0.000667572,0.000667572,-0.0005340576,-0.4294166,-0.015575728,9.797232,2,1683900714.764043
-0.04428315,-0.003078589,0.98181206,0.000667572,0.000667572,-0.0005340576,-0.42981297,-0.015795663,9.7972145,2,1683900714.7691426
-0.04428315,-0.003078589,0.98181206,0.000667572,0.000667572,-0.0005340576,-0.42961904,-0.01590148,9.797222,2,1683900714.7947335
-0.04428315,-0.003078589,0.98181206,-0.0004005432,-0.0004005432,-0.0016021729,-0.42961904,-0.01590148,9.797222,2,1683900714.799863
-0.043297395,-0.0013648917,0.9827826,-0.0004005432,-0.0004005432,-0.0016021729,-0.42961904,-0.01590148,9.797222,2,1683900714.804997
-0.043297395,-0.0013648917,0.9827826,-0.0004005432,-0.0004005432,-0.0016021729,-0.4295876,-0.015703168,9.797225,2,1683900714.8101258
-0.0428121,0.0010767478,0.9798557,-0.0004005432,-0.0004005432,-0.0016021729,-0.4295876,-0.015703168,9.797225,2,1683900714.830533
-0.0428121,0.0010767478,0.9798557,-0.0004005432,-0.0004005432,-0.0005340576,-0.4295876,-0.015703168,9.797225,2,1683900714.8356578
-0.0428121,0.0010767478,0.9798557,0.0017356873,-0.0004005432,-0.0005340576,-0.4295876,-0.015703168,9.797225,2,1683900714.8407857
-0.0445258,-0.002820776,0.98522425,0.0017356873,-0.0004005432,-0.0005340576,-0.4295876,-0.015703168,9.797225,2,1683900714.8612506
-0.0445258,-0.002820776,0.98522425,0.0017356873,-0.0004005432,-0.0005340576,-0.42971596,-0.016108897,9.797218,2,1683900714.8715074
-0.0445258,-0.002820776,0.98522425,0.0017356873,-0.0004005432,0.0016021729,-0.42971596,-0.016108897,9.797218,2,1683900714.953435
-0.0445258,-0.002820776,0.98522425,0.0017356873,-0.0004005432,0.0016021729,-0.42951682,-0.016710583,9.797226,2,1683900714.9585552
-0.0445258,-0.002820776,0.98522425,0.0017356873,-0.0004005432,0.0016021729,-0.42971596,-0.016108897,9.797218,2,1683900714.9688203
-0.045011092,-0.004777121,0.98572475,0.0017356873,-0.0004005432,0.0016021729,-0.42971596,-0.016108897,9.797218,2,1683900714.9790804
-0.041598864,-0.001607539,0.98352575,0.0017356873,-0.0004005432,0.0016021729,-0.42971596,-0.016108897,9.797218,2,1683900714.9944248
-0.041598864,-0.001607539,0.98352575,0.0017356873,-0.0004005432,0.0016021729,-0.42942375,-0.016726058,9.79723,2,1683900715.0046713
-0.041598864,-0.001607539,0.98352575,-0.0004005432,0.000667572,0.0005340576,-0.42942375,-0.016726058,9.79723,2,1683900715.0098028
-0.03939987,-0.0008795968,0.98352575,-0.0004005432,0.000667572,0.0005340576,-0.42942375,-0.016726058,9.79723,2,1683900715.0353487
-0.03939987,-0.0008795968,0.98352575,-0.0004005432,0.000667572,0.0005340576,-0.42900994,-0.016460402,9.797248,2,1683900715.050706
-0.03939987,-0.0008795968,0.98352575,0.000667572,0.000667572,-0.0005340576,-0.42900994,-0.016460402,9.797248,2,1683900715.0609384
-0.03939987,-0.0008795968,0.98352575,0.0017356873,0.0028038025,-0.0005340576,-0.42900994,-0.016460402,9.797248,2,1683900715.1121497
-0.04549639,-0.0013648917,0.98084146,0.0017356873,0.0028038025,-0.0005340576,-0.42900994,-0.016460402,9.797248,2,1683900715.117284
-0.04549639,-0.0013648917,0.98084146,0.0017356873,0.0028038025,-0.0005340576,-0.42956868,-0.016305754,9.797224,2,1683900715.122409
-0.04549639,-0.0013648917,0.98084146,-0.0004005432,-0.0025367737,0.0005340576,-0.42956868,-0.016305754,9.797224,2,1683900715.1479557
-0.0445258,-0.0040491787,0.98132676,-0.0004005432,-0.0025367737,0.0005340576,-0.42956868,-0.016305754,9.797224,2,1683900715.153074
-0.0445258,-0.0040491787,0.98132676,-0.0004005432,-0.0025367737,0.0005340576,-0.42976,-0.016969036,9.7972145,2,1683900715.1582086
-0.0445258,-0.0040491787,0.98132676,0.000667572,-0.0014686584,-0.0005340576,-0.42976,-0.016969036,9.7972145,2,1683900715.1735551
-0.04402534,0.0010767478,0.9815694,0.000667572,-0.0014686584,-0.0005340576,-0.42976,-0.016969036,9.7972145,2,1683900715.1786804
-0.04402534,0.0010767478,0.9815694,0.000667572,-0.0014686584,-0.0005340576,-0.42977157,-0.016709968,9.797214,2,1683900715.1889431
-0.04402534,0.0010767478,0.9815694,0.000667572,-0.0014686584,-0.0005340576,-0.43005517,-0.016559798,9.797202,2,1683900715.2145185
-0.040855754,-0.004777121,0.9815694,0.000667572,-0.0014686584,-0.0005340576,-0.43005517,-0.016559798,9.797202,2,1683900715.2196507
-0.040855754,-0.004777121,0.9815694,0.0017356873,0.000667572,-0.0005340576,-0.43005517,-0.016559798,9.797202,2,1683900715.2247803
-0.040855754,-0.004777121,0.9815694,0.0017356873,0.000667572,-0.0005340576,-0.43019256,-0.016774219,9.797195,2,1683900715.2606528
-0.04305475,0.0008341004,0.9859674,0.0017356873,0.000667572,-0.0005340576,-0.43019256,-0.016774219,9.797195,2,1683900715.2760136
-0.04305475,0.0008341004,0.9859674,0.0037384033,0.000667572,0.0005340576,-0.43019256,-0.016774219,9.797195,2,1683900715.2811475
-0.04305475,0.0008341004,0.9859674,0.0037384033,0.000667572,0.0005340576,-0.43001896,-0.016714843,9.797204,2,1683900715.2965014
-0.04549639,-0.0008795968,0.9735165,0.0037384033,0.000667572,0.0005340576,-0.43001896,-0.016714843,9.797204,2,1683900715.3118627
-0.04549639,-0.0008795968,0.9735165,0.0037384033,0.000667572,0.0005340576,-0.4301466,-0.01607008,9.797199,2,1683900715.3221343
-0.04549639,-0.0008795968,0.9735165,0.0017356873,0.0017356873,0.0016021729,-0.4301466,-0.01607008,9.797199,2,1683900715.3374026
-0.04549639,-0.0008795968,0.9735165,0.0017356873,-0.0004005432,0.0005340576,-0.4301466,-0.01607008,9.797199,2,1683900715.352709
-0.04549639,-0.0008795968,0.9735165,0.0017356873,-0.0004005432,0.0005340576,-0.42994168,-0.015824758,9.797208,2,1683900715.368088
-0.041098405,0.00034880562,0.98742324,0.0017356873,-0.0004005432,0.0005340576,-0.42994168,-0.015824758,9.797208,2,1683900715.3731754
-0.042084157,-0.0011222442,0.9776567,0.0017356873,-0.0004005432,0.0005340576,-0.42994168,-0.015824758,9.797208,2,1683900715.3834145
-0.042084157,-0.0011222442,0.9776567,0.0017356873,0.000667572,0.0005340576,-0.42994168,-0.015824758,9.797208,2,1683900715.4039273
-0.042084157,-0.0011222442,0.9776567,0.0017356873,0.000667572,0.0005340576,-0.42986837,-0.015689166,9.797212,2,1683900715.4090648
-0.042084157,-0.0011222442,0.9776567,0.0017356873,0.000667572,0.0005340576,-0.4298341,-0.015569464,9.797213,2,1683900715.4141564
-0.04134105,-0.00063694944,0.9793704,0.0017356873,0.000667572,0.0005340576,-0.4298341,-0.015569464,9.797213,2,1683900715.4499826
-0.043540042,-0.0057628755,0.980341,0.0017356873,0.000667572,0.0005340576,-0.4298341,-0.015569464,9.797213,2,1683900715.4755185
-0.043540042,-0.0057628755,0.980341,0.0017356873,0.000667572,0.0005340576,-0.4298929,-0.01532973,9.797211,2,1683900715.4909098
-0.043540042,-0.0057628755,0.980341,0.0017356873,0.0028038025,0.0005340576,-0.4298929,-0.01532973,9.797211,2,1683900715.4960012
-0.043540042,-0.0057628755,0.980341,0.0028038025,0.0017356873,-0.0005340576,-0.4298929,-0.01532973,9.797211,2,1683900715.501132
-0.043540042,-0.0057628755,0.980341,0.0028038025,0.0017356873,-0.0005340576,-0.4299254,-0.01526359,9.797209,2,1683900715.5113473
-0.043540042,-0.0057628755,0.980341,0.0028038025,0.0017356873,-0.0005340576,-0.43046394,-0.015551004,9.797186,2,1683900715.5215616
-0.046466976,-0.0038065312,0.9749724,0.0028038025,0.0017356873,-0.0005340576,-0.43046394,-0.015551004,9.797186,2,1683900715.5369444
-0.046466976,-0.0038065312,0.9749724,0.0037384033,0.0028038025,0.0005340576,-0.43046394,-0.015551004,9.797186,2,1683900715.5471299
-0.046466976,-0.0038065312,0.9749724,0.0090789795,0.008144379,-0.0005340576,-0.43046394,-0.015551004,9.797186,2,1683900715.5573921
-0.03939987,-0.009175105,0.9742445,0.0090789795,0.008144379,-0.0005340576,-0.43046394,-0.015551004,9.797186,2,1683900715.5625265
-0.03939987,-0.009175105,0.9742445,0.0090789795,0.008144379,-0.0005340576,-0.43110633,-0.01588618,9.797156,2,1683900715.577912
-0.03939987,-0.009175105,0.9742445,0.0090789795,0.010280609,0.0016021729,-0.43110633,-0.01588618,9.797156,2,1683900715.6086214
-0.03939987,-0.009175105,0.9742445,0.0090789795,0.010280609,0.0016021729,-0.43214548,-0.01656887,9.79711,2,1683900715.6137488
-0.042084157,-0.012344686,0.9542412,0.0090789795,0.010280609,0.0016021729,-0.43214548,-0.01656887,9.79711,2,1683900715.618883
-0.04402534,0.01035801,0.97228813,0.0090789795,0.010280609,0.0016021729,-0.43214548,-0.01656887,9.79711,2,1683900715.6392488
-0.04402534,0.01035801,0.97228813,0.0090789795,0.010280609,0.0016021729,-0.43335605,-0.015353753,9.797058,2,1683900715.6598043
-0.04402534,0.01035801,0.97228813,-0.0004005432,0.004940033,0.0016021729,-0.43335605,-0.015353753,9.797058,2,1683900715.6751351
-0.04134105,-0.002335481,0.99059284,-0.0004005432,0.004940033,0.0016021729,-0.43335605,-0.015353753,9.797058,2,1683900715.7110598
-0.04134105,-0.002335481,0.99059284,-0.0004005432,0.004940033,0.0016021729,-0.43175364,-0.011079026,9.797135,2,1683900715.7315843
-0.04134105,-0.002335481,0.99059284,0.0017356873,0.000667572,0.0005340576,-0.43175364,-0.011079026,9.797135,2,1683900715.736701
-0.04134105,-0.002335481,0.99059284,0.0017356873,0.000667572,0.0005340576,-0.43158358,-0.010626593,9.797143,2,1683900715.7827818
-0.04134105,-0.002335481,0.99059284,-0.0004005432,0.000667572,0.0005340576,-0.43158358,-0.010626593,9.797143,2,1683900715.7879107
-0.042326804,0.0035183872,0.980341,-0.0004005432,0.000667572,0.0005340576,-0.43158358,-0.010626593,9.797143,2,1683900715.808403
-0.042326804,0.0035183872,0.980341,0.0017356873,0.000667572,-0.0005340576,-0.43158358,-0.010626593,9.797143,2,1683900715.8340497
-0.04549639,-0.0038065312,0.9837684,0.0017356873,0.000667572,-0.0005340576,-0.43158358,-0.010626593,9.797143,2,1683900715.8391678
-0.04549639,-0.0038065312,0.9837684,0.0017356873,0.000667572,-0.0005340576,-0.43246806,-0.010626418,9.797104,2,1683900715.8442578
-0.04305475,-0.009903047,0.9793704,0.0017356873,0.000667572,-0.0005340576,-0.43246806,-0.010626418,9.797104,2,1683900715.859668
-0.04305475,-0.009903047,0.9793704,0.0017356873,0.000667572,-0.0005340576,-0.43243486,-0.01128108,9.797105,2,1683900715.8750339
-0.04305475,-0.009903047,0.9793704,0.0017356873,-0.0004005432,-0.0005340576,-0.43243486,-0.01128108,9.797105,2,1683900715.8801618
-0.04305475,-0.009903047,0.9793704,0.0028038025,-0.0004005432,0.0005340576,-0.43243486,-0.01128108,9.797105,2,1683900715.8852925
-0.0445258,-0.0011222442,0.9962192,0.0028038025,-0.0004005432,0.0005340576,-0.43243486,-0.01128108,9.797105,2,1683900715.8955555
-0.0445258,-0.0011222442,0.9962192,0.0028038025,0.0017356873,0.0005340576,-0.43243486,-0.01128108,9.797105,2,1683900715.9058242
-0.04305475,-0.00013648917,0.98229736,0.0028038025,0.0017356873,0.0005340576,-0.43243486,-0.01128108,9.797105,2,1683900715.9109194
-0.04305475,-0.00013648917,0.98229736,0.0028038025,0.0017356873,0.0005340576,-0.4323951,-0.011719394,9.797107,2,1683900715.9416094
-0.04305475,-0.00013648917,0.98229736,0.0028038025,0.0017356873,0.0005340576,-0.4321202,-0.012065229,9.797117,2,1683900715.946738
-0.03939987,0.002790445,0.98522425,0.0028038025,0.0017356873,0.0005340576,-0.4321202,-0.012065229,9.797117,2,1683900715.962143
-0.03939987,0.002790445,0.98522425,0.0017356873,0.0017356873,0.0016021729,-0.4321202,-0.012065229,9.797117,2,1683900715.9723096
-0.042326804,-0.003078589,0.98522425,0.0017356873,0.0017356873,0.0016021729,-0.4321202,-0.012065229,9.797117,2,1683900715.982614
-0.0428121,-0.000394302,0.98254,0.0017356873,0.0017356873,0.0016021729,-0.4321202,-0.012065229,9.797117,2,1683900715.992904
-0.0428121,-0.000394302,0.98254,0.000667572,-0.0004005432,-0.0005340576,-0.4321202,-0.012065229,9.797117,2,1683900715.9980762
-0.0428121,-0.000394302,0.98254,0.000667572,-0.0004005432,-0.0005340576,-0.43230057,-0.0097776195,9.797112,2,1683900716.0032105
-0.0428121,-0.000394302,0.98254,-0.0004005432,0.000667572,0.0005340576,-0.43230057,-0.0097776195,9.797112,2,1683900716.034157
-0.039885167,0.00034880562,0.9815694,-0.0004005432,0.000667572,0.0005340576,-0.43230057,-0.0097776195,9.797112,2,1683900716.049598
-0.039885167,0.00034880562,0.9815694,-0.0004005432,0.000667572,0.0005340576,-0.43211454,-0.010665245,9.797119,2,1683900716.0701408
-0.039885167,0.00034880562,0.9815694,-0.0004005432,-0.0004005432,0.0005340576,-0.43211454,-0.010665245,9.797119,2,1683900716.0752547
-0.039885167,0.00034880562,0.9815694,-0.0004005432,-0.0004005432,0.0005340576,-0.43180212,-0.010622845,9.797133,2,1683900716.0804105
-0.046967436,-0.0011222442,0.98181206,-0.0004005432,-0.0004005432,0.0005340576,-0.43180212,-0.010622845,9.797133,2,1683900716.0907195
-0.04305475,-0.00013648917,0.9827826,-0.0004005432,-0.0004005432,0.0005340576,-0.43180212,-0.010622845,9.797133,2,1683900716.1113172
-0.04305475,-0.00013648917,0.9827826,-0.0004005432,-0.0004005432,0.0005340576,-0.4321236,-0.010557683,9.797119,2,1683900716.1216037
-0.04305475,-0.00013648917,0.9827826,0.000667572,0.000667572,0.0005340576,-0.4321236,-0.010557683,9.797119,2,1683900716.1370277
-0.04305475,-0.00013648917,0.9827826,0.000667572,0.000667572,0.0005340576,-0.43242612,-0.010813454,9.797107,2,1683900716.1524336
-0.04305475,-0.00013648917,0.9827826,-0.0004005432,0.000667572,-0.0005340576,-0.43242612,-0.010813454,9.797107,2,1683900716.1575613
-0.04549639,0.0008341004,0.98304045,-0.0004005432,0.000667572,-0.0005340576,-0.43242612,-0.010813454,9.797107,2,1683900716.1729486
-0.04549639,0.0008341004,0.98304045,-0.0004005432,0.000667572,-0.0005340576,-0.43277496,-0.010430762,9.797091,2,1683900716.2140825
-0.04549639,0.0008341004,0.98304045,-0.0004005432,-0.0014686584,0.0016021729,-0.43277496,-0.010430762,9.797091,2,1683900716.2191875
-0.04549639,0.0008341004,0.98304045,-0.0004005432,-0.0014686584,0.0016021729,-0.4331754,-0.010611014,9.797072,2,1683900716.2603285
-0.04672479,-0.0020928339,0.9842537,-0.0004005432,-0.0014686584,0.0016021729,-0.4331754,-0.010611014,9.797072,2,1683900716.265501
-0.04672479,-0.0020928339,0.9842537,-0.0004005432,-0.0014686584,0.0016021729,-0.43162432,-0.009741685,9.797142,2,1683900716.2912989
-0.04672479,-0.0020928339,0.9842537,0.000667572,0.000667572,0.0005340576,-0.43162432,-0.009741685,9.797142,2,1683900716.2964733
-0.044768445,-0.0013648917,0.9815694,0.000667572,0.000667572,0.0005340576,-0.43162432,-0.009741685,9.797142,2,1683900716.3069222
-0.042569455,0.0013193953,0.98352575,0.000667572,0.000667572,0.0005340576,-0.43162432,-0.009741685,9.797142,2,1683900716.3121178
-0.042569455,0.0013193953,0.98352575,0.000667572,0.000667572,0.0005340576,-0.431662,-0.009286948,9.797141,2,1683900716.3224208
-0.042569455,0.0013193953,0.98352575,0.000667572,0.0017356873,-0.0005340576,-0.431662,-0.009286948,9.797141,2,1683900716.3275647
-0.042569455,0.0013193953,0.98352575,0.000667572,-0.0004005432,-0.0005340576,-0.431662,-0.009286948,9.797141,2,1683900716.3532164
-0.04184151,0.002790445,0.98693794,0.000667572,-0.0004005432,-0.0005340576,-0.431662,-0.009286948,9.797141,2,1683900716.3634384
-0.04184151,0.002790445,0.98693794,0.000667572,-0.0004005432,-0.0005340576,-0.43150684,-0.008949527,9.797148,2,1683900716.3685744
-0.04184151,0.002790445,0.98693794,-0.0004005432,-0.0014686584,0.0005340576,-0.43150684,-0.008949527,9.797148,2,1683900716.394226
-0.04525374,-0.0008795968,0.98304045,-0.0004005432,-0.0014686584,0.0005340576,-0.43150684,-0.008949527,9.797148,2,1683900716.399321
-0.04525374,-0.0008795968,0.98304045,-0.0004005432,-0.0014686584,0.0005340576,-0.43194142,-0.008426196,9.79713,2,1683900716.4147303
-0.04525374,-0.0020928339,0.9810841,-0.0004005432,-0.0014686584,0.0005340576,-0.43194142,-0.008426196,9.79713,2,1683900716.4659767
-0.04525374,-0.0020928339,0.9810841,-0.0004005432,-0.0014686584,0.0005340576,-0.4321396,-0.008838909,9.797121,2,1683900716.4711134
-0.04525374,-0.0020928339,0.9810841,0.000667572,-0.0004005432,0.0005340576,-0.4321396,-0.008838909,9.797121,2,1683900716.4813786
-0.04525374,-0.0020928339,0.9810841,0.000667572,-0.0004005432,0.0005340576,-0.4317791,-0.009364165,9.797135,2,1683900716.4915977
-0.04525374,-0.0020928339,0.9810841,-0.0014686584,0.000667572,0.0005340576,-0.4317791,-0.009364165,9.797135,2,1683900716.5018628
-0.042326804,-0.0035638837,0.9820547,-0.0014686584,0.000667572,0.0005340576,-0.4317791,-0.009364165,9.797135,2,1683900716.5172577
-0.04305475,-0.0020928339,0.97912776,-0.0014686584,0.000667572,0.0005340576,-0.4317791,-0.009364165,9.797135,2,1683900716.5275311
-0.04305475,-0.0020928339,0.97912776,-0.0014686584,0.000667572,0.0005340576,-0.43180457,-0.009481854,9.797134,2,1683900716.5326574
-0.04305475,-0.0020928339,0.97912776,-0.0004005432,0.000667572,0.0005340576,-0.43180457,-0.009481854,9.797134,2,1683900716.537796
-0.041098405,-0.005019768,0.98132676,-0.0004005432,0.000667572,0.0005340576,-0.43180457,-0.009481854,9.797134,2,1683900716.563399
-0.040127814,-0.003078589,0.9842537,-0.0004005432,0.000667572,0.0005340576,-0.43180457,-0.009481854,9.797134,2,1683900716.5685482
-0.040127814,-0.003078589,0.9842537,0.000667572,0.000667572,-0.0005340576,-0.43180457,-0.009481854,9.797134,2,1683900716.5788043
-0.040127814,-0.003078589,0.9842537,0.000667572,0.000667572,-0.0005340576,-0.43184128,-0.01041115,9.797132,2,1683900716.599286
-0.040127814,-0.003078589,0.9842537,0.000667572,0.000667572,-0.0005340576,-0.43161476,-0.010540166,9.797142,2,1683900716.6044133
-0.040127814,-0.003078589,0.9842537,0.000667572,0.000667572,0.0016021729,-0.43161476,-0.010540166,9.797142,2,1683900716.6198068
-0.040613107,0.0020473374,0.98229736,0.000667572,0.000667572,0.0016021729,-0.43161476,-0.010540166,9.797142,2,1683900716.624933
-0.040613107,0.0020473374,0.98229736,0.000667572,0.000667572,0.0016021729,-0.43142754,-0.010248683,9.797151,2,1683900716.6300611
-0.040613107,0.0020473374,0.98229736,0.000667572,0.000667572,0.0016021729,-0.43072245,-0.009595336,9.797183,2,1683900716.6658936
-0.041098405,0.00059145305,0.98352575,0.000667572,0.000667572,0.0016021729,-0.43072245,-0.009595336,9.797183,2,1683900716.671022
-0.041098405,0.00059145305,0.98352575,0.000667572,-0.0014686584,0.0016021729,-0.43072245,-0.009595336,9.797183,2,1683900716.6761189
-0.042569455,-0.0020928339,0.9815694,0.000667572,-0.0014686584,0.0016021729,-0.43072245,-0.009595336,9.797183,2,1683900716.6914914
-0.042569455,-0.0020928339,0.9815694,-0.0004005432,0.000667572,0.0005340576,-0.43072245,-0.009595336,9.797183,2,1683900716.6966207
-0.042569455,-0.0020928339,0.9815694,-0.0004005432,0.000667572,0.0005340576,-0.43053466,-0.0097128,9.797191,2,1683900716.7017481
-0.043540042,-0.0008795968,0.98181206,-0.0004005432,0.000667572,0.0005340576,-0.43053466,-0.0097128,9.797191,2,1683900716.722318
-0.043540042,-0.0008795968,0.98181206,0.0017356873,-0.0004005432,-0.0005340576,-0.43053466,-0.0097128,9.797191,2,1683900716.7428226
-0.04428315,-0.002335481,0.98254,0.0017356873,-0.0004005432,-0.0005340576,-0.43053466,-0.0097128,9.797191,2,1683900716.753
-0.04428315,-0.002335481,0.98254,-0.0004005432,-0.0004005432,0.0005340576,-0.43053466,-0.0097128,9.797191,2,1683900716.7580893
-0.04428315,-0.002335481,0.98254,-0.0004005432,-0.0004005432,0.0005340576,-0.4307063,-0.009621515,9.797182,2,1683900716.7631545
-0.04428315,-0.002335481,0.98254,0.000667572,0.000667572,0.0005340576,-0.4307063,-0.009621515,9.797182,2,1683900716.7682834
-0.047210086,-0.005019768,0.9815694,0.000667572,0.000667572,0.0005340576,-0.4307063,-0.009621515,9.797182,2,1683900716.7785344
-0.047210086,-0.005019768,0.9815694,0.000667572,0.000667572,0.0005340576,-0.43107572,-0.00992854,9.797166,2,1683900716.783663
-0.04428315,0.0015620426,0.98401105,0.000667572,0.000667572,0.0005340576,-0.43107572,-0.00992854,9.797166,2,1683900716.8092926
-0.04428315,0.0015620426,0.98401105,-0.0004005432,0.000667572,-0.0005340576,-0.43107572,-0.00992854,9.797166,2,1683900716.819548
-0.04428315,0.0015620426,0.98401105,-0.0004005432,0.000667572,-0.0005340576,-0.43268967,-0.009824306,9.797094,2,1683900716.8246753
-0.04428315,0.0015620426,0.98401105,0.000667572,-0.0004005432,0.0005340576,-0.43268967,-0.009824306,9.797094,2,1683900716.8349314
-0.04428315,0.0015620426,0.98401105,0.000667572,-0.0004005432,0.0005340576,-0.43290377,-0.009337047,9.797086,2,1683900716.8400621
-0.04402534,0.00180469,0.98401105,0.000667572,-0.0004005432,0.0005340576,-0.43290377,-0.009337047,9.797086,2,1683900716.860562
-0.04402534,0.00180469,0.98401105,0.000667572,-0.0004005432,0.0005340576,-0.43277183,-0.008944444,9.7970915,2,1683900716.8758988
-0.04402534,0.00180469,0.98401105,0.000667572,0.000667572,-0.0005340576,-0.43277183,-0.008944444,9.7970915,2,1683900716.8810244
-0.04402534,-0.0025781286,0.98304045,0.000667572,0.000667572,-0.0005340576,-0.43277183,-0.008944444,9.7970915,2,1683900716.8861604
-0.04402534,-0.0025781286,0.98304045,-0.0004005432,-0.0004005432,-0.0005340576,-0.43277183,-0.008944444,9.7970915,2,1683900716.9117506
-0.04402534,-0.0025781286,0.98304045,-0.0004005432,-0.0004005432,-0.0005340576,-0.43297774,-0.009158547,9.797082,2,1683900716.916884
-0.04402534,-0.0025781286,0.98304045,0.0017356873,-0.0004005432,0.0005340576,-0.43297774,-0.009158547,9.797082,2,1683900716.9271314
-0.04378269,0.00034880562,0.9798557,0.0017356873,-0.0004005432,0.0005340576,-0.43297774,-0.009158547,9.797082,2,1683900716.937351
-0.04378269,0.00034880562,0.9798557,0.0017356873,-0.0004005432,0.0005340576,-0.43299937,-0.008971179,9.797083,2,1683900716.942442
-0.04378269,0.00034880562,0.9798557,0.0017356873,-0.0004005432,0.0005340576,-0.43310943,-0.009277703,9.797076,2,1683900716.962939
-0.04378269,0.00034880562,0.9798557,0.0017356873,-0.0004005432,0.0005340576,-0.43306696,-0.009298618,9.797078,2,1683900716.9731898
-0.04622433,-0.003078589,0.9837684,0.0017356873,-0.0004005432,0.0005340576,-0.43306696,-0.009298618,9.797078,2,1683900716.9783163
-0.04622433,-0.003078589,0.9837684,-0.0014686584,-0.0004005432,0.0005340576,-0.43306696,-0.009298618,9.797078,2,1683900716.9988077
-0.045011092,0.0010767478,0.9827826,-0.0014686584,-0.0004005432,0.0005340576,-0.43306696,-0.009298618,9.797078,2,1683900717.0090759
-0.045011092,0.0010767478,0.9827826,0.000667572,-0.0004005432,-0.0005340576,-0.43306696,-0.009298618,9.797078,2,1683900717.0142026
-0.045011092,0.0010767478,0.9827826,0.000667572,-0.0004005432,-0.0005340576,-0.43333927,-0.009172097,9.797068,2,1683900717.0295434
-0.04428315,-0.000394302,0.98229736,0.000667572,-0.0004005432,-0.0005340576,-0.43333927,-0.009172097,9.797068,2,1683900717.0398011
-0.04428315,-0.000394302,0.98229736,0.000667572,0.000667572,-0.0005340576,-0.43333927,-0.009172097,9.797068,2,1683900717.050044
-0.044768445,-0.000394302,0.98132676,0.000667572,0.000667572,-0.0005340576,-0.43333927,-0.009172097,9.797068,2,1683900717.0705783
-0.044768445,-0.000394302,0.98132676,0.000667572,0.000667572,0.0005340576,-0.43333927,-0.009172097,9.797068,2,1683900717.0757089
-0.044768445,-0.000394302,0.98132676,0.000667572,0.000667572,0.0005340576,-0.4333894,-0.009014223,9.797066,2,1683900717.091082
-0.044768445,-0.000394302,0.98132676,0.000667572,-0.0004005432,0.0016021729,-0.4333894,-0.009014223,9.797066,2,1683900717.0962102
-0.042084157,0.0035183872,0.9820547,0.000667572,-0.0004005432,0.0016021729,-0.4333894,-0.009014223,9.797066,2,1683900717.101342
-0.043297395,0.0013193953,0.9827826,0.000667572,-0.0004005432,0.0016021729,-0.43314692,-0.00875132,9.797076,2,1683900717.1115768
-0.043297395,0.0013193953,0.9827826,0.000667572,-0.0004005432,0.0016021729,-0.43330616,-0.008460663,9.79707,2,1683900717.1166718
-0.043297395,0.0013193953,0.9827826,0.000667572,0.000667572,0.0005340576,-0.43330616,-0.008460663,9.79707,2,1683900717.1320744
-0.043297395,0.0013193953,0.9827826,0.000667572,0.000667572,0.0005340576,-0.43335792,-0.00877059,9.797066,2,1683900717.1525185
-0.04402534,-0.0038065312,0.98352575,0.000667572,0.000667572,0.0005340576,-0.43335792,-0.00877059,9.797066,2,1683900717.1678603
-0.041098405,0.00010615824,0.98352575,0.000667572,0.000667572,0.0005340576,-0.43335792,-0.00877059,9.797066,2,1683900717.178103
-0.041098405,0.00010615824,0.98352575,0.000667572,0.000667572,0.0005340576,-0.43323827,-0.008775448,9.797072,2,1683900717.1934443
-0.041098405,0.00010615824,0.98352575,-0.0004005432,0.000667572,0.0016021729,-0.43323827,-0.008775448,9.797072,2,1683900717.1985712
-0.046967436,-0.0018501864,0.98132676,-0.0004005432,0.000667572,0.0016021729,-0.43323827,-0.008775448,9.797072,2,1683900717.2088223
-0.046967436,-0.0018501864,0.98132676,-0.0004005432,0.000667572,0.0016021729,-0.4333812,-0.008701571,9.797066,2,1683900717.2242103
-0.046967436,-0.0018501864,0.98132676,-0.0004005432,-0.0004005432,-0.0005340576,-0.4333812,-0.008701571,9.797066,2,1683900717.234463
-0.046967436,-0.0018501864,0.98132676,-0.0014686584,0.000667572,-0.0005340576,-0.4333812,-0.008701571,9.797066,2,1683900717.2549715
-0.046466976,0.0008341004,0.98352575,-0.0014686584,0.000667572,-0.0005340576,-0.4333812,-0.008701571,9.797066,2,1683900717.2601035
-0.046466976,0.0008341004,0.98352575,-0.0014686584,0.000667572,-0.0005340576,-0.43347663,-0.008878597,9.797061,2,1683900717.265246
-0.040855754,0.00010615824,0.98132676,-0.0014686584,0.000667572,-0.0005340576,-0.43347663,-0.008878597,9.797061,2,1683900717.3010592
-0.04402534,-0.000394302,0.9827826,-0.0014686584,0.000667572,-0.0005340576,-0.43347663,-0.008878597,9.797061,2,1683900717.3061895
-0.04402534,-0.000394302,0.9827826,-0.0004005432,0.000667572,-0.0005340576,-0.43347663,-0.008878597,9.797061,2,1683900717.3113034
-0.04402534,-0.000394302,0.9827826,-0.0004005432,-0.0004005432,-0.0005340576,-0.43347663,-0.008878597,9.797061,2,1683900717.3215528
-0.04402534,-0.000394302,0.9827826,-0.0004005432,0.000667572,0.0005340576,-0.43347663,-0.008878597,9.797061,2,1683900717.3318093
-0.042326804,-0.0018501864,0.9820547,-0.0004005432,0.000667572,0.0005340576,-0.43347663,-0.008878597,9.797061,2,1683900717.3420625
-0.042326804,-0.0018501864,0.9820547,-0.0004005432,0.000667572,0.0005340576,-0.43174505,-0.009230921,9.797136,2,1683900717.3522942
-0.0428121,-0.0035638837,0.9805988,-0.0004005432,0.000667572,0.0005340576,-0.43174505,-0.009230921,9.797136,2,1683900717.3727927
-0.0428121,-0.0035638837,0.9805988,0.000667572,0.000667572,0.0016021729,-0.43174505,-0.009230921,9.797136,2,1683900717.3881466
-0.0428121,-0.0035638837,0.9805988,0.000667572,0.000667572,0.0016021729,-0.4318629,-0.00946304,9.7971325,2,1683900717.3932736
-0.04549639,-0.001607539,0.9842537,0.000667572,0.000667572,0.0016021729,-0.4318629,-0.00946304,9.7971325,2,1683900717.4189153
-0.04549639,-0.001607539,0.9842537,-0.0004005432,-0.0004005432,0.0005340576,-0.4318629,-0.00946304,9.7971325,2,1683900717.4240413
-0.04549639,-0.001607539,0.9842537,-0.0004005432,-0.0004005432,0.0005340576,-0.43201938,-0.0095389,9.797124,2,1683900717.429174
-0.04549639,-0.001607539,0.9842537,-0.0004005432,0.000667572,0.0005340576,-0.43201938,-0.0095389,9.797124,2,1683900717.4445512
-0.04549639,-0.001607539,0.9842537,-0.0004005432,0.000667572,0.0005340576,-0.43196833,-0.00996509,9.797128,2,1683900717.4548194
-0.04549639,-0.001607539,0.9842537,-0.0004005432,0.000667572,0.0005340576,-0.4320985,-0.009640009,9.797122,2,1683900717.4804623
-0.0445258,0.0025477977,0.9832831,-0.0004005432,0.000667572,0.0005340576,-0.4320985,-0.009640009,9.797122,2,1683900717.4907174
-0.0445258,0.0025477977,0.9832831,0.000667572,0.000667572,0.0005340576,-0.4320985,-0.009640009,9.797122,2,1683900717.495847
-0.043297395,0.00059145305,0.98304045,0.000667572,0.000667572,0.0005340576,-0.4320985,-0.009640009,9.797122,2,1683900717.5215042
-0.043297395,0.00059145305,0.98304045,-0.0014686584,0.000667572,-0.0005340576,-0.4320985,-0.009640009,9.797122,2,1683900717.5265996
-0.043297395,0.00059145305,0.98304045,-0.0014686584,0.000667572,-0.0005340576,-0.43190303,-0.009764296,9.797131,2,1683900717.5317242
-0.0428121,-0.0025781286,0.98229736,-0.0014686584,0.000667572,-0.0005340576,-0.43190303,-0.009764296,9.797131,2,1683900717.5368567
-0.0428121,-0.0025781286,0.98229736,0.000667572,0.000667572,0.0005340576,-0.43190303,-0.009764296,9.797131,2,1683900717.5521705
-0.0428121,-0.0025781286,0.98229736,0.000667572,0.000667572,0.0005340576,-0.43194377,-0.010040233,9.797127,2,1683900717.5624225
-0.0428121,-0.0025781286,0.98229736,0.000667572,0.000667572,0.0005340576,-0.43189633,-0.009908515,9.79713,2,1683900717.5726683
-0.0428121,-0.0025781286,0.98229736,-0.0004005432,0.000667572,0.0005340576,-0.43189633,-0.009908515,9.79713,2,1683900717.5931728
-0.042326804,0.0008341004,0.9820547,-0.0004005432,0.000667572,0.0005340576,-0.43189633,-0.009908515,9.79713,2,1683900717.6034167
-0.042326804,0.0008341004,0.9820547,0.000667572,0.000667572,0.0005340576,-0.43189633,-0.009908515,9.79713,2,1683900717.613672
-0.042326804,0.0008341004,0.9820547,0.000667572,0.000667572,0.0005340576,-0.43101785,-0.010933259,9.797168,2,1683900717.6188061
-0.042084157,-0.000394302,0.98229736,0.000667572,0.000667572,0.0005340576,-0.43101785,-0.010933259,9.797168,2,1683900717.623934
-0.042326804,0.00010615824,0.9837684,0.000667572,0.000667572,0.0005340576,-0.43101785,-0.010933259,9.797168,2,1683900717.6444244
-0.042326804,0.00010615824,0.9837684,0.000667572,-0.0004005432,-0.0005340576,-0.43101785,-0.010933259,9.797168,2,1683900717.6598115
-0.042326804,0.00010615824,0.9837684,0.000667572,-0.0004005432,-0.0005340576,-0.43085992,-0.010716555,9.797174,2,1683900717.6751554
-0.042326804,0.00010615824,0.9837684,-0.0004005432,0.000667572,-0.0005340576,-0.43085992,-0.010716555,9.797174,2,1683900717.6802828
-0.042326804,0.00010615824,0.9837684,-0.0004005432,0.000667572,-0.0005340576,-0.4307085,-0.011103484,9.797181,2,1683900717.6854126
-0.044768445,-0.000394302,0.9820547,-0.0004005432,0.000667572,-0.0005340576,-0.4307085,-0.011103484,9.797181,2,1683900717.705894
-0.044768445,-0.000394302,0.9820547,-0.0004005432,0.000667572,-0.0005340576,-0.43045166,-0.011002656,9.797194,2,1683900717.7212954
-0.041098405,0.00010615824,0.98449636,-0.0004005432,0.000667572,-0.0005340576,-0.43045166,-0.011002656,9.797194,2,1683900717.7264338
-0.041098405,0.00010615824,0.98449636,-0.0004005432,-0.0004005432,0.0005340576,-0.43045166,-0.011002656,9.797194,2,1683900717.7418258
-0.039885167,-0.0035638837,0.98132676,-0.0004005432,-0.0004005432,0.0005340576,-0.43045166,-0.011002656,9.797194,2,1683900717.7572217
-0.039885167,-0.0035638837,0.98132676,0.000667572,0.000667572,0.0005340576,-0.43045166,-0.011002656,9.797194,2,1683900717.7623467
-0.039885167,-0.0035638837,0.98132676,0.000667572,0.000667572,0.0005340576,-0.43021664,-0.011176453,9.797202,2,1683900717.767479
-0.04378269,-0.0011222442,0.98304045,0.000667572,0.000667572,0.0005340576,-0.43021664,-0.011176453,9.797202,2,1683900717.8135648
-0.04378269,-0.0011222442,0.98304045,0.000667572,0.000667572,0.0005340576,-0.4304579,-0.011366016,9.797191,2,1683900717.818696
-0.043540042,-0.0011222442,0.98304045,0.000667572,0.000667572,0.0005340576,-0.4304579,-0.011366016,9.797191,2,1683900717.8289459
-0.043540042,-0.0011222442,0.98304045,0.000667572,-0.0004005432,0.0005340576,-0.4304579,-0.011366016,9.797191,2,1683900717.8340716
-0.043540042,-0.0011222442,0.98304045,-0.0004005432,-0.0004005432,0.0016021729,-0.4304579,-0.011366016,9.797191,2,1683900717.839176
-0.043540042,-0.0011222442,0.98304045,-0.0004005432,-0.0004005432,0.0016021729,-0.43063936,-0.01101801,9.797184,2,1683900717.8493936
-0.043540042,0.00010615824,0.9827826,-0.0004005432,-0.0004005432,0.0016021729,-0.43063936,-0.01101801,9.797184,2,1683900717.869895
-0.043540042,0.00010615824,0.9827826,0.000667572,-0.0004005432,0.0005340576,-0.43063936,-0.01101801,9.797184,2,1683900717.8801517
-0.043540042,0.00010615824,0.9827826,-0.0004005432,-0.0004005432,0.0005340576,-0.43063936,-0.01101801,9.797184,2,1683900717.8956347
-0.04134105,0.0015620426,0.9832831,-0.0004005432,-0.0004005432,0.0005340576,-0.43063936,-0.01101801,9.797184,2,1683900717.9058502
-0.04134105,0.0015620426,0.9832831,-0.0004005432,-0.0004005432,0.0005340576,-0.43068355,-0.010601566,9.797182,2,1683900717.910982
-0.04134105,0.0015620426,0.9832831,-0.0004005432,-0.0004005432,0.0005340576,-0.430742,-0.010592298,9.79718,2,1683900717.9314945
-0.04134105,0.0015620426,0.9832831,-0.0004005432,0.000667572,-0.0005340576,-0.430742,-0.010592298,9.79718,2,1683900717.9366238
-0.042569455,0.0013193953,0.9815694,-0.0004005432,0.000667572,-0.0005340576,-0.430742,-0.010592298,9.79718,2,1683900717.951977
-0.042569455,0.0013193953,0.9815694,-0.0004005432,-0.0004005432,-0.0005340576,-0.430742,-0.010592298,9.79718,2,1683900717.9622617
-0.044768445,-0.001607539,0.98181206,-0.0004005432,-0.0004005432,-0.0005340576,-0.430742,-0.010592298,9.79718,2,1683900717.9673607
-0.044768445,-0.001607539,0.98181206,-0.0004005432,0.0017356873,-0.0005340576,-0.430742,-0.010592298,9.79718,2,1683900717.9980872
-0.043297395,-0.00013648917,0.98132676,-0.0004005432,0.0017356873,-0.0005340576,-0.430742,-0.010592298,9.79718,2,1683900718.0134442
-0.043297395,-0.00013648917,0.98132676,-0.0004005432,0.0017356873,-0.0005340576,-0.4312376,-0.010764746,9.797158,2,1683900718.0237
-0.043297395,-0.00013648917,0.98132676,-0.0004005432,-0.0004005432,0.0005340576,-0.4312376,-0.010764746,9.797158,2,1683900718.0390663
-0.043297395,-0.00013648917,0.98132676,-0.0004005432,-0.0004005432,0.0005340576,-0.43100104,-0.010317658,9.797169,2,1683900718.0442407
-0.04184151,0.0015620426,0.9815694,-0.0004005432,-0.0004005432,0.0005340576,-0.43100104,-0.010317658,9.797169,2,1683900718.0597339
-0.046466976,0.0022899848,0.9832831,-0.0004005432,-0.0004005432,0.0005340576,-0.43100104,-0.010317658,9.797169,2,1683900718.0649085
-0.046466976,0.0022899848,0.9832831,-0.0004005432,-0.0004005432,0.0005340576,-0.43130103,-0.010113333,9.797155,2,1683900718.080385
-0.046466976,0.0022899848,0.9832831,-0.0014686584,0.000667572,0.0005340576,-0.43130103,-0.010113333,9.797155,2,1683900718.0906801
-0.04402534,-0.0013648917,0.9815694,-0.0014686584,0.000667572,0.0005340576,-0.43130103,-0.010113333,9.797155,2,1683900718.1009595
-0.04402534,-0.0013648917,0.9815694,-0.0004005432,0.000667572,0.0005340576,-0.43146467,-0.010101686,9.797149,2,1683900718.1061196
-0.04378269,-0.0011222442,0.9837684,-0.0004005432,0.000667572,0.0005340576,-0.4315365,-0.010027798,9.797146,2,1683900718.1370578
-0.04428315,-0.000394302,0.9837684,-0.0004005432,-0.0014686584,0.0005340576,-0.43202305,-0.010228971,9.797123,2,1683900718.1423407
-0.047210086,0.0010767478,0.98229736,-0.0004005432,-0.0014686584,0.0005340576,-0.43202305,-0.010228971,9.797123,2,1683900718.1679375
-0.047210086,0.0010767478,0.98229736,0.000667572,0.000667572,0.0005340576,-0.43202305,-0.010228971,9.797123,2,1683900718.1833267
-0.047210086,0.0010767478,0.98229736,0.000667572,0.000667572,0.0005340576,-0.4324124,-0.0099290125,9.797107,2,1683900718.188464
-0.047210086,0.0010767478,0.98229736,0.000667572,0.000667572,0.0005340576,-0.4324198,-0.009847966,9.797107,2,1683900718.2397394
-0.04134105,0.00010615824,0.98229736,-0.0004005432,0.000667572,-0.0005340576,-0.4324198,-0.009847966,9.797107,2,1683900718.2500782
-0.04134105,0.00010615824,0.98229736,-0.0004005432,-0.0004005432,-0.0005340576,-0.4324198,-0.009847966,9.797107,2,1683900718.2551925
-0.04134105,0.00010615824,0.98229736,-0.0004005432,-0.0004005432,-0.0005340576,-0.43231422,-0.009763689,9.7971115,2,1683900718.2705848
-0.04134105,0.00010615824,0.98229736,-0.0004005432,-0.0004005432,0.0016021729,-0.43231422,-0.009763689,9.7971115,2,1683900718.2962747
-0.04134105,0.00010615824,0.98229736,-0.0004005432,-0.0004005432,0.0016021729,-0.43213,-0.009692978,9.79712,2,1683900718.3065326
-0.04134105,0.00010615824,0.98229736,-0.0004005432,-0.0004005432,0.0016021729,-0.4322618,-0.0093092015,9.797114,2,1683900718.327
-0.04402534,0.0010767478,0.9820547,-0.0004005432,-0.0004005432,0.0016021729,-0.4322618,-0.0093092015,9.797114,2,1683900718.332139
-0.04402534,0.0010767478,0.9820547,0.000667572,-0.0004005432,-0.0005340576,-0.4322618,-0.0093092015,9.797114,2,1683900718.337279
-0.044768445,-0.0011222442,0.98084146,0.000667572,-0.0004005432,-0.0005340576,-0.4322618,-0.0093092015,9.797114,2,1683900718.3833706
-0.044768445,-0.0011222442,0.98084146,0.000667572,-0.0004005432,-0.0005340576,-0.432161,-0.008421147,9.797119,2,1683900718.3885324
-0.044768445,-0.0011222442,0.98084146,-0.0004005432,0.000667572,0.0005340576,-0.432161,-0.008421147,9.797119,2,1683900718.393691
-0.0428121,-0.0020928339,0.9820547,-0.0004005432,0.000667572,0.0005340576,-0.432161,-0.008421147,9.797119,2,1683900718.4040484
-0.043297395,-0.002820776,0.9810841,-0.0004005432,0.000667572,0.0005340576,-0.432161,-0.008421147,9.797119,2,1683900718.4144645
-0.043540042,0.0008341004,0.9837684,-0.0004005432,0.000667572,-0.0005340576,-0.43208078,-0.009238154,9.797123,2,1683900718.419625
-0.043540042,0.0008341004,0.9837684,-0.0004005432,0.000667572,-0.0005340576,-0.43194503,-0.009376123,9.797129,2,1683900718.4400744
-0.043540042,0.0008341004,0.9837684,-0.0014686584,-0.0004005432,-0.0005340576,-0.43194503,-0.009376123,9.797129,2,1683900718.445205
-0.0428121,-0.0035638837,0.9788851,-0.0014686584,-0.0004005432,-0.0005340576,-0.43194503,-0.009376123,9.797129,2,1683900718.450333
-0.0428121,-0.0035638837,0.9788851,0.000667572,0.0017356873,0.0016021729,-0.43194503,-0.009376123,9.797129,2,1683900718.4554572
-0.0428121,-0.0035638837,0.9788851,0.000667572,0.0017356873,0.0016021729,-0.43163386,-0.009572532,9.797142,2,1683900718.4759502
-0.04134105,-0.0018501864,0.9810841,0.000667572,0.0017356873,0.0016021729,-0.43163386,-0.009572532,9.797142,2,1683900718.4810758
-0.04134105,-0.0018501864,0.9810841,0.000667572,0.0017356873,0.0016021729,-0.43145972,-0.009564174,9.79715,2,1683900718.4862006
-0.04134105,-0.0018501864,0.9810841,0.0017356873,-0.0004005432,0.0005340576,-0.43145972,-0.009564174,9.79715,2,1683900718.4912941
-0.040127814,-0.0018501864,0.9815694,0.0017356873,-0.0004005432,0.0005340576,-0.43145972,-0.009564174,9.79715,2,1683900718.5374272
-0.040127814,-0.0018501864,0.9815694,0.0017356873,0.000667572,0.0005340576,-0.43145972,-0.009564174,9.79715,2,1683900718.5425594
-0.040127814,-0.0018501864,0.9815694,0.0017356873,0.000667572,0.0005340576,-0.4310352,-0.009612788,9.797169,2,1683900718.5476882
-0.040127814,-0.0018501864,0.9815694,0.0017356873,0.000667572,0.0005340576,-0.43101892,-0.009633958,9.797169,2,1683900718.5630195
-0.04305475,-0.001607539,0.9820547,0.0017356873,0.000667572,0.0005340576,-0.43101892,-0.009633958,9.797169,2,1683900718.5681605
-0.04305475,-0.001607539,0.9820547,0.0017356873,0.000667572,-0.0005340576,-0.43101892,-0.009633958,9.797169,2,1683900718.594114
-0.04305475,-0.001607539,0.9820547,0.0017356873,0.000667572,-0.0005340576,-0.43096855,-0.008984904,9.797172,2,1683900718.6045382
-0.04305475,-0.001607539,0.9820547,-0.0004005432,0.000667572,0.0005340576,-0.43096855,-0.008984904,9.797172,2,1683900718.6096935
-0.04378269,-0.002820776,0.9815694,-0.0004005432,0.000667572,0.0005340576,-0.43096855,-0.008984904,9.797172,2,1683900718.6148272
-0.04378269,-0.002820776,0.9815694,-0.0004005432,0.000667572,0.0005340576,-0.43089366,-0.009023467,9.797174,2,1683900718.6303473
-0.042569455,-0.0020928339,0.98352575,-0.0004005432,0.000667572,0.0005340576,-0.43089366,-0.009023467,9.797174,2,1683900718.6354904
-0.042569455,-0.0020928339,0.98352575,-0.0004005432,0.000667572,0.0005340576,-0.43105316,-0.009013303,9.797168,2,1683900718.681821
-0.04525374,0.00010615824,0.98009837,-0.0004005432,0.000667572,0.0005340576,-0.43105316,-0.009013303,9.797168,2,1683900718.6920707
-0.04525374,0.00010615824,0.98009837,-0.0014686584,-0.0004005432,0.0005340576,-0.43105316,-0.009013303,9.797168,2,1683900718.717682
-0.0428121,-0.0011222442,0.98132676,-0.0014686584,-0.0004005432,0.0005340576,-0.43105316,-0.009013303,9.797168,2,1683900718.7331254
-0.04525374,0.00010615824,0.98009837,-0.0014686584,-0.0004005432,0.0005340576,-0.43105316,-0.009013303,9.797168,2,1683900718.7485251
-0.04525374,0.00010615824,0.98009837,-0.0014686584,-0.0004005432,0.0005340576,-0.43099657,-0.01007266,9.797169,2,1683900718.763901
-0.042084157,-0.002820776,0.9810841,-0.0014686584,-0.0004005432,0.0005340576,-0.43099657,-0.01007266,9.797169,2,1683900718.774233
-0.042084157,-0.002820776,0.9810841,-0.0014686584,0.000667572,0.0005340576,-0.43099657,-0.01007266,9.797169,2,1683900718.7845063
-0.042084157,-0.002820776,0.9810841,-0.0014686584,0.000667572,0.0005340576,-0.4309403,-0.010244957,9.797172,2,1683900718.789755
-0.041098405,-0.0025781286,0.9842537,-0.0004005432,-0.0004005432,0.0016021729,-0.43047354,-0.010453062,9.797192,2,1683900718.8051732
-0.041098405,-0.0025781286,0.9842537,-0.0004005432,-0.0004005432,0.0016021729,-0.43082565,-0.010273967,9.797177,2,1683900718.8308294
-0.04428315,0.0015620426,0.98522425,-0.0004005432,-0.0004005432,0.0016021729,-0.43082565,-0.010273967,9.797177,2,1683900718.835996
-0.04428315,0.0015620426,0.98522425,-0.0004005432,0.000667572,0.0005340576,-0.43082565,-0.010273967,9.797177,2,1683900718.8514447
-0.040855754,-0.00063694944,0.98229736,-0.0004005432,0.000667572,0.0005340576,-0.43082565,-0.010273967,9.797177,2,1683900718.8668807
-0.040855754,-0.00063694944,0.98229736,-0.0004005432,0.000667572,0.0005340576,-0.43202072,-0.009051921,9.797125,2,1683900718.8874803
-0.0428121,-0.00063694944,0.98304045,-0.0004005432,0.000667572,0.0005340576,-0.43202072,-0.009051921,9.797125,2,1683900718.9081533
-0.0428121,-0.00063694944,0.98304045,-0.0004005432,0.000667572,0.0005340576,-0.43161428,-0.009077521,9.797143,2,1683900718.918436
-0.0445258,-0.003078589,0.98132676,-0.0004005432,0.000667572,0.0005340576,-0.43161428,-0.009077521,9.797143,2,1683900718.9391327
-0.0445258,-0.003078589,0.98132676,0.000667572,0.000667572,0.0016021729,-0.43161428,-0.009077521,9.797143,2,1683900718.9495423
-0.0445258,-0.003078589,0.98132676,0.000667572,0.000667572,0.0016021729,-0.43177223,-0.009168822,9.797136,2,1683900718.9546702
-0.0445258,-0.003078589,0.98132676,0.000667572,0.000667572,0.0016021729,-0.4317362,-0.009267836,9.797137,2,1683900718.9751797
-0.042326804,-0.0018501864,0.9793704,0.000667572,0.000667572,0.0016021729,-0.4317362,-0.009267836,9.797137,2,1683900718.9803252
-0.042326804,-0.0018501864,0.9793704,-0.0004005432,0.000667572,0.0005340576,-0.4317362,-0.009267836,9.797137,2,1683900718.9854677
-0.042326804,-0.0018501864,0.9793704,-0.0004005432,0.000667572,0.0005340576,-0.43159616,-0.009075933,9.797145,2,1683900719.0008597
-0.04428315,0.0030330925,0.98181206,-0.0004005432,0.000667572,0.0005340576,-0.43159616,-0.009075933,9.797145,2,1683900719.0214193
-0.04428315,0.0030330925,0.98181206,0.000667572,-0.0004005432,-0.0005340576,-0.43159616,-0.009075933,9.797145,2,1683900719.0265496
-0.04428315,0.0030330925,0.98181206,0.000667572,-0.0004005432,-0.0005340576,-0.4315921,-0.00832227,9.797145,2,1683900719.0674946
-0.04305475,0.0020473374,0.9820547,0.000667572,-0.0004005432,-0.0005340576,-0.4315921,-0.00832227,9.797145,2,1683900719.0828552
-0.04305475,0.0020473374,0.9820547,-0.0004005432,-0.0004005432,0.0005340576,-0.4315921,-0.00832227,9.797145,2,1683900719.0982025
-0.04672479,-0.0008795968,0.980341,-0.0004005432,-0.0004005432,0.0005340576,-0.4315921,-0.00832227,9.797145,2,1683900719.1085165
-0.0445258,-0.000394302,0.9837684,-0.0004005432,-0.0004005432,0.0005340576,-0.4315921,-0.00832227,9.797145,2,1683900719.1289642
-0.0445258,-0.000394302,0.9837684,-0.0004005432,-0.0004005432,0.0005340576,-0.4315679,-0.007574471,9.797147,2,1683900719.1340985
-0.0445258,-0.000394302,0.9837684,0.000667572,-0.0014686584,0.0005340576,-0.4315679,-0.007574471,9.797147,2,1683900719.1546307
-0.042084157,0.00034880562,0.98254,0.000667572,-0.0014686584,0.0005340576,-0.4315679,-0.007574471,9.797147,2,1683900719.175122
-0.042084157,0.00034880562,0.98254,0.0017356873,0.000667572,0.0005340576,-0.4315679,-0.007574471,9.797147,2,1683900719.1802711
-0.042084157,0.00034880562,0.98254,0.0017356873,0.000667572,0.0005340576,-0.4312748,-0.007631754,9.797159,2,1683900719.1853974
-0.043540042,0.00010615824,0.9815694,0.0017356873,0.000667572,0.0005340576,-0.4312748,-0.007631754,9.797159,2,1683900719.1956658
-0.043540042,0.00010615824,0.9815694,0.0017356873,0.000667572,0.0005340576,-0.4314025,-0.0077315527,9.797153,2,1683900719.2008402
-0.043540042,0.00010615824,0.9815694,0.000667572,-0.0004005432,-0.0005340576,-0.4314025,-0.0077315527,9.797153,2,1683900719.211114
-0.043540042,0.00010615824,0.9815694,0.000667572,-0.0004005432,-0.0005340576,-0.43158337,-0.0078107,9.797146,2,1683900719.2419753
-0.045011092,-0.0020928339,0.98181206,0.000667572,-0.0004005432,-0.0005340576,-0.43158337,-0.0078107,9.797146,2,1683900719.2471266
-0.045011092,-0.0020928339,0.98181206,0.000667572,0.000667572,0.0005340576,-0.43158337,-0.0078107,9.797146,2,1683900719.2522678
-0.045011092,-0.0020928339,0.98181206,0.000667572,-0.0004005432,0.0005340576,-0.43158337,-0.0078107,9.797146,2,1683900719.2574563
-0.045011092,-0.0020928339,0.98181206,0.000667572,-0.0004005432,0.0005340576,-0.43181518,-0.007914393,9.797134,2,1683900719.2626104
-0.043297395,0.00059145305,0.980341,0.000667572,-0.0004005432,0.0005340576,-0.43181518,-0.007914393,9.797134,2,1683900719.2883189
-0.042326804,0.0020473374,0.98132676,0.000667572,-0.0004005432,0.0005340576,-0.43181518,-0.007914393,9.797134,2,1683900719.2934253
-0.042326804,0.0020473374,0.98132676,0.000667572,0.000667572,0.0005340576,-0.43181518,-0.007914393,9.797134,2,1683900719.2986026
-0.042326804,0.0020473374,0.98132676,0.000667572,0.000667572,0.0005340576,-0.43181518,-0.007647118,9.797137,2,1683900719.3139956
-0.04525374,-0.0011222442,0.9820547,0.000667572,0.000667572,0.0005340576,-0.43181518,-0.007647118,9.797137,2,1683900719.344808
-0.04525374,-0.0011222442,0.9820547,0.000667572,0.000667572,0.0005340576,-0.43185437,-0.007517035,9.797133,2,1683900719.365359
-0.04525374,-0.0011222442,0.9820547,0.000667572,0.000667572,0.0005340576,-0.4312765,-0.0071987384,9.797159,2,1683900719.3961787
-0.04184151,-0.002335481,0.98449636,0.000667572,0.000667572,0.0005340576,-0.4312765,-0.0071987384,9.797159,2,1683900719.4220557
-0.04184151,-0.002335481,0.98449636,0.0017356873,-0.0004005432,0.0005340576,-0.4312765,-0.0071987384,9.797159,2,1683900719.4426243
-0.043297395,-0.002820776,0.9842537,0.0017356873,-0.0004005432,0.0005340576,-0.4312765,-0.0071987384,9.797159,2,1683900719.4478192
-0.043297395,-0.002820776,0.9842537,0.0017356873,-0.0004005432,0.0005340576,-0.43150336,-0.0074394275,9.79715,2,1683900719.4580638
-0.0428121,-0.0008795968,0.9820547,0.0017356873,-0.0004005432,0.0005340576,-0.43150336,-0.0074394275,9.79715,2,1683900719.463197
-0.0428121,-0.0008795968,0.9820547,0.000667572,0.000667572,0.0016021729,-0.43150336,-0.0074394275,9.79715,2,1683900719.483718
-0.0428121,-0.0008795968,0.9820547,0.000667572,0.000667572,0.0016021729,-0.43143043,-0.007357295,9.7971525,2,1683900719.493984
-0.042569455,-0.003078589,0.9820547,0.000667572,0.000667572,0.0016021729,-0.43143043,-0.007357295,9.7971525,2,1683900719.5093758
-0.042569455,-0.003078589,0.9820547,0.000667572,0.000667572,0.0016021729,-0.43141645,-0.0075559486,9.797153,2,1683900719.5196774
-0.042569455,-0.003078589,0.9820547,-0.0004005432,0.000667572,-0.0005340576,-0.43141645,-0.0075559486,9.797153,2,1683900719.5351067
-0.042569455,-0.003078589,0.9820547,-0.0004005432,0.0017356873,0.0005340576,-0.43141645,-0.0075559486,9.797153,2,1683900719.5454228
-0.0445258,-0.0033212362,0.98254,-0.0004005432,0.0017356873,0.0005340576,-0.43141645,-0.0075559486,9.797153,2,1683900719.5506072
-0.0445258,-0.0033212362,0.98254,-0.0004005432,0.0017356873,0.0005340576,-0.43169788,-0.0077715786,9.79714,2,1683900719.5608735
-0.04672479,-0.0013648917,0.98229736,-0.0004005432,0.0017356873,0.0005340576,-0.43169788,-0.0077715786,9.79714,2,1683900719.58155
-0.04672479,-0.0013648917,0.98229736,0.000667572,-0.0004005432,0.0005340576,-0.43169788,-0.0077715786,9.79714,2,1683900719.5867674
-0.04672479,-0.0013648917,0.98229736,0.000667572,-0.0004005432,0.0005340576,-0.43196413,-0.007789459,9.797129,2,1683900719.5970244
-0.04672479,-0.0013648917,0.98229736,-0.0004005432,0.000667572,0.0005340576,-0.43196413,-0.007789459,9.797129,2,1683900719.6430676
-0.04672479,-0.0013648917,0.98229736,-0.0004005432,0.000667572,0.0005340576,-0.43234947,-0.0077394284,9.797112,2,1683900719.658449
-0.045739036,0.00010615824,0.98181206,-0.0004005432,0.000667572,0.0005340576,-0.43234947,-0.0077394284,9.797112,2,1683900719.668711
-0.045739036,0.00010615824,0.98181206,-0.0004005432,0.000667572,0.0005340576,-0.43158123,-0.007279656,9.797146,2,1683900719.6943858
-0.045739036,0.00010615824,0.98181206,-0.0004005432,0.000667572,0.0005340576,-0.43137056,-0.007907522,9.797154,2,1683900719.6995103
-0.045739036,0.00010615824,0.98181206,0.000667572,0.000667572,0.0005340576,-0.43137056,-0.007907522,9.797154,2,1683900719.714915
-0.0445258,-0.002820776,0.9832831,0.000667572,0.000667572,0.0005340576,-0.43137056,-0.007907522,9.797154,2,1683900719.7251914
-0.04184151,-0.0033212362,0.97961307,0.000667572,0.000667572,0.0005340576,-0.43137056,-0.007907522,9.797154,2,1683900719.735441
-0.04184151,-0.0033212362,0.97961307,0.000667572,0.000667572,0.0005340576,-0.43122426,-0.00821791,9.797161,2,1683900719.755981
-0.04184151,-0.0033212362,0.97961307,-0.0004005432,0.000667572,0.0005340576,-0.43122426,-0.00821791,9.797161,2,1683900719.7664618
-0.044768445,0.00059145305,0.9788851,0.000667572,-0.0004005432,0.0016021729,-0.4328051,-0.0074859643,9.7970915,2,1683900719.7883635
-0.044768445,0.00059145305,0.9788851,0.000667572,0.000667572,0.0005340576,-0.4328051,-0.0074859643,9.7970915,2,1683900719.8141308
-0.044768445,0.00059145305,0.9788851,0.000667572,0.000667572,0.0005340576,-0.43259555,-0.0073240185,9.797101,2,1683900719.8192863
-0.04037046,0.0008341004,0.98009837,0.000667572,0.000667572,0.0005340576,-0.43259555,-0.0073240185,9.797101,2,1683900719.824429
-0.0445258,-0.003078589,0.9837684,0.000667572,0.000667572,0.0005340576,-0.43259555,-0.0073240185,9.797101,2,1683900719.829585
-0.0445258,-0.003078589,0.9837684,0.000667572,-0.0004005432,0.0005340576,-0.43259555,-0.0073240185,9.797101,2,1683900719.845032
-0.0445258,-0.003078589,0.9837684,0.000667572,-0.0004005432,0.0005340576,-0.4325644,-0.0074061435,9.797103,2,1683900719.859905
-0.045739036,-0.0018501864,0.98522425,-0.0004005432,0.0017356873,0.0005340576,-0.4319607,-0.009000395,9.797128,2,1683900719.8911588
-0.045739036,-0.0018501864,0.98522425,-0.0004005432,0.000667572,0.0005340576,-0.4319607,-0.009000395,9.797128,2,1683900719.8963935
-0.045739036,-0.0018501864,0.98522425,-0.0004005432,-0.0004005432,-0.0005340576,-0.4319607,-0.009000395,9.797128,2,1683900719.9015427
-0.043540042,-0.001607539,0.98181206,-0.0004005432,-0.0004005432,-0.0005340576,-0.4319607,-0.009000395,9.797128,2,1683900719.9073033
-0.043540042,-0.001607539,0.98181206,-0.0004005432,-0.0004005432,-0.0005340576,-0.43202528,-0.009036146,9.797125,2,1683900719.917724
-0.043540042,-0.001607539,0.98181206,0.000667572,-0.0014686584,0.0005340576,-0.4319924,-0.0095811365,9.797126,2,1683900719.9287388
-0.042326804,-0.0013648917,0.98352575,0.000667572,-0.0014686584,0.0005340576,-0.4319924,-0.0095811365,9.797126,2,1683900719.928762
-0.04134105,-0.0013648917,0.9805988,0.000667572,-0.0014686584,0.0005340576,-0.4319924,-0.0095811365,9.797126,2,1683900719.9391797
-0.041098405,-0.0035638837,0.98132676,0.000667572,-0.0014686584,-0.0016021729,-0.4319924,-0.0095811365,9.797126,2,1683900719.944536
-0.041098405,-0.0035638837,0.98132676,-0.0004005432,-0.0004005432,0.0016021729,-0.4319924,-0.0095811365,9.797126,2,1683900719.9617705
-0.0428121,-0.0008795968,0.9815694,-0.0004005432,-0.0004005432,0.0016021729,-0.4319924,-0.0095811365,9.797126,2,1683900719.972185
-0.04549639,0.0015620426,0.9815694,-0.0004005432,0.000667572,0.0005340576,-0.43173456,-0.0097119305,9.797137,2,1683900719.993117
-0.042569455,-0.003078589,0.98181206,-0.0004005432,0.000667572,0.0005340576,-0.43173456,-0.0097119305,9.797137,2,1683900720.0087392
-0.042569455,-0.003078589,0.98181206,-0.0004005432,0.000667572,0.0005340576,-0.43207037,-0.009759164,9.797122,2,1683900720.0138736
-0.042569455,-0.003078589,0.98181206,-0.0004005432,0.000667572,-0.0005340576,-0.43207037,-0.009759164,9.797122,2,1683900720.024281
-0.044768445,-0.0018501864,0.9820547,-0.0014686584,-0.0004005432,0.0016021729,-0.43167415,-0.010030154,9.79714,2,1683900720.0295022
-0.044768445,-0.0018501864,0.9820547,-0.0014686584,-0.0004005432,0.0016021729,-0.43146235,-0.010007737,9.797149,2,1683900720.0346563
-0.044768445,-0.0018501864,0.9820547,-0.0004005432,0.000667572,0.0005340576,-0.43146235,-0.010007737,9.797149,2,1683900720.0398295
-0.04428315,0.00034880562,0.9815694,-0.0004005432,0.000667572,0.0005340576,-0.43146235,-0.010007737,9.797149,2,1683900720.0501182
-0.042326804,-0.0035638837,0.98401105,-0.0004005432,0.000667572,0.0005340576,-0.43146235,-0.010007737,9.797149,2,1683900720.0553818
-0.042326804,-0.0035638837,0.98401105,-0.0004005432,0.000667572,0.0005340576,-0.4312492,-0.0104506705,9.797158,2,1683900720.081506
-0.042326804,-0.0035638837,0.98401105,-0.0004005432,0.000667572,-0.0005340576,-0.4312492,-0.0104506705,9.797158,2,1683900720.091837
-0.042326804,-0.0035638837,0.98401105,-0.0004005432,0.000667572,-0.0005340576,-0.43118647,-0.010682987,9.79716,2,1683900720.0969841
-0.042084157,-0.0035638837,0.98229736,-0.0004005432,0.000667572,-0.0005340576,-0.43118647,-0.010682987,9.79716,2,1683900720.102141
-0.042084157,-0.0035638837,0.98229736,-0.0004005432,0.000667572,-0.0005340576,-0.4310146,-0.01090155,9.797168,2,1683900720.117768
-0.043540042,-0.0038065312,0.98229736,-0.0004005432,0.000667572,-0.0005340576,-0.4310146,-0.01090155,9.797168,2,1683900720.1229532
-0.043540042,-0.0038065312,0.98229736,-0.0004005432,0.000667572,-0.0005340576,-0.4309388,-0.01097689,9.797171,2,1683900720.1642299
-0.043540042,-0.0038065312,0.98229736,0.000667572,-0.0004005432,-0.0005340576,-0.4309388,-0.01097689,9.797171,2,1683900720.1694748
-0.042569455,-0.002335481,0.9832831,0.000667572,-0.0004005432,-0.0005340576,-0.4309388,-0.01097689,9.797171,2,1683900720.19004
-0.044768445,-0.002335481,0.9849816,0.000667572,-0.0004005432,-0.0005340576,-0.4309388,-0.01097689,9.797171,2,1683900720.2620814
-0.044768445,-0.002335481,0.9849816,0.000667572,0.0017356873,0.0005340576,-0.4309388,-0.01097689,9.797171,2,1683900720.2878578
-0.044768445,-0.002335481,0.9849816,0.000667572,0.0017356873,0.0005340576,-0.43124744,-0.010499191,9.797157,2,1683900720.2929769
-0.04134105,0.00034880562,0.9832831,0.000667572,0.0017356873,0.0005340576,-0.43124744,-0.010499191,9.797157,2,1683900720.3032272
-0.045011092,-0.0013648917,0.9820547,0.000667572,0.0017356873,0.0005340576,-0.43124744,-0.010499191,9.797157,2,1683900720.3186939
-0.045011092,-0.0013648917,0.9820547,0.000667572,0.0017356873,0.0005340576,-0.4312554,-0.010593395,9.797157,2,1683900720.3289914
-0.045011092,-0.0013648917,0.9820547,0.000667572,-0.0004005432,0.0005340576,-0.4312554,-0.010593395,9.797157,2,1683900720.3341832
-0.045011092,-0.0013648917,0.9820547,0.000667572,-0.0004005432,0.0005340576,-0.43137956,-0.010262073,9.7971525,2,1683900720.349571
-0.04549639,0.0025477977,0.9945055,0.000667572,-0.0004005432,0.0005340576,-0.43137956,-0.010262073,9.7971525,2,1683900720.3598378
-0.043297395,-0.0013648917,0.98229736,0.000667572,-0.0004005432,0.0005340576,-0.43137956,-0.010262073,9.7971525,2,1683900720.3958843
-0.043297395,-0.0013648917,0.98229736,-0.0004005432,0.000667572,0.0005340576,-0.43137956,-0.010262073,9.7971525,2,1683900720.4061038
-0.043297395,-0.0013648917,0.98229736,-0.0004005432,0.000667572,0.0005340576,-0.4317319,-0.010324452,9.797137,2,1683900720.4111924
-0.043297395,-0.0013648917,0.98229736,-0.0004005432,-0.0004005432,0.0005340576,-0.4317319,-0.010324452,9.797137,2,1683900720.436932
-0.043297395,-0.0013648917,0.98229736,-0.0004005432,-0.0004005432,0.0005340576,-0.431796,-0.009977509,9.797134,2,1683900720.4420907
-0.042084157,0.0008341004,0.98572475,-0.0004005432,-0.0004005432,0.0005340576,-0.431796,-0.009977509,9.797134,2,1683900720.4472091
-0.042084157,0.0008341004,0.98572475,0.000667572,-0.0004005432,-0.0016021729,-0.431796,-0.009977509,9.797134,2,1683900720.4523594
-0.042084157,0.0008341004,0.98572475,0.000667572,-0.0004005432,-0.0016021729,-0.4315775,-0.010102011,9.797144,2,1683900720.457516
-0.041598864,-0.002820776,0.9984031,0.000667572,-0.0004005432,-0.0016021729,-0.4315775,-0.010102011,9.797144,2,1683900720.4626648
-0.04402534,-0.003078589,0.98840904,0.000667572,-0.0004005432,-0.0016021729,-0.4315775,-0.010102011,9.797144,2,1683900720.4985619
-0.04402534,-0.003078589,0.98840904,-0.0004005432,0.000667572,0.0005340576,-0.4315775,-0.010102011,9.797144,2,1683900720.503693
-0.04402534,-0.003078589,0.98840904,-0.0004005432,0.000667572,0.0005340576,-0.43146595,-0.009963521,9.797149,2,1683900720.508836
-0.04402534,-0.003078589,0.98840904,0.000667572,0.0017356873,-0.0005340576,-0.43146595,-0.009963521,9.797149,2,1683900720.5345726
-0.043540042,-0.0020928339,0.9725459,0.000667572,0.0017356873,-0.0005340576,-0.43146595,-0.009963521,9.797149,2,1683900720.5397358
-0.043540042,-0.0020928339,0.9725459,0.000667572,0.0017356873,-0.0005340576,-0.43168446,-0.010216521,9.797139,2,1683900720.5448992
-0.04402534,-0.0013648917,0.9779145,0.000667572,0.0017356873,-0.0005340576,-0.43168446,-0.010216521,9.797139,2,1683900720.560361
-0.04402534,-0.0013648917,0.9779145,0.000667572,0.0017356873,-0.0005340576,-0.43183622,-0.009984253,9.7971325,2,1683900720.5809965
-0.04402534,-0.0013648917,0.9779145,-0.0004005432,-0.0004005432,-0.0005340576,-0.43183622,-0.009984253,9.7971325,2,1683900720.5861518
-0.04402534,-0.0013648917,0.9779145,-0.0004005432,-0.0004005432,-0.0005340576,-0.43194056,-0.010175364,9.797128,2,1683900720.6067228
-0.045011092,-0.0018501864,0.9842537,-0.0004005432,-0.0004005432,-0.0005340576,-0.43194056,-0.010175364,9.797128,2,1683900720.6374052
-0.045011092,-0.0018501864,0.9842537,-0.0004005432,-0.0004005432,-0.0005340576,-0.43214247,-0.01027399,9.797118,2,1683900720.652683
-0.045011092,-0.0018501864,0.9842537,0.000667572,-0.0004005432,-0.0005340576,-0.43214247,-0.01027399,9.797118,2,1683900720.6578171
-0.045011092,-0.0018501864,0.9842537,0.000667572,-0.0004005432,-0.0005340576,-0.43230864,-0.010618741,9.7971115,2,1683900720.6680741
-0.042326804,-0.0018501864,0.9810841,0.000667572,-0.0004005432,-0.0005340576,-0.43230864,-0.010618741,9.7971115,2,1683900720.688587
-0.042326804,-0.0018501864,0.9810841,0.000667572,-0.0014686584,0.0005340576,-0.43230864,-0.010618741,9.7971115,2,1683900720.6937385
-0.04305475,0.00059145305,0.98254,0.000667572,-0.0014686584,0.0005340576,-0.43230864,-0.010618741,9.7971115,2,1683900720.7347498
-0.04305475,0.00059145305,0.98254,0.000667572,-0.0014686584,0.0005340576,-0.43258604,-0.010402684,9.797099,2,1683900720.7398882
-0.04305475,0.00059145305,0.98254,-0.0004005432,0.0017356873,0.0005340576,-0.43258604,-0.010402684,9.797099,2,1683900720.7501411
-0.04378269,-0.0035638837,0.98449636,-0.0004005432,0.0017356873,0.0005340576,-0.43258604,-0.010402684,9.797099,2,1683900720.7654889
-0.04378269,-0.0035638837,0.98449636,-0.0004005432,0.0017356873,0.0005340576,-0.43268728,-0.0107336985,9.797093,2,1683900720.7706265
-0.04378269,-0.0035638837,0.98449636,-0.0004005432,-0.0004005432,-0.0005340576,-0.43268728,-0.0107336985,9.797093,2,1683900720.78594
-0.04378269,-0.0035638837,0.98449636,-0.0004005432,-0.0004005432,0.0016021729,-0.43268728,-0.0107336985,9.797093,2,1683900720.7962065
-0.042084157,-0.0018501864,0.98229736,-0.0004005432,-0.0004005432,0.0016021729,-0.43268728,-0.0107336985,9.797093,2,1683900720.8013391
-0.042084157,-0.0018501864,0.98229736,-0.0004005432,-0.0004005432,0.0016021729,-0.43240806,-0.011116641,9.797106,2,1683900720.8064668
-0.0428121,-0.0020928339,0.9810841,-0.0004005432,-0.0004005432,0.0016021729,-0.43240806,-0.011116641,9.797106,2,1683900720.832096
-0.0428121,-0.0020928339,0.9810841,-0.0004005432,-0.0004005432,-0.0005340576,-0.43240806,-0.011116641,9.797106,2,1683900720.8474827
-0.0428121,-0.0020928339,0.9810841,-0.0004005432,-0.0004005432,-0.0005340576,-0.43229553,-0.01122852,9.7971115,2,1683900720.8577428
-0.0428121,-0.0020928339,0.9810841,-0.0004005432,-0.0004005432,-0.0005340576,-0.4322373,-0.011332809,9.797113,2,1683900720.888537
-0.04428315,-0.004534473,0.98084146,-0.0004005432,-0.0004005432,-0.0005340576,-0.4322373,-0.011332809,9.797113,2,1683900720.9039419
-0.04428315,-0.004534473,0.98084146,-0.0004005432,-0.0004005432,-0.0005340576,-0.43189168,-0.011592041,9.797129,2,1683900720.929558
-0.04428315,-0.004534473,0.98084146,-0.0004005432,-0.0004005432,-0.0005340576,-0.43198892,-0.011528227,9.797124,2,1683900720.9449265
-0.04305475,0.00180469,0.98304045,-0.0004005432,-0.0004005432,-0.0005340576,-0.43198892,-0.011528227,9.797124,2,1683900720.9500399
-0.04305475,0.00180469,0.98304045,0.000667572,-0.0004005432,0.0005340576,-0.43198892,-0.011528227,9.797124,2,1683900720.9654367
-0.04402534,0.00180469,0.9820547,0.000667572,-0.0004005432,0.0005340576,-0.43198892,-0.011528227,9.797124,2,1683900720.9807978
-0.04402534,0.00180469,0.9820547,-0.0004005432,-0.0004005432,0.0016021729,-0.43198892,-0.011528227,9.797124,2,1683900720.9910135
-0.04402534,0.00180469,0.9820547,-0.0004005432,-0.0004005432,0.0016021729,-0.4320311,-0.01130074,9.797122,2,1683900720.9961495
-0.039885167,0.0008341004,0.98352575,-0.0004005432,-0.0004005432,0.0016021729,-0.4320311,-0.01130074,9.797122,2,1683900721.0218158
-0.039885167,0.0008341004,0.98352575,-0.0004005432,-0.0004005432,0.0016021729,-0.4318777,-0.011059227,9.79713,2,1683900721.026963
-0.039885167,0.0008341004,0.98352575,-0.0004005432,0.000667572,0.0005340576,-0.4318777,-0.011059227,9.79713,2,1683900721.0526578
-0.039885167,0.0008341004,0.98352575,0.000667572,0.000667572,-0.0005340576,-0.4318777,-0.011059227,9.79713,2,1683900721.0783231
-0.039885167,0.0008341004,0.98352575,0.000667572,0.000667572,-0.0005340576,-0.43237096,-0.01091659,9.797108,2,1683900721.088577
-0.04622433,-0.0011222442,0.9849816,0.000667572,0.000667572,-0.0005340576,-0.43237096,-0.01091659,9.797108,2,1683900721.093721
-0.04622433,-0.0011222442,0.9849816,-0.0004005432,-0.0004005432,0.0005340576,-0.43237096,-0.01091659,9.797108,2,1683900721.098812
-0.043297395,-0.0013648917,0.9842537,-0.0004005432,-0.0004005432,0.0005340576,-0.43237096,-0.01091659,9.797108,2,1683900721.124438
-0.043297395,-0.0013648917,0.9842537,-0.0004005432,-0.0004005432,0.0005340576,-0.43251207,-0.011045672,9.797101,2,1683900721.1347103
-0.04305475,-0.00063694944,0.98132676,-0.0004005432,-0.0004005432,0.0005340576,-0.43251207,-0.011045672,9.797101,2,1683900721.1398368
-0.04305475,-0.00063694944,0.98132676,-0.0004005432,-0.0004005432,0.0005340576,-0.43247145,-0.01107935,9.797103,2,1683900721.1551433
-0.04305475,-0.00063694944,0.98132676,-0.0014686584,-0.0004005432,0.0005340576,-0.43247145,-0.01107935,9.797103,2,1683900721.1602814
-0.04184151,-0.00013648917,0.98132676,-0.0014686584,-0.0004005432,0.0005340576,-0.43247145,-0.01107935,9.797103,2,1683900721.180749
-0.04184151,-0.00013648917,0.98132676,-0.0014686584,-0.0004005432,0.0005340576,-0.4321564,-0.011275242,9.797117,2,1683900721.1910048
-0.04184151,-0.00013648917,0.98132676,0.000667572,-0.0004005432,-0.0005340576,-0.4321564,-0.011275242,9.797117,2,1683900721.1961405
-0.04184151,-0.00013648917,0.98132676,-0.0004005432,0.000667572,0.0005340576,-0.4321564,-0.011275242,9.797117,2,1683900721.2166297
-0.04378269,0.0008341004,0.98181206,-0.0004005432,0.000667572,0.0005340576,-0.4321564,-0.011275242,9.797117,2,1683900721.2268858
-0.04378269,0.0008341004,0.98181206,-0.0004005432,0.000667572,0.0005340576,-0.4320176,-0.011839817,9.797123,2,1683900721.2371395
-0.04378269,0.0008341004,0.98181206,-0.0004005432,0.000667572,0.0005340576,-0.4319161,-0.011519028,9.797128,2,1683900721.2576404
-0.042326804,-0.0013648917,0.98352575,-0.0004005432,0.000667572,0.0005340576,-0.4319161,-0.011519028,9.797128,2,1683900721.2782023
-0.0445258,0.0022899848,0.98132676,-0.0004005432,0.000667572,0.0005340576,-0.4319161,-0.011519028,9.797128,2,1683900721.2884278
-0.0445258,0.0022899848,0.98132676,-0.0004005432,0.000667572,0.0016021729,-0.4319161,-0.011519028,9.797128,2,1683900721.2935574
-0.0445258,0.0022899848,0.98132676,0.000667572,-0.0004005432,0.0005340576,-0.4320787,-0.011068026,9.79712,2,1683900721.298669
-0.0445258,0.0022899848,0.98132676,0.000667572,0.000667572,0.0016021729,-0.4320787,-0.011068026,9.79712,2,1683900721.3089223
-0.0445258,0.0022899848,0.98132676,0.000667572,0.000667572,0.0016021729,-0.43201274,-0.010934588,9.797124,2,1683900721.3345752
-0.042084157,0.00010615824,0.98132676,0.000667572,0.000667572,0.0016021729,-0.43201274,-0.010934588,9.797124,2,1683900721.3397021
-0.042084157,0.00010615824,0.98132676,0.000667572,-0.0004005432,0.0005340576,-0.43201274,-0.010934588,9.797124,2,1683900721.3499537
-0.0445258,-0.0038065312,0.98304045,0.000667572,-0.0004005432,0.0005340576,-0.43201274,-0.010934588,9.797124,2,1683900721.35509
-0.0445258,-0.0038065312,0.98304045,0.000667572,-0.0004005432,0.0005340576,-0.4320056,-0.011525875,9.797123,2,1683900721.3755567
-0.042569455,-0.0011222442,0.9815694,0.000667572,-0.0004005432,0.0005340576,-0.4320056,-0.011525875,9.797123,2,1683900721.3960738
-0.042569455,-0.0011222442,0.9815694,-0.0004005432,-0.0004005432,-0.0016021729,-0.4320056,-0.011525875,9.797123,2,1683900721.4063215
-0.042569455,-0.0011222442,0.9815694,-0.0004005432,-0.0004005432,-0.0016021729,-0.43200147,-0.011448509,9.797123,2,1683900721.4114416
-0.042569455,-0.0033212362,0.9805988,-0.0004005432,-0.0004005432,-0.0016021729,-0.43200147,-0.011448509,9.797123,2,1683900721.4217334
-0.042569455,-0.0033212362,0.9805988,-0.0004005432,-0.0004005432,-0.0016021729,-0.43203062,-0.011699338,9.797122,2,1683900721.437067
-0.042569455,-0.0033212362,0.9805988,-0.0014686584,0.0017356873,0.0016021729,-0.43203062,-0.011699338,9.797122,2,1683900721.4421978
-0.04428315,0.0013193953,0.9815694,-0.0014686584,0.0017356873,0.0016021729,-0.43203062,-0.011699338,9.797122,2,1683900721.4626744
-0.04428315,0.0013193953,0.9815694,-0.0004005432,0.000667572,-0.0016021729,-0.43203062,-0.011699338,9.797122,2,1683900721.4728904
-0.04428315,-0.0020928339,0.98449636,-0.0004005432,0.000667572,-0.0016021729,-0.43203062,-0.011699338,9.797122,2,1683900721.4933963
-0.04428315,-0.0020928339,0.98449636,-0.0004005432,0.000667572,-0.0016021729,-0.43242693,-0.01006673,9.797107,2,1683900721.5036795
-0.04428315,-0.0020928339,0.98449636,-0.0004005432,0.000667572,-0.0005340576,-0.43242693,-0.01006673,9.797107,2,1683900721.5088146
-0.040127814,-0.00013648917,0.98304045,0.0017356873,0.000667572,0.0005340576,-0.43249172,-0.009732895,9.797103,2,1683900721.513962
-0.040127814,-0.00013648917,0.98304045,0.0017356873,0.000667572,0.0005340576,-0.43233117,-0.009546055,9.797111,2,1683900721.5805824
-0.040127814,-0.00013648917,0.98304045,-0.0004005432,-0.0004005432,-0.0005340576,-0.43233117,-0.009546055,9.797111,2,1683900721.5857074
-0.040855754,-0.003078589,0.9820547,-0.0004005432,-0.0004005432,-0.0005340576,-0.43233117,-0.009546055,9.797111,2,1683900721.5908334
-0.040855754,-0.003078589,0.9820547,-0.0004005432,-0.0004005432,-0.0005340576,-0.43209112,-0.009439536,9.797121,2,1683900721.6266205
-0.040855754,-0.003078589,0.9820547,0.000667572,0.000667572,-0.0005340576,-0.43209112,-0.009439536,9.797121,2,1683900721.6317546
-0.042326804,-0.0011222442,0.98254,0.000667572,0.000667572,-0.0005340576,-0.43209112,-0.009439536,9.797121,2,1683900721.6419408
-0.047210086,-0.0008795968,0.9788851,0.000667572,0.000667572,-0.0005340576,-0.43209112,-0.009439536,9.797121,2,1683900721.657324
-0.047210086,-0.0008795968,0.9788851,0.000667572,0.000667572,-0.0005340576,-0.43240723,-0.009403376,9.797108,2,1683900721.667601
-0.047210086,-0.0008795968,0.9788851,0.000667572,-0.0004005432,0.0005340576,-0.43240723,-0.009403376,9.797108,2,1683900721.6727266
-0.047210086,-0.0008795968,0.9788851,0.000667572,-0.0004005432,0.0005340576,-0.43226036,-0.009078755,9.797114,2,1683900721.7034867
-0.04184151,-0.00013648917,0.9815694,0.000667572,-0.0004005432,0.0005340576,-0.43226036,-0.009078755,9.797114,2,1683900721.713752
-0.04184151,-0.00013648917,0.9815694,0.000667572,-0.0004005432,-0.0005340576,-0.43226036,-0.009078755,9.797114,2,1683900721.749605
-0.04184151,-0.00013648917,0.9815694,-0.0004005432,-0.0014686584,0.0005340576,-0.43226036,-0.009078755,9.797114,2,1683900721.7649732
-0.04184151,-0.00013648917,0.9815694,-0.0004005432,-0.0014686584,0.0005340576,-0.43206498,-0.009640876,9.797122,2,1683900721.775183
-0.040127814,0.0010767478,0.98009837,-0.0004005432,-0.0014686584,0.0005340576,-0.43206498,-0.009640876,9.797122,2,1683900721.7803187
-0.040127814,0.0010767478,0.98009837,-0.0004005432,-0.0004005432,-0.0005340576,-0.43206498,-0.009640876,9.797122,2,1683900721.7854674
-0.040127814,0.0010767478,0.98009837,-0.0004005432,-0.0004005432,-0.0005340576,-0.4320025,-0.009656606,9.797125,2,1683900721.8008525
-0.0428121,-0.0008795968,0.9827826,-0.0004005432,-0.0004005432,-0.0005340576,-0.4320025,-0.009656606,9.797125,2,1683900721.8111196
-0.04428315,0.0008341004,0.9815694,-0.0004005432,-0.0004005432,-0.0005340576,-0.4320025,-0.009656606,9.797125,2,1683900721.8162513
-0.04428315,0.0008341004,0.9815694,-0.0004005432,-0.0004005432,0.0005340576,-0.4320025,-0.009656606,9.797125,2,1683900721.8265107
-0.04428315,0.0008341004,0.9815694,-0.0004005432,-0.0004005432,0.0005340576,-0.43215808,-0.009557321,9.797118,2,1683900721.8470345
-0.04428315,0.0008341004,0.9815694,-0.0004005432,-0.0004005432,0.0005340576,-0.43201935,-0.009551329,9.797125,2,1683900721.8675678
-0.04184151,-0.00063694944,0.98132676,-0.0004005432,-0.0004005432,0.0005340576,-0.43201935,-0.009551329,9.797125,2,1683900721.882962
-0.04184151,-0.00063694944,0.98132676,0.000667572,-0.0004005432,-0.0005340576,-0.43201935,-0.009551329,9.797125,2,1683900721.9034796
-0.04037046,-0.0013648917,0.9793704,0.000667572,-0.0004005432,-0.0005340576,-0.43201935,-0.009551329,9.797125,2,1683900721.913745
-0.04037046,-0.0013648917,0.9793704,0.000667572,-0.0004005432,-0.0005340576,-0.43173644,-0.009665073,9.797136,2,1683900721.918874
-0.04037046,-0.0013648917,0.9793704,0.000667572,-0.0004005432,-0.0005340576,-0.43161708,-0.009508771,9.797143,2,1683900721.9240046
-0.04037046,-0.0013648917,0.9793704,-0.0004005432,-0.0004005432,0.0005340576,-0.43161708,-0.009508771,9.797143,2,1683900721.9291368
-0.04402534,-0.0008795968,0.97864246,-0.0004005432,-0.0004005432,0.0005340576,-0.43161708,-0.009508771,9.797143,2,1683900721.93427
-0.045011092,-0.00063694944,0.98181206,-0.0004005432,-0.0004005432,0.0005340576,-0.43161708,-0.009508771,9.797143,2,1683900721.9598227
-0.045011092,-0.00063694944,0.98181206,0.000667572,0.000667572,0.0016021729,-0.43161708,-0.009508771,9.797143,2,1683900721.9751787
-0.045011092,-0.00063694944,0.98181206,0.000667572,0.000667572,0.0016021729,-0.43179613,-0.009449033,9.797134,2,1683900721.990568
-0.04184151,-0.002335481,0.9832831,0.000667572,0.000667572,0.0016021729,-0.43179613,-0.009449033,9.797134,2,1683900722.0161836
-0.04184151,-0.002335481,0.9832831,-0.0014686584,-0.0004005432,-0.0005340576,-0.43179613,-0.009449033,9.797134,2,1683900722.0315597
-0.04184151,-0.002335481,0.9832831,-0.0014686584,-0.0004005432,-0.0005340576,-0.43144658,-0.009485043,9.79715,2,1683900722.046949
-0.040855754,-0.0013648917,0.98304045,-0.0014686584,-0.0004005432,-0.0005340576,-0.43144658,-0.009485043,9.79715,2,1683900722.0520852
-0.040855754,-0.0013648917,0.98304045,-0.0014686584,0.000667572,0.0005340576,-0.43144658,-0.009485043,9.79715,2,1683900722.072587
-0.040855754,-0.0013648917,0.98304045,-0.0014686584,0.000667572,0.0005340576,-0.43130508,-0.009560122,9.797156,2,1683900722.077722
-0.042326804,-0.002820776,0.9810841,-0.0014686584,0.000667572,0.0005340576,-0.43130508,-0.009560122,9.797156,2,1683900722.0931072
-0.042326804,-0.002820776,0.9810841,-0.0014686584,0.000667572,-0.0005340576,-0.43130508,-0.009560122,9.797156,2,1683900722.0982416
-0.042326804,-0.002820776,0.9810841,-0.0014686584,0.000667572,-0.0005340576,-0.43123886,-0.009988373,9.797159,2,1683900722.1033401
-0.042326804,-0.002820776,0.9810841,-0.0014686584,0.000667572,-0.0005340576,-0.43134564,-0.0101142675,9.797154,2,1683900722.1238582
-0.042326804,-0.002820776,0.9810841,-0.0014686584,0.000667572,0.0005340576,-0.43134564,-0.0101142675,9.797154,2,1683900722.128996
-0.043297395,-0.0020928339,0.9798557,-0.0014686584,0.000667572,0.0005340576,-0.43134564,-0.0101142675,9.797154,2,1683900722.1341264
-0.043297395,-0.0020928339,0.9798557,-0.0014686584,-0.0004005432,0.0005340576,-0.43134564,-0.0101142675,9.797154,2,1683900722.1802275
-0.042326804,-0.0008795968,0.98009837,-0.0014686584,-0.0004005432,0.0005340576,-0.43134564,-0.0101142675,9.797154,2,1683900722.185367
-0.042326804,-0.0008795968,0.98009837,-0.0014686584,-0.0004005432,0.0005340576,-0.4312585,-0.010176107,9.797158,2,1683900722.1904955
-0.042326804,-0.0008795968,0.98009837,-0.0014686584,-0.0004005432,0.0005340576,-0.43111736,-0.010208651,9.797164,2,1683900722.2058873
-0.042326804,-0.0008795968,0.98009837,-0.0004005432,-0.0004005432,0.0005340576,-0.43111736,-0.010208651,9.797164,2,1683900722.2161076
-0.040613107,-0.0025781286,0.98254,-0.0004005432,-0.0004005432,0.0005340576,-0.43111736,-0.010208651,9.797164,2,1683900722.2263737
-0.040613107,-0.0025781286,0.98254,-0.0004005432,0.0017356873,-0.0016021729,-0.43111736,-0.010208651,9.797164,2,1683900722.2417471
-0.040127814,0.0008341004,0.9827826,-0.0004005432,0.0017356873,-0.0016021729,-0.43111736,-0.010208651,9.797164,2,1683900722.2468793
-0.040127814,0.0008341004,0.9827826,-0.0004005432,0.0017356873,-0.0016021729,-0.4312399,-0.010158067,9.797159,2,1683900722.2622638
-0.0445258,-0.0035638837,0.98522425,-0.0014686584,-0.0014686584,0.0005340576,-0.4312399,-0.010158067,9.797159,2,1683900722.2673817
-0.0445258,-0.0035638837,0.98522425,-0.0014686584,-0.0014686584,0.0005340576,-0.43129364,-0.0105430735,9.797156,2,1683900722.2878942
-0.0445258,-0.0035638837,0.98522425,-0.0014686584,-0.0014686584,0.0005340576,-0.42954445,-0.010927987,9.797233,2,1683900722.2930245
-0.040613107,-0.008204515,0.9810841,-0.0014686584,-0.0014686584,0.0005340576,-0.42954445,-0.010927987,9.797233,2,1683900722.3032455
-0.040613107,-0.008204515,0.9810841,-0.0014686584,-0.0014686584,0.0016021729,-0.42954445,-0.010927987,9.797233,2,1683900722.3339932
-0.040127814,-0.0013648917,0.98254,-0.0014686584,-0.0014686584,0.0016021729,-0.42954445,-0.010927987,9.797233,2,1683900722.339136
-0.040127814,-0.0013648917,0.98254,-0.0014686584,-0.0014686584,0.0016021729,-0.42894617,-0.0119117545,9.797257,2,1683900722.349404
-0.040127814,-0.0013648917,0.98254,-0.0014686584,-0.0014686584,0.0016021729,-0.42860505,-0.012138832,9.797272,2,1683900722.3699367
-0.03964252,-0.004291826,0.98009837,-0.0014686584,-0.0014686584,0.0016021729,-0.42860505,-0.012138832,9.797272,2,1683900722.3801982
-0.03964252,-0.004291826,0.98009837,0.000667572,-0.0014686584,0.0005340576,-0.42860505,-0.012138832,9.797272,2,1683900722.3852994
-0.03964252,-0.004291826,0.98009837,0.000667572,-0.0014686584,0.0005340576,-0.4279458,-0.012208463,9.7973,2,1683900722.405875
-0.03964252,-0.004291826,0.98009837,-0.0004005432,0.000667572,0.0005340576,-0.4279458,-0.012208463,9.7973,2,1683900722.411003
-0.037928823,-0.0011222442,0.98254,-0.0004005432,0.000667572,0.0005340576,-0.4279458,-0.012208463,9.7973,2,1683900722.41613
-0.037928823,-0.0011222442,0.98254,-0.0004005432,0.000667572,0.0005340576,-0.4283407,-0.012254405,9.797284,2,1683900722.4315476
-0.037928823,-0.0011222442,0.98254,0.0017356873,0.000667572,-0.0005340576,-0.4283407,-0.012254405,9.797284,2,1683900722.4469142
-0.04525374,-0.0038065312,0.98229736,0.0017356873,0.000667572,-0.0005340576,-0.4283407,-0.012254405,9.797284,2,1683900722.4520464
-0.04525374,-0.0038065312,0.98229736,0.0017356873,0.000667572,-0.0005340576,-0.42855725,-0.012316085,9.797275,2,1683900722.4776702
-0.04525374,-0.002335481,0.98449636,0.0017356873,0.000667572,-0.0005340576,-0.42855725,-0.012316085,9.797275,2,1683900722.482804
-0.04525374,-0.002335481,0.98449636,0.000667572,0.000667572,0.0005340576,-0.42855725,-0.012316085,9.797275,2,1683900722.4879308
-0.04428315,-0.000394302,0.98084146,0.000667572,0.000667572,0.0005340576,-0.42855725,-0.012316085,9.797275,2,1683900722.5032852
-0.04428315,-0.000394302,0.98084146,0.000667572,0.000667572,0.0005340576,-0.4287874,-0.012027092,9.797264,2,1683900722.5186946
-0.04428315,-0.000394302,0.98084146,-0.0025367737,-0.0004005432,0.0016021729,-0.4287874,-0.012027092,9.797264,2,1683900722.5238206
-0.04428315,-0.000394302,0.98084146,-0.0014686584,-0.0014686584,0.0005340576,-0.4287874,-0.012027092,9.797264,2,1683900722.5340765
-0.04769538,0.0022899848,0.98790854,-0.0014686584,-0.0014686584,0.0005340576,-0.4287874,-0.012027092,9.797264,2,1683900722.5391726
-0.04769538,0.0022899848,0.98790854,-0.0014686584,-0.0014686584,0.0005340576,-0.42908773,-0.011808048,9.797251,2,1683900722.5596924
-0.044768445,-0.0033212362,0.9810841,-0.0014686584,-0.0014686584,0.0005340576,-0.42908773,-0.011808048,9.797251,2,1683900722.5750914
-0.044768445,-0.0033212362,0.9810841,-0.0014686584,-0.0014686584,0.0005340576,-0.42908692,-0.013533239,9.79725,2,1683900722.5802236
-0.044768445,-0.0033212362,0.9810841,0.0017356873,0.0017356873,0.0005340576,-0.42908692,-0.013533239,9.79725,2,1683900722.5853589
-0.0445258,0.00180469,0.98304045,0.0017356873,0.0017356873,0.0005340576,-0.42908692,-0.013533239,9.79725,2,1683900722.6212466
-0.0445258,0.00180469,0.98304045,0.0017356873,0.0017356873,0.0005340576,-0.429717,-0.013223776,9.797222,2,1683900722.6263757
-0.0445258,0.00180469,0.98304045,0.0017356873,0.000667572,0.0005340576,-0.429717,-0.013223776,9.797222,2,1683900722.6315017
-0.0445258,0.00180469,0.98304045,0.0017356873,0.000667572,0.0005340576,-0.429997,-0.012682153,9.797211,2,1683900722.6366367
-0.0445258,0.0008341004,0.9837684,0.0017356873,0.000667572,0.0005340576,-0.429997,-0.012682153,9.797211,2,1683900722.6570866
-0.0445258,-0.00013648917,0.9827826,0.0017356873,0.000667572,0.0005340576,-0.429997,-0.012682153,9.797211,2,1683900722.6775165
-0.0445258,-0.00013648917,0.9827826,0.0017356873,0.000667572,0.0005340576,-0.43014517,-0.012506143,9.797204,2,1683900722.7031877
-0.0445258,-0.00013648917,0.9827826,0.0017356873,0.000667572,0.0005340576,-0.42995346,-0.012547414,9.797213,2,1683900722.7083762
-0.0445258,-0.00013648917,0.9827826,0.0017356873,-0.0004005432,0.0005340576,-0.42995346,-0.012547414,9.797213,2,1683900722.723765
-0.042326804,-0.005505063,0.9827826,0.0017356873,-0.0004005432,0.0005340576,-0.42995346,-0.012547414,9.797213,2,1683900722.7288983
-0.042569455,-0.003078589,0.9837684,0.0017356873,-0.0004005432,0.0005340576,-0.42995346,-0.012547414,9.797213,2,1683900722.7442567
-0.042569455,-0.003078589,0.9837684,0.0017356873,-0.0004005432,0.0005340576,-0.4301961,-0.0124776205,9.797202,2,1683900722.764733
-0.042569455,-0.003078589,0.9837684,0.0017356873,0.000667572,-0.0005340576,-0.4301961,-0.0124776205,9.797202,2,1683900722.7699065
-0.042569455,-0.003078589,0.9837684,0.0017356873,0.000667572,-0.0005340576,-0.43000928,-0.011881188,9.797211,2,1683900722.7904434
-0.04378269,0.0010767478,0.9810841,0.0017356873,0.000667572,-0.0005340576,-0.43000928,-0.011881188,9.797211,2,1683900722.7904503
-0.04305475,-0.0011222442,0.98009837,0.0017356873,0.000667572,-0.0005340576,-0.43000928,-0.011881188,9.797211,2,1683900722.8058474
-0.04305475,-0.0011222442,0.98009837,0.0017356873,0.000667572,-0.0005340576,-0.43001297,-0.011983334,9.797211,2,1683900722.810982
-0.04305475,-0.0011222442,0.98009837,0.000667572,0.000667572,0.0005340576,-0.43001297,-0.011983334,9.797211,2,1683900722.8315272
-0.04305475,-0.0011222442,0.98009837,0.000667572,0.000667572,0.0005340576,-0.43143317,-0.009980234,9.797151,2,1683900722.8366654
-0.04184151,0.0010767478,0.98304045,0.000667572,0.000667572,0.0005340576,-0.43143317,-0.009980234,9.797151,2,1683900722.8468974
-0.04184151,0.0010767478,0.98304045,0.000667572,0.000667572,0.0005340576,-0.43074527,-0.009522736,9.797181,2,1683900722.882709
-0.039885167,0.00180469,0.98352575,0.000667572,0.000667572,0.0005340576,-0.43074527,-0.009522736,9.797181,2,1683900722.90313
-0.039885167,0.00180469,0.98352575,0.000667572,0.000667572,0.0005340576,-0.4305355,-0.009481223,9.79719,2,1683900722.908258
-0.039885167,0.00180469,0.98352575,-0.0004005432,-0.0004005432,0.0005340576,-0.4305355,-0.009481223,9.79719,2,1683900722.9236085
-0.039885167,0.00180469,0.98352575,0.000667572,-0.0004005432,0.0016021729,-0.4305355,-0.009481223,9.79719,2,1683900722.9287367
-0.04305475,-0.0025781286,0.98254,0.000667572,-0.0004005432,0.0016021729,-0.4305355,-0.009481223,9.79719,2,1683900722.9338672
-0.04305475,-0.0025781286,0.98254,-0.0014686584,-0.0004005432,-0.0005340576,-0.4305355,-0.009481223,9.79719,2,1683900722.9389956
-0.04305475,-0.0025781286,0.98254,-0.0014686584,-0.0004005432,-0.0005340576,-0.4302714,-0.009324598,9.797201,2,1683900722.9492517
-0.04134105,0.00059145305,0.98254,-0.0014686584,-0.0004005432,-0.0005340576,-0.4302714,-0.009324598,9.797201,2,1683900722.954382
-0.04134105,0.00059145305,0.98254,-0.0004005432,-0.0004005432,0.0005340576,-0.4302714,-0.009324598,9.797201,2,1683900722.9697645
-0.042084157,-0.001607539,0.98181206,-0.0004005432,-0.0004005432,0.0005340576,-0.4302714,-0.009324598,9.797201,2,1683900722.980027
-0.042084157,-0.001607539,0.98181206,-0.0004005432,-0.0004005432,0.0005340576,-0.4301748,-0.009409266,9.797206,2,1683900723.0005074
-0.04402534,-0.0064908178,0.9793704,-0.0004005432,-0.0004005432,0.0005340576,-0.4301748,-0.009409266,9.797206,2,1683900723.0159009
-0.04402534,-0.0064908178,0.9793704,0.000667572,-0.0004005432,-0.0005340576,-0.4301748,-0.009409266,9.797206,2,1683900723.0210361
-0.04402534,-0.0064908178,0.9793704,0.000667572,-0.0004005432,-0.0005340576,-0.43024173,-0.009841993,9.797203,2,1683900723.0261672
-0.04402534,-0.0064908178,0.9793704,-0.0004005432,-0.0014686584,-0.0005340576,-0.43024173,-0.009841993,9.797203,2,1683900723.0569074
-0.04402534,-0.0064908178,0.9793704,-0.0004005432,-0.0014686584,-0.0005340576,-0.43065163,-0.010116611,9.797185,2,1683900723.0723073
-0.04402534,0.0013193953,0.98401105,-0.0004005432,-0.0014686584,-0.0005340576,-0.43065163,-0.010116611,9.797185,2,1683900723.0774393
-0.04402534,0.0013193953,0.98401105,0.000667572,-0.0004005432,0.0005340576,-0.43065163,-0.010116611,9.797185,2,1683900723.0876944
-0.04402534,0.0013193953,0.98401105,0.000667572,-0.0004005432,0.0005340576,-0.43098187,-0.010367669,9.79717,2,1683900723.0928237
-0.04525374,-0.0033212362,0.9810841,0.000667572,-0.0004005432,0.0005340576,-0.43098187,-0.010367669,9.79717,2,1683900723.0979462
-0.04525374,-0.0033212362,0.9810841,0.000667572,-0.0004005432,0.0005340576,-0.43248966,-0.008678824,9.797105,2,1683900723.1184802
-0.045011092,-0.001607539,0.9788851,0.000667572,-0.0004005432,0.0005340576,-0.43248966,-0.008678824,9.797105,2,1683900723.1338732
-0.045011092,-0.001607539,0.9788851,0.000667572,-0.0004005432,0.0005340576,-0.43196747,-0.009001486,9.797128,2,1683900723.1595259
-0.038656764,-0.0011222442,0.98084146,0.000667572,-0.0004005432,0.0005340576,-0.43196747,-0.009001486,9.797128,2,1683900723.164658
-0.038656764,-0.0011222442,0.98084146,0.000667572,0.000667572,0.0016021729,-0.43196747,-0.009001486,9.797128,2,1683900723.1697903
-0.038656764,-0.0011222442,0.98084146,0.000667572,0.000667572,0.0005340576,-0.43196747,-0.009001486,9.797128,2,1683900723.1800594
-0.042084157,-0.0018501864,0.9820547,0.000667572,0.000667572,0.0005340576,-0.43196747,-0.009001486,9.797128,2,1683900723.1851919
-0.042084157,-0.0018501864,0.9820547,0.000667572,0.000667572,0.0005340576,-0.4318997,-0.009049754,9.797131,2,1683900723.2057047
-0.042084157,-0.0018501864,0.9820547,0.0017356873,-0.0004005432,0.0005340576,-0.4318997,-0.009049754,9.797131,2,1683900723.2261984
-0.04305475,0.00327574,0.9827826,0.0017356873,-0.0004005432,0.0005340576,-0.4318997,-0.009049754,9.797131,2,1683900723.2312968
-0.04305475,0.00327574,0.9827826,0.0017356873,-0.0004005432,0.0005340576,-0.43185648,-0.00841119,9.7971325,2,1683900723.2364233
-0.04378269,0.0015620426,0.98181206,0.0017356873,-0.0004005432,0.0005340576,-0.43185648,-0.00841119,9.7971325,2,1683900723.246679
-0.03939987,-0.0008795968,0.9837684,0.0017356873,-0.0004005432,0.0005340576,-0.43185648,-0.00841119,9.7971325,2,1683900723.2569444
-0.03939987,-0.0008795968,0.9837684,0.000667572,0.0017356873,-0.0005340576,-0.43185648,-0.00841119,9.7971325,2,1683900723.2825491
-0.03939987,-0.0008795968,0.9837684,0.000667572,0.000667572,0.0005340576,-0.43185648,-0.00841119,9.7971325,2,1683900723.2927938
-0.03939987,-0.0008795968,0.9837684,0.000667572,0.000667572,0.0005340576,-0.43205792,-0.008025387,9.797125,2,1683900723.2979226
-0.043297395,-0.002820776,0.98132676,0.000667572,0.000667572,0.0005340576,-0.43205792,-0.008025387,9.797125,2,1683900723.3030543
-0.043297395,-0.002820776,0.98132676,-0.0004005432,0.000667572,-0.0005340576,-0.43205792,-0.008025387,9.797125,2,1683900723.3235219
-0.0445258,-0.0013648917,0.9837684,-0.0004005432,0.000667572,-0.0005340576,-0.43205792,-0.008025387,9.797125,2,1683900723.3338237
-0.0445258,-0.0013648917,0.9837684,-0.0004005432,0.000667572,-0.0005340576,-0.43218538,-0.008095113,9.797119,2,1683900723.3389232
-0.0445258,-0.0013648917,0.9837684,-0.0004005432,0.000667572,-0.0005340576,-0.43204153,-0.008586744,9.797125,2,1683900723.36965
-0.040855754,-0.0038065312,0.980341,-0.0004005432,0.000667572,-0.0005340576,-0.43204153,-0.008586744,9.797125,2,1683900723.3747873
-0.040855754,-0.0038065312,0.980341,0.0017356873,-0.0004005432,-0.0005340576,-0.43204153,-0.008586744,9.797125,2,1683900723.3850453
-0.040855754,-0.0038065312,0.980341,-0.031375885,-0.13671875,-0.0016021729,-0.43204153,-0.008586744,9.797125,2,1683900723.3901763
-0.035487182,-0.004534473,1.0284307,-0.031375885,-0.13671875,-0.0016021729,-0.43204153,-0.008586744,9.797125,2,1683900723.4004307
-0.035487182,-0.004534473,1.0284307,-0.031375885,-0.13671875,-0.0016021729,-0.3573379,-0.025556305,9.800104,2,1683900723.4106877
-0.035487182,-0.004534473,1.0284307,-0.017490387,-0.07703781,-0.0016021729,-0.3573379,-0.025556305,9.800104,2,1683900723.4209476
-0.034031298,-0.0033212362,0.9708322,-0.017490387,-0.07703781,-0.0016021729,-0.3573379,-0.025556305,9.800104,2,1683900723.4311872
