acc_x,acc_y,acc_z,gyr_x,gyr_y,gyr_z,grav_x,grav_y,grav_z,label,timestamp
-0.0069516255,0.027440626,0.9998144,-0.0022907446,-0.00030543262,0.0009162979,-0.08687678,0.25849167,9.80621,2,1683969866.250429
-0.009451771,0.025977125,1.0003022,-0.0022907446,-0.00030543262,0.0009162979,-0.08687678,0.25849167,9.80621,2,1683969866.264602
-0.008415125,0.025001459,0.9998144,0.00015271631,0.0009162979,0.0009162979,-0.08678449,0.25829497,9.806215,2,1683969866.2701926
-0.0074394583,0.02646496,0.9984119,0.00015271631,0.0009162979,0.0009162979,-0.08678449,0.25829497,9.806215,2,1683969866.2754614
-0.0074394583,0.02646496,0.9984119,0.00015271631,0.0009162979,0.0009162979,-0.08681725,0.25826892,9.806216,2,1683969866.2807589
-0.007927292,0.025001459,0.9979241,0.00015271631,0.0009162979,0.0009162979,-0.08681725,0.25826892,9.806216,2,1683969866.3013566
-0.007927292,0.025001459,0.9979241,-0.0022907446,0.0021380284,-0.00030543262,-0.08681725,0.25826892,9.806216,2,1683969866.3116207
-0.007927292,0.025001459,0.9979241,-0.0022907446,0.0021380284,-0.00030543262,-0.086797185,0.25814688,9.806219,2,1683969866.3218718
-0.009878625,0.023050126,0.9964606,-0.0022907446,0.0021380284,-0.00030543262,-0.086797185,0.25814688,9.806219,2,1683969866.3270009
-0.009878625,0.023050126,0.9964606,-0.0022907446,0.0021380284,-0.00030543262,-0.086867675,0.25802734,9.806222,2,1683969866.3321483
-0.009878625,0.023050126,0.9964606,0.00015271631,0.0021380284,-0.0015271631,-0.086867675,0.25802734,9.806222,2,1683969866.347529
-0.009878625,0.023050126,0.9964606,-0.0010690142,0.0033597588,-0.00030543262,-0.086867675,0.25802734,9.806222,2,1683969866.3834164
-0.007927292,0.025977125,0.9984119,-0.0010690142,0.0033597588,-0.00030543262,-0.086867675,0.25802734,9.806222,2,1683969866.3885489
-0.007927292,0.025977125,0.9984119,-0.0010690142,0.0033597588,-0.00030543262,-0.086992376,0.25807667,9.80622,2,1683969866.3936808
-0.007927292,0.025977125,0.9984119,-0.0010690142,0.0033597588,-0.00030543262,-0.08725837,0.25801855,9.806218,2,1683969866.4192894
-0.007927292,0.025977125,0.9984119,-0.0010690142,-0.0016798794,-0.0027488936,-0.08725837,0.25801855,9.806218,2,1683969866.4244242
-0.009390792,0.025489293,0.998351,-0.0010690142,-0.0016798794,-0.0027488936,-0.08725837,0.25801855,9.806218,2,1683969866.4295523
-0.007927292,0.025001459,0.9984119,-0.0010690142,-0.0016798794,-0.0027488936,-0.08725837,0.25801855,9.806218,2,1683969866.4346824
-0.007927292,0.025001459,0.9984119,-0.0010690142,-0.0016798794,-0.0027488936,-0.087405205,0.2579601,9.806218,2,1683969866.4603155
-0.007927292,0.025001459,0.9984119,0.00015271631,-0.00030543262,0.0021380284,-0.087405205,0.2579601,9.806218,2,1683969866.4654455
-0.010366458,0.025977125,0.9988388,0.00015271631,-0.00030543262,0.0021380284,-0.087405205,0.2579601,9.806218,2,1683969866.480831
-0.010366458,0.025977125,0.9988388,0.00015271631,-0.00030543262,0.0021380284,-0.08736616,0.25801098,9.806218,2,1683969866.4910667
-0.010366458,0.025977125,0.9988388,0.0025961774,0.0009162979,0.0009162979,-0.08736616,0.25801098,9.806218,2,1683969866.5013282
-0.008902958,0.027440626,0.998351,0.0025961774,0.0009162979,0.0009162979,-0.08736616,0.25801098,9.806218,2,1683969866.50646
-0.008902958,0.027440626,0.998351,0.0025961774,0.0009162979,0.0009162979,-0.08729317,0.25818413,9.806213,2,1683969866.5167122
-0.008902958,0.027440626,0.998351,0.0013744468,0.00045814895,-0.00030543262,-0.08729317,0.25818413,9.806213,2,1683969866.526976
-0.008902958,0.027440626,0.998351,0.0013744468,0.00045814895,-0.00030543262,-0.08731195,0.2582266,9.806212,2,1683969866.5526102
-0.008902958,0.027440626,0.998351,0.00015271631,-0.0032070426,-0.0015271631,-0.08731195,0.2582266,9.806212,2,1683969866.5628738
-0.0074394583,0.02695279,1.0007901,0.00015271631,-0.0032070426,-0.0015271631,-0.08731195,0.2582266,9.806212,2,1683969866.5680423
-0.0074394583,0.02695279,1.0007901,-0.0010690142,-0.00076358154,-0.0015271631,-0.08731195,0.2582266,9.806212,2,1683969866.5731711
-0.0074394583,0.02695279,1.0007901,-0.0010690142,-0.00076358154,-0.0015271631,-0.08729062,0.2582427,9.806212,2,1683969866.5783014
-0.0074394583,0.02695279,0.9998144,-0.0010690142,-0.00076358154,-0.0015271631,-0.08729062,0.2582427,9.806212,2,1683969866.5834205
-0.010366458,0.02695279,0.9993266,-0.0010690142,-0.00076358154,-0.0015271631,-0.08729062,0.2582427,9.806212,2,1683969866.5936828
-0.010366458,0.02695279,0.9993266,-0.0010690142,0.00290161,0.0009162979,-0.08729062,0.2582427,9.806212,2,1683969866.6039374
-0.010366458,0.02695279,0.9993266,-0.0010690142,0.00290161,0.0009162979,-0.08723056,0.25816023,9.806215,2,1683969866.609069
-0.008415125,0.02695279,0.9993266,-0.0010690142,0.00290161,0.0009162979,-0.08723056,0.25816023,9.806215,2,1683969866.6346757
-0.008415125,0.02695279,0.9993266,-0.0010690142,0.00290161,0.0009162979,-0.08729592,0.2582467,9.806212,2,1683969866.6449313
-0.008415125,0.02695279,0.9993266,-0.0010690142,0.0016798794,-0.00030543262,-0.08729592,0.2582467,9.806212,2,1683969866.6551976
-0.008415125,0.02695279,0.9993266,0.00015271631,-0.0032070426,0.0021380284,-0.08729592,0.2582467,9.806212,2,1683969866.6654587
-0.008415125,0.02695279,0.9993266,0.00015271631,-0.0032070426,0.0021380284,-0.08724578,0.2582418,9.806212,2,1683969866.6705842
-0.008902958,0.025977125,0.9973753,0.00015271631,-0.0032070426,0.0021380284,-0.08724578,0.2582418,9.806212,2,1683969866.6757183
-0.009390792,0.02646496,0.9978631,0.00015271631,-0.0032070426,0.0021380284,-0.08724578,0.2582418,9.806212,2,1683969866.706548
-0.009390792,0.02646496,0.9978631,0.00015271631,-0.0032070426,0.0021380284,-0.08706721,0.25827357,9.806213,2,1683969866.7116563
-0.009390792,0.02646496,0.9978631,-0.0035124752,-0.0033597588,-0.00030543262,-0.08706721,0.25827357,9.806213,2,1683969866.7270403
-0.009390792,0.02646496,0.9978631,-0.0035124752,-0.0033597588,-0.00030543262,-0.08708271,0.25807747,9.806218,2,1683969866.7424233
-0.009390792,0.02646496,0.9978631,-0.0035124752,0.00045814895,0.0009162979,-0.08708271,0.25807747,9.806218,2,1683969866.7475524
-0.009390792,0.025489293,0.9968874,-0.0035124752,0.00045814895,0.0009162979,-0.08708271,0.25807747,9.806218,2,1683969866.7526784
-0.009390792,0.025489293,0.9968874,0.00015271631,0.00045814895,0.0009162979,-0.08708271,0.25807747,9.806218,2,1683969866.7732093
-0.009390792,0.025489293,0.9968874,0.00015271631,0.00045814895,0.0009162979,-0.08692451,0.25785083,9.806226,2,1683969866.778333
-0.0069516255,0.024513626,0.9984119,0.00015271631,0.00045814895,0.0009162979,-0.08692451,0.25785083,9.806226,2,1683969866.7885926
-0.009878625,0.024513626,0.9968874,0.00015271631,0.00045814895,0.0009162979,-0.08692451,0.25785083,9.806226,2,1683969866.8091094
-0.009878625,0.024513626,0.9968874,0.0013744468,0.0016798794,0.0021380284,-0.08692451,0.25785083,9.806226,2,1683969866.8193657
-0.009878625,0.024513626,0.9968874,0.0013744468,0.0016798794,0.0021380284,-0.08718754,0.2579111,9.806222,2,1683969866.8244972
-0.009390792,0.024513626,0.9993266,0.0013744468,0.0016798794,0.0021380284,-0.08718754,0.2579111,9.806222,2,1683969866.8450172
-0.009390792,0.024513626,0.9993266,0.0013744468,0.0016798794,0.0021380284,-0.08708741,0.25782284,9.806226,2,1683969866.85526
-0.009390792,0.024513626,0.9993266,-0.0022907446,0.0016798794,-0.0015271631,-0.08708741,0.25782284,9.806226,2,1683969866.8603914
-0.010854292,0.02695279,0.998351,-0.0022907446,0.0016798794,-0.0015271631,-0.08708741,0.25782284,9.806226,2,1683969866.8757808
-0.010854292,0.02695279,0.998351,-0.0022907446,0.0016798794,-0.0015271631,-0.08710596,0.25770625,9.806228,2,1683969866.8860412
-0.010854292,0.02695279,0.998351,0.00015271631,0.00045814895,-0.00030543262,-0.08710596,0.25770625,9.806228,2,1683969866.8962586
-0.010854292,0.02695279,0.998351,0.00015271631,-0.00076358154,-0.0015271631,-0.08710596,0.25770625,9.806228,2,1683969866.9270287
-0.0074394583,0.025489293,0.9993266,0.00015271631,-0.00076358154,-0.0015271631,-0.08710596,0.25770625,9.806228,2,1683969866.9321547
-0.0074394583,0.025489293,0.9993266,0.00015271631,-0.00076358154,-0.0015271631,-0.08713226,0.25772032,9.806228,2,1683969866.9372861
-0.0074394583,0.02646496,0.9988388,0.00015271631,-0.00076358154,-0.0015271631,-0.08713226,0.25772032,9.806228,2,1683969866.9577994
-0.0074394583,0.02646496,0.9988388,0.00015271631,-0.00076358154,-0.0015271631,-0.087051265,0.2577244,9.806228,2,1683969866.96293
-0.0074394583,0.02646496,0.9988388,0.00015271631,0.0041233404,0.0021380284,-0.087051265,0.2577244,9.806228,2,1683969866.973195
-0.0074394583,0.02695279,0.9988388,0.00015271631,0.0041233404,0.0021380284,-0.087051265,0.2577244,9.806228,2,1683969866.9937046
-0.0074394583,0.02695279,0.9988388,0.00015271631,0.0041233404,0.0021380284,-0.08707201,0.25775447,9.806228,2,1683969867.0039642
-0.0074394583,0.02695279,0.9988388,-0.0010690142,0.00045814895,0.0009162979,-0.08707201,0.25775447,9.806228,2,1683969867.0090945
-0.00798827,0.028904125,0.9998144,-0.0010690142,0.00045814895,0.0009162979,-0.08707201,0.25775447,9.806228,2,1683969867.0142262
-0.00798827,0.028904125,0.9998144,-0.0010690142,0.00045814895,0.0009162979,-0.087078,0.25773576,9.806228,2,1683969867.0295355
-0.00798827,0.028904125,0.9998144,0.00015271631,0.0016798794,0.0009162979,-0.087078,0.25773576,9.806228,2,1683969867.0397933
-0.007927292,0.02695279,0.9988388,0.00015271631,0.0016798794,0.0009162979,-0.087078,0.25773576,9.806228,2,1683969867.055171
-0.007927292,0.02695279,0.9988388,-0.0010690142,0.00290161,-0.00030543262,-0.087078,0.25773576,9.806228,2,1683969867.0603032
-0.007927292,0.02695279,0.9988388,-0.0010690142,0.00290161,-0.00030543262,-0.08700119,0.25769955,9.80623,2,1683969867.0705638
-0.007927292,0.02695279,0.9988388,0.00015271631,0.00045814895,-0.0015271631,-0.08700119,0.25769955,9.80623,2,1683969867.1013517
-0.007927292,0.02695279,0.9988388,0.00015271631,0.00045814895,-0.0015271631,-0.08711279,0.2576519,9.80623,2,1683969867.1064882
-0.008902958,0.025489293,0.9978631,0.00015271631,0.00045814895,-0.0015271631,-0.08711279,0.2576519,9.80623,2,1683969867.1116166
-0.008415125,0.02646496,0.9988388,0.00015271631,0.00045814895,-0.0015271631,-0.08711279,0.2576519,9.80623,2,1683969867.132141
-0.008415125,0.02646496,0.9988388,0.00015271631,0.00045814895,-0.0015271631,-0.087146886,0.2577227,9.806228,2,1683969867.1372766
-0.008415125,0.02646496,0.9988388,0.00015271631,-0.00076358154,0.0033597588,-0.087146886,0.2577227,9.806228,2,1683969867.1423998
-0.008415125,0.02646496,0.9988388,0.00015271631,-0.0032070426,0.0009162979,-0.087146886,0.2577227,9.806228,2,1683969867.157764
-0.008902958,0.025001459,0.9998144,0.00015271631,-0.0032070426,0.0009162979,-0.087146886,0.2577227,9.806228,2,1683969867.168023
-0.008902958,0.025001459,0.9998144,0.00015271631,-0.0032070426,0.0009162979,-0.087051325,0.25787985,9.806224,2,1683969867.1834078
-0.008902958,0.02792846,0.9988388,0.00015271631,-0.0032070426,0.0009162979,-0.087051325,0.25787985,9.806224,2,1683969867.198782
-0.008902958,0.02792846,0.9988388,0.00015271631,-0.0032070426,0.0009162979,-0.087010704,0.2579995,9.806221,2,1683969867.2039196
-0.008902958,0.02792846,0.9988388,0.0013744468,-0.001985312,0.0021380284,-0.087010704,0.2579995,9.806221,2,1683969867.21929
-0.008902958,0.02792846,0.9988388,0.0013744468,-0.001985312,0.0021380284,-0.08699532,0.25812864,9.806218,2,1683969867.2449317
-0.008902958,0.02792846,0.9988388,0.00015271631,0.00045814895,-0.0015271631,-0.08699532,0.25812864,9.806218,2,1683969867.2552009
-0.008415125,0.025489293,0.9988388,0.00015271631,0.00045814895,-0.0015271631,-0.08699532,0.25812864,9.806218,2,1683969867.260334
-0.008415125,0.025489293,0.9988388,0.00015271631,0.00045814895,0.0009162979,-0.08699532,0.25812864,9.806218,2,1683969867.280851
-0.008415125,0.025489293,0.9988388,0.00015271631,0.00045814895,0.0009162979,-0.08692631,0.25824502,9.806215,2,1683969867.2911146
-0.009390792,0.027440626,0.998351,0.00015271631,0.00045814895,0.0009162979,-0.08692631,0.25824502,9.806215,2,1683969867.2962468
-0.0064637917,0.02646496,0.9984119,0.00015271631,0.00045814895,0.0009162979,-0.08692631,0.25824502,9.806215,2,1683969867.3116305
-0.0064637917,0.02646496,0.9984119,0.00015271631,-0.0032070426,0.0021380284,-0.08692631,0.25824502,9.806215,2,1683969867.3167593
-0.0064637917,0.02646496,0.9984119,0.00015271631,-0.0032070426,0.0021380284,-0.087049976,0.25819343,9.806216,2,1683969867.321897
-0.009390792,0.024025792,0.9988388,0.00015271631,-0.0032070426,0.0021380284,-0.087049976,0.25819343,9.806216,2,1683969867.3527334
-0.009390792,0.024025792,0.9988388,0.00015271631,-0.00076358154,0.0009162979,-0.087049976,0.25819343,9.806216,2,1683969867.357864
-0.009390792,0.024025792,0.9988388,0.00015271631,-0.00076358154,0.0009162979,-0.087067366,0.2581997,9.806215,2,1683969867.368124
-0.009390792,0.024025792,0.9988388,0.00015271631,-0.00076358154,0.0009162979,-0.087109335,0.2582093,9.806215,2,1683969867.3937654
-0.008902958,0.027440626,0.9969484,0.00015271631,-0.00076358154,0.0009162979,-0.087109335,0.2582093,9.806215,2,1683969867.3988974
-0.008902958,0.027440626,0.9969484,0.00015271631,-0.004428773,-0.00030543262,-0.087109335,0.2582093,9.806215,2,1683969867.404031
-0.008902958,0.027440626,0.9969484,-0.0035124752,-0.0009162979,-0.00030543262,-0.087109335,0.2582093,9.806215,2,1683969867.4296322
-0.0074394583,0.02646496,0.9993266,-0.0035124752,-0.0009162979,-0.00030543262,-0.087109335,0.2582093,9.806215,2,1683969867.4347625
-0.0074394583,0.02646496,0.9993266,-0.0035124752,-0.0009162979,-0.00030543262,-0.08709708,0.2583382,9.806211,2,1683969867.4398954
-0.008415125,0.027440626,0.9988388,-0.0035124752,-0.0009162979,-0.00030543262,-0.08709708,0.2583382,9.806211,2,1683969867.460401
-0.008415125,0.027440626,0.9988388,-0.0022907446,0.00045814895,-0.00030543262,-0.08709708,0.2583382,9.806211,2,1683969867.4655294
-0.008415125,0.027440626,0.9988388,-0.0022907446,0.00045814895,-0.00030543262,-0.0869512,0.25838733,9.806211,2,1683969867.4757872
-0.008963938,0.02646496,1.0007901,-0.0022907446,0.00045814895,-0.00030543262,-0.0869512,0.25838733,9.806211,2,1683969867.480917
-0.008963938,0.02646496,1.0007901,-0.0022907446,0.00045814895,-0.00030543262,-0.08691714,0.25833553,9.806213,2,1683969867.506525
-0.008963938,0.02646496,1.0007901,0.00015271631,0.00045814895,-0.0015271631,-0.08691714,0.25833553,9.806213,2,1683969867.5116549
-0.007927292,0.025977125,0.9979241,0.00015271631,0.00045814895,-0.0015271631,-0.08691714,0.25833553,9.806213,2,1683969867.5270324
-0.007927292,0.025977125,0.9979241,0.0013744468,0.00045814895,0.0009162979,-0.08691714,0.25833553,9.806213,2,1683969867.5321233
-0.007927292,0.025977125,0.9979241,0.0013744468,0.00045814895,0.0009162979,-0.08694494,0.25836182,9.806212,2,1683969867.5423784
-0.009939604,0.027440626,0.9998144,0.0013744468,0.00045814895,0.0009162979,-0.08694494,0.25836182,9.806212,2,1683969867.562895
-0.009939604,0.027440626,0.9998144,0.0013744468,0.00045814895,0.0009162979,-0.08696363,0.2584496,9.80621,2,1683969867.567989
-0.009939604,0.027440626,0.9998144,0.0013744468,-0.00076358154,-0.00030543262,-0.08696363,0.2584496,9.80621,2,1683969867.583328
-0.007927292,0.027440626,0.9984119,0.0013744468,-0.00076358154,-0.00030543262,-0.08696363,0.2584496,9.80621,2,1683969867.5987005
-0.007927292,0.027440626,0.9984119,-0.0022907446,-0.00076358154,0.0009162979,-0.08696363,0.2584496,9.80621,2,1683969867.6037905
-0.007927292,0.027440626,0.9984119,-0.0022907446,-0.00076358154,0.0009162979,-0.08684631,0.25853908,9.806209,2,1683969867.608918
-0.008963938,0.025489293,1.0003022,-0.0022907446,-0.00076358154,0.0009162979,-0.08684631,0.25853908,9.806209,2,1683969867.634567
-0.008963938,0.025489293,1.0003022,-0.0010690142,0.00045814895,0.0009162979,-0.08684631,0.25853908,9.806209,2,1683969867.6396983
-0.008963938,0.025489293,1.0003022,-0.0010690142,0.00045814895,0.0009162979,-0.086770214,0.25848004,9.8062105,2,1683969867.6448278
-0.008963938,0.025489293,1.0003022,-0.0010690142,-0.00076358154,-0.0015271631,-0.086770214,0.25848004,9.8062105,2,1683969867.6653376
-0.008963938,0.025489293,1.0003022,-0.0010690142,-0.00076358154,-0.0015271631,-0.08654774,0.25893322,9.8062,2,1683969867.6755998
-0.007927292,0.02695279,0.998351,-0.0010690142,-0.00076358154,-0.0015271631,-0.08654774,0.25893322,9.8062,2,1683969867.6858585
-0.007927292,0.02695279,0.998351,-0.0010690142,-0.00076358154,-0.0015271631,-0.08650175,0.25893354,9.806202,2,1683969867.69607
-0.007927292,0.02695279,0.998351,0.0013744468,-0.0032070426,0.0009162979,-0.08650175,0.25893354,9.806202,2,1683969867.7063746
-0.006524771,0.025977125,1.0007901,0.0013744468,-0.0032070426,0.0009162979,-0.08650175,0.25893354,9.806202,2,1683969867.7115216
-0.010915271,0.025977125,1.0012779,0.0013744468,-0.0032070426,0.0009162979,-0.08650175,0.25893354,9.806202,2,1683969867.7372112
-0.010915271,0.025977125,1.0012779,-0.0022907446,0.00045814895,0.0009162979,-0.08650175,0.25893354,9.806202,2,1683969867.742343
-0.010915271,0.025977125,1.0012779,-0.0022907446,0.00045814895,0.0009162979,-0.08647212,0.2588995,9.806203,2,1683969867.74747
-0.010915271,0.025977125,1.0012779,0.00015271631,-0.00580322,-0.0015271631,-0.08647212,0.2588995,9.806203,2,1683969867.757729
-0.010915271,0.025977125,1.0012779,0.00015271631,-0.00580322,-0.0015271631,-0.08652309,0.2587764,9.806205,2,1683969867.773122
-0.008902958,0.025489293,0.9978631,0.00015271631,-0.00580322,-0.0015271631,-0.08652309,0.2587764,9.806205,2,1683969867.7782564
-0.008902958,0.025489293,0.9978631,-0.0010690142,0.00045814895,-0.00030543262,-0.08652309,0.2587764,9.806205,2,1683969867.793604
-0.009390792,0.02695279,0.9978631,-0.0010690142,0.00045814895,-0.00030543262,-0.08652309,0.2587764,9.806205,2,1683969867.7987285
-0.009390792,0.02695279,0.9978631,-0.0010690142,0.00045814895,-0.00030543262,-0.08633968,0.2588027,9.806206,2,1683969867.8089912
-0.009390792,0.02695279,0.9978631,-0.0010690142,0.00045814895,-0.00030543262,-0.08640546,0.25875068,9.806207,2,1683969867.8243358
-0.009939604,0.02646496,1.0007901,-0.0010690142,0.00045814895,-0.00030543262,-0.08640546,0.25875068,9.806207,2,1683969867.82947
-0.009939604,0.02646496,1.0007901,-0.0022907446,-0.001985312,0.0021380284,-0.08640546,0.25875068,9.806207,2,1683969867.8551204
-0.010366458,0.025977125,0.998351,-0.0022907446,-0.001985312,0.0021380284,-0.08640546,0.25875068,9.806207,2,1683969867.8756418
-0.010366458,0.025977125,0.998351,-0.0022907446,-0.001985312,0.0021380284,-0.08638166,0.25871298,9.806208,2,1683969867.8807724
-0.010366458,0.025977125,0.998351,-0.0022907446,-0.0009162979,-0.0015271631,-0.08638166,0.25871298,9.806208,2,1683969867.885907
-0.010366458,0.025977125,0.998351,0.0013744468,0.00045814895,-0.0015271631,-0.08638166,0.25871298,9.806208,2,1683969867.9115505
-0.008415125,0.025001459,0.9979241,0.0013744468,0.00045814895,-0.0015271631,-0.08638166,0.25871298,9.806208,2,1683969867.9166844
-0.009390792,0.02695279,0.998351,0.0013744468,0.00045814895,-0.0015271631,-0.08638166,0.25871298,9.806208,2,1683969867.9218168
-0.009390792,0.02695279,0.998351,0.0013744468,-0.00076358154,-0.0015271631,-0.08638166,0.25871298,9.806208,2,1683969867.9371965
-0.009390792,0.027440626,0.9988388,0.0013744468,-0.00076358154,-0.0015271631,-0.08638166,0.25871298,9.806208,2,1683969867.9423287
-0.009390792,0.027440626,0.9988388,0.0013744468,-0.00076358154,-0.0015271631,-0.086266145,0.2588736,9.806205,2,1683969867.9577224
-0.009390792,0.027440626,0.9988388,0.0013744468,-0.00076358154,-0.0015271631,-0.08598024,0.25886428,9.806208,2,1683969867.978241
-0.009390792,0.027440626,0.9988388,-0.0010690142,-0.00076358154,0.004581489,-0.08598024,0.25886428,9.806208,2,1683969867.9884663
-0.008476105,0.025977125,1.0003022,-0.0010690142,-0.00076358154,0.004581489,-0.08598024,0.25886428,9.806208,2,1683969867.9935946
-0.008476105,0.025977125,1.0003022,-0.0010690142,-0.00076358154,0.004581489,-0.08587322,0.25884452,9.806209,2,1683969868.0038464
-0.008902958,0.025001459,0.9969484,-0.0010690142,-0.00076358154,0.004581489,-0.08587322,0.25884452,9.806209,2,1683969868.0191972
-0.008902958,0.025001459,0.9969484,0.0013744468,-0.001985312,0.0021380284,-0.08587322,0.25884452,9.806209,2,1683969868.029449
-0.008902958,0.025001459,0.9969484,0.0013744468,-0.001985312,0.0021380284,-0.085694194,0.2588228,9.806211,2,1683969868.0499713
-0.008902958,0.025001459,0.9969484,0.0013744468,0.00045814895,-0.00030543262,-0.085694194,0.2588228,9.806211,2,1683969868.0551171
-0.007927292,0.025489293,0.99938756,0.0013744468,0.00045814895,-0.00030543262,-0.085694194,0.2588228,9.806211,2,1683969868.0602496
-0.008415125,0.025977125,0.9984119,0.0013744468,0.00045814895,-0.00030543262,-0.085694194,0.2588228,9.806211,2,1683969868.0858693
-0.008415125,0.025977125,0.9984119,0.0013744468,0.00045814895,-0.00030543262,-0.085736535,0.25893554,9.806208,2,1683969868.1012697
-0.008415125,0.025977125,0.9984119,0.0013744468,-0.00076358154,-0.0015271631,-0.085736535,0.25893554,9.806208,2,1683969868.1115274
-0.0074394583,0.02695279,0.9988997,0.0013744468,-0.00076358154,-0.0015271631,-0.085736535,0.25893554,9.806208,2,1683969868.1166546
-0.0074394583,0.02695279,0.9988997,0.0013744468,-0.00076358154,-0.0015271631,-0.08560464,0.25896695,9.806208,2,1683969868.1320376
-0.0074394583,0.02695279,0.9988997,0.0013744468,-0.00076358154,0.0009162979,-0.08560464,0.25896695,9.806208,2,1683969868.1576853
-0.008415125,0.025977125,0.9984119,0.0013744468,-0.00076358154,0.0009162979,-0.08560464,0.25896695,9.806208,2,1683969868.1628108
-0.008415125,0.025977125,0.9984119,0.0013744468,-0.00076358154,0.0009162979,-0.08550429,0.2590422,9.806207,2,1683969868.1679435
-0.008963938,0.02695279,1.0007901,0.0013744468,-0.00076358154,0.0009162979,-0.08550429,0.2590422,9.806207,2,1683969868.1832955
-0.008963938,0.02695279,1.0007901,0.0013744468,-0.00076358154,0.0009162979,-0.085420124,0.25910613,9.806206,2,1683969868.1884284
-0.008963938,0.02695279,1.0007901,0.0013744468,-0.00076358154,0.0009162979,-0.08534443,0.25936916,9.8062,2,1683969868.1986928
-0.007927292,0.025977125,0.9959728,0.0013744468,-0.00076358154,0.0009162979,-0.08534443,0.25936916,9.8062,2,1683969868.2294018
-0.007927292,0.025977125,0.9959728,-0.0010690142,-0.0032070426,0.0009162979,-0.08534443,0.25936916,9.8062,2,1683969868.2345226
-0.007927292,0.025977125,0.9959728,-0.0010690142,-0.0032070426,0.0009162979,-0.08542114,0.25933614,9.8062,2,1683969868.2396224
-0.007927292,0.025977125,0.9959728,-0.0010690142,-0.0032070426,0.0009162979,-0.08527059,0.25940952,9.8062,2,1683969868.270408
-0.008415125,0.025977125,0.9998144,-0.0010690142,-0.0032070426,0.0009162979,-0.08527059,0.25940952,9.8062,2,1683969868.2755399
-0.008415125,0.025977125,0.9998144,0.00015271631,-0.00076358154,-0.0015271631,-0.08527059,0.25940952,9.8062,2,1683969868.2806315
-0.008415125,0.025977125,0.9998144,-0.0010690142,0.00045814895,0.0009162979,-0.08527059,0.25940952,9.8062,2,1683969868.2908933
-0.009451771,0.025001459,1.0007901,-0.0010690142,0.00045814895,0.0009162979,-0.08527059,0.25940952,9.8062,2,1683969868.2960186
-0.009451771,0.025001459,1.0007901,-0.0010690142,0.00045814895,0.0009162979,-0.085221164,0.25944048,9.806199,2,1683969868.3011425
-0.009451771,0.025001459,1.0007901,0.00015271631,-0.001985312,-0.00030543262,-0.085221164,0.25944048,9.806199,2,1683969868.3318772
-0.009451771,0.025001459,1.0007901,0.00015271631,-0.001985312,-0.00030543262,-0.08533224,0.2594999,9.806196,2,1683969868.3370037
-0.009390792,0.025489293,0.9988388,0.00015271631,-0.001985312,-0.00030543262,-0.08533224,0.2594999,9.806196,2,1683969868.3472266
-0.009390792,0.025489293,0.9988388,0.00015271631,-0.001985312,-0.00030543262,-0.08533259,0.25949392,9.806196,2,1683969868.3780036
-0.008415125,0.02646496,0.9978631,0.00015271631,-0.001985312,-0.00030543262,-0.08533259,0.25949392,9.806196,2,1683969868.38314
-0.008415125,0.02646496,0.9978631,-0.0022907446,-0.0033597588,-0.0015271631,-0.08533259,0.25949392,9.806196,2,1683969868.3882742
-0.008415125,0.02646496,0.9978631,-0.0022907446,0.00045814895,-0.0015271631,-0.08533259,0.25949392,9.806196,2,1683969868.4036632
-0.008415125,0.02646496,0.9978631,-0.0022907446,0.00045814895,-0.0015271631,-0.08524371,0.2594695,9.806198,2,1683969868.4139118
-0.012378771,0.02695279,0.9993266,-0.0022907446,0.00045814895,-0.0015271631,-0.08524371,0.2594695,9.806198,2,1683969868.424136
-0.007927292,0.025489293,0.9979241,-0.0022907446,0.00045814895,-0.0015271631,-0.08524371,0.2594695,9.806198,2,1683969868.4445825
-0.007927292,0.025489293,0.9979241,0.0013744468,-0.00076358154,-0.0015271631,-0.08524371,0.2594695,9.806198,2,1683969868.449673
-0.007927292,0.025489293,0.9979241,0.0013744468,-0.00076358154,-0.0015271631,-0.08515862,0.2595572,9.806197,2,1683969868.4650624
-0.007927292,0.025489293,0.9979241,0.0013744468,-0.00076358154,0.0033597588,-0.08515862,0.2595572,9.806197,2,1683969868.4702008
-0.009390792,0.025977125,0.9993266,0.0013744468,-0.00076358154,0.0033597588,-0.08515862,0.2595572,9.806197,2,1683969868.480419
-0.009390792,0.025977125,0.9993266,0.0013744468,-0.00076358154,0.0033597588,-0.08387994,0.26026765,9.806189,2,1683969868.5008917
-0.009390792,0.025977125,0.9993266,0.00015271631,-0.00076358154,0.0009162979,-0.08387994,0.26026765,9.806189,2,1683969868.5059845
-0.009390792,0.025977125,0.9993266,0.00015271631,-0.00076358154,0.0009162979,-0.083908744,0.26025045,9.80619,2,1683969868.5264943
-0.010366458,0.025489293,0.9954849,0.00015271631,-0.00076358154,0.0009162979,-0.083908744,0.26025045,9.80619,2,1683969868.5367465
-0.010366458,0.025489293,0.9954849,0.0025961774,0.0016798794,-0.0015271631,-0.083908744,0.26025045,9.80619,2,1683969868.5418744
-0.010366458,0.025489293,0.9954849,0.0025961774,0.0016798794,-0.0015271631,-0.08409992,0.26031888,9.806185,2,1683969868.5675144
-0.008415125,0.025489293,0.9978631,0.0025961774,0.0016798794,-0.0015271631,-0.08409992,0.26031888,9.806185,2,1683969868.5726457
-0.008415125,0.025489293,0.9978631,0.00015271631,-0.00076358154,-0.00030543262,-0.08409992,0.26031888,9.806185,2,1683969868.5777733
-0.008476105,0.025977125,1.0003022,0.00015271631,-0.00076358154,-0.00030543262,-0.08409992,0.26031888,9.806185,2,1683969868.5931633
-0.008476105,0.025977125,1.0003022,0.00015271631,-0.00076358154,-0.00030543262,-0.08379451,0.26019347,9.806191,2,1683969868.6034412
-0.008476105,0.025977125,1.0003022,0.00015271631,0.00045814895,0.0009162979,-0.08379451,0.26019347,9.806191,2,1683969868.6136994
-0.008476105,0.025977125,1.0003022,-0.0010690142,-0.001985312,0.0009162979,-0.08379451,0.26019347,9.806191,2,1683969868.6342216
-0.008415125,0.027440626,0.9968874,-0.0010690142,-0.001985312,0.0009162979,-0.08379451,0.26019347,9.806191,2,1683969868.6393154
-0.008415125,0.027440626,0.9968874,-0.0010690142,-0.001985312,0.0009162979,-0.08372709,0.2601923,9.806192,2,1683969868.6444407
-0.008415125,0.027440626,0.9968874,0.0025961774,0.00045814895,-0.00030543262,-0.08372709,0.2601923,9.806192,2,1683969868.6649647
-0.008415125,0.027440626,0.9968874,0.0025961774,0.00045814895,-0.00030543262,-0.08364035,0.26010415,9.806195,2,1683969868.6803246
-0.008963938,0.02695279,1.0003022,0.0025961774,0.00045814895,-0.00030543262,-0.08364035,0.26010415,9.806195,2,1683969868.6854615
-0.008963938,0.02695279,1.0003022,0.0025961774,0.00045814895,-0.00030543262,-0.0837125,0.26010036,9.806194,2,1683969868.6957197
-0.008415125,0.02695279,0.9973753,0.0025961774,0.00045814895,-0.00030543262,-0.0837125,0.26010036,9.806194,2,1683969868.700852
-0.008415125,0.02695279,0.9973753,-0.0010690142,-0.00076358154,0.0009162979,-0.0837125,0.26010036,9.806194,2,1683969868.7162604
-0.008963938,0.02695279,1.0007901,-0.0010690142,-0.00076358154,0.0009162979,-0.0837125,0.26010036,9.806194,2,1683969868.7367737
-0.008963938,0.02695279,1.0007901,-0.0010690142,-0.00076358154,0.0009162979,-0.08384453,0.26011235,9.806192,2,1683969868.7419086
-0.009390792,0.027440626,0.9993266,-0.0010690142,-0.00076358154,0.0009162979,-0.08384453,0.26011235,9.806192,2,1683969868.7675464
-0.009390792,0.027440626,0.9993266,0.0012217305,-0.005497787,0.0009162979,-0.08384453,0.26011235,9.806192,2,1683969868.7726789
-0.009390792,0.027440626,0.9993266,0.0012217305,-0.005497787,0.0009162979,-0.083816536,0.2591318,9.80622,2,1683969868.798281
-0.007927292,0.027440626,0.9979241,0.0012217305,-0.005497787,0.0009162979,-0.083816536,0.2591318,9.80622,2,1683969868.8033767
-0.007927292,0.027440626,0.9979241,0.0012217305,-0.0030543262,0.0009162979,-0.083816536,0.2591318,9.80622,2,1683969868.8136377
-0.008415125,0.025001459,0.99938756,0.0012217305,-0.0030543262,0.0009162979,-0.083816536,0.2591318,9.80622,2,1683969868.829032
-0.008415125,0.025001459,0.99938756,0.0012217305,-0.0030543262,0.0009162979,-0.0836235,0.25910953,9.806221,2,1683969868.834172
-0.008415125,0.025001459,0.99938756,0.0012217305,-0.0030543262,0.0009162979,-0.08350921,0.2590924,9.806223,2,1683969868.8597827
-0.008415125,0.025001459,0.99938756,-0.0012217305,0.00061086525,-0.00030543262,-0.08350921,0.2590924,9.806223,2,1683969868.8700452
-0.009878625,0.027440626,0.998351,-0.0012217305,0.00061086525,-0.00030543262,-0.08350921,0.2590924,9.806223,2,1683969868.875189
-0.009878625,0.027440626,0.998351,-0.0012217305,0.00061086525,-0.00030543262,-0.083455525,0.25916094,9.806222,2,1683969868.8905976
-0.009878625,0.027440626,0.998351,-0.0012217305,0.0018325958,-0.0027488936,-0.083455525,0.25916094,9.806222,2,1683969868.8957212
-0.0075004376,0.025977125,1.0012779,-0.0012217305,0.0018325958,-0.0027488936,-0.083455525,0.25916094,9.806222,2,1683969868.9110746
-0.008902958,0.02792846,0.9979241,-0.0012217305,0.0018325958,-0.0027488936,-0.083455525,0.25916094,9.806222,2,1683969868.9213405
-0.008902958,0.02792846,0.9979241,0.0012217305,-0.0018325958,0.0009162979,-0.083455525,0.25916094,9.806222,2,1683969868.926472
-0.008902958,0.02792846,0.9979241,0.0012217305,-0.0018325958,0.0009162979,-0.08352415,0.25912622,9.806222,2,1683969868.9469702
-0.008902958,0.02792846,0.9979241,-0.002443461,0.0018325958,0.0009162979,-0.08352415,0.25912622,9.806222,2,1683969868.9521081
-0.008415125,0.025489293,0.9984119,-0.002443461,0.0018325958,0.0009162979,-0.08352415,0.25912622,9.806222,2,1683969868.9674945
-0.008415125,0.025489293,0.9984119,-0.002443461,0.0018325958,0.0009162979,-0.083424784,0.2591835,9.806221,2,1683969868.977753
-0.008415125,0.025489293,0.9984119,0.0,-0.00061086525,0.0021380284,-0.083424784,0.2591835,9.806221,2,1683969869.0033545
-0.008415125,0.025489293,0.9964606,0.0,-0.00061086525,0.0021380284,-0.083424784,0.2591835,9.806221,2,1683969869.008486
-0.008415125,0.025489293,0.9964606,0.0,-0.00061086525,0.0021380284,-0.0834716,0.25916514,9.806221,2,1683969869.013617
-0.008415125,0.025489293,0.9964606,0.0,0.00061086525,-0.00030543262,-0.0834716,0.25916514,9.806221,2,1683969869.029006
-0.00798827,0.02841629,1.0003022,0.0,0.00061086525,-0.00030543262,-0.0834716,0.25916514,9.806221,2,1683969869.0494597
-0.00798827,0.02841629,1.0003022,-0.0012217305,-0.00061086525,-0.00030543262,-0.0834716,0.25916514,9.806221,2,1683969869.0545964
-0.00798827,0.02841629,1.0003022,-0.0012217305,-0.00061086525,-0.00030543262,-0.083249,0.2591161,9.806224,2,1683969869.0648565
-0.008415125,0.02841629,0.9993266,-0.0012217305,-0.00061086525,-0.00030543262,-0.083249,0.2591161,9.806224,2,1683969869.0853794
-0.008415125,0.02841629,0.9993266,0.0,-0.00061086525,0.0009162979,-0.083249,0.2591161,9.806224,2,1683969869.0905132
-0.008415125,0.02841629,0.9993266,0.0,-0.00061086525,0.0009162979,-0.08321893,0.2591372,9.806224,2,1683969869.100787
-0.008415125,0.02841629,0.9993266,0.0,-0.0030543262,0.0021380284,-0.08321893,0.2591372,9.806224,2,1683969869.1213167
-0.010366458,0.025489293,0.9993266,0.0,-0.0030543262,0.0021380284,-0.08321893,0.2591372,9.806224,2,1683969869.126401
-0.010366458,0.025489293,0.9993266,0.0,-0.0030543262,0.0021380284,-0.08318518,0.2590841,9.806226,2,1683969869.1366632
-0.010366458,0.025489293,0.9993266,-0.0012217305,-0.0018325958,0.0009162979,-0.08318518,0.2590841,9.806226,2,1683969869.162273
-0.010366458,0.025489293,0.9993266,-0.0012217305,-0.0018325958,0.0009162979,-0.08307631,0.25901878,9.806229,2,1683969869.1674016
-0.0074394583,0.02695279,0.9984119,-0.0012217305,-0.0018325958,0.0009162979,-0.08307631,0.25901878,9.806229,2,1683969869.1725698
-0.008415125,0.025489293,0.9988997,-0.0012217305,-0.0018325958,0.0009162979,-0.08307631,0.25901878,9.806229,2,1683969869.193092
-0.008415125,0.025489293,0.9988997,0.0,-0.0018325958,-0.00030543262,-0.08307631,0.25901878,9.806229,2,1683969869.1982186
-0.008415125,0.025489293,0.9988997,0.0,-0.0018325958,-0.00030543262,-0.08279571,0.2589994,9.8062315,2,1683969869.208448
-0.007927292,0.02695279,0.9979241,0.0012217305,-0.0018325958,-0.00030543262,-0.08270929,0.2589893,9.806232,2,1683969869.234127
-0.008476105,0.024513626,1.0003022,0.0012217305,-0.0018325958,-0.00030543262,-0.08270929,0.2589893,9.806232,2,1683969869.2443163
-0.008476105,0.024513626,1.0003022,0.0012217305,-0.0018325958,-0.00030543262,-0.08274735,0.25910586,9.806229,2,1683969869.2545772
-0.008476105,0.024513626,1.0003022,-0.0012217305,-0.00061086525,-0.0015271631,-0.08274735,0.25910586,9.806229,2,1683969869.2699609
-0.008476105,0.024513626,1.0003022,0.0,0.0030543262,-0.00030543262,-0.08274735,0.25910586,9.806229,2,1683969869.2802267
-0.008476105,0.024513626,1.0003022,0.0,0.0030543262,-0.00030543262,-0.0827976,0.25911698,9.806229,2,1683969869.2956147
-0.007927292,0.02792846,0.998351,0.0,0.0030543262,-0.00030543262,-0.0827976,0.25911698,9.806229,2,1683969869.3110046
-0.007927292,0.02792846,0.998351,0.0,0.0030543262,-0.00030543262,-0.08269963,0.25952518,9.806218,2,1683969869.3212667
-0.007927292,0.02792846,0.998351,0.0,0.00061086525,-0.00030543262,-0.08269963,0.25952518,9.806218,2,1683969869.3366559
-0.008902958,0.025489293,0.9969484,0.0,0.00061086525,-0.00030543262,-0.08269963,0.25952518,9.806218,2,1683969869.357235
-0.008902958,0.025489293,0.9969484,0.0,0.00061086525,-0.00030543262,-0.08262507,0.25959003,9.806217,2,1683969869.3674834
-0.008902958,0.025489293,0.9969484,-0.002443461,-0.00076358154,-0.0015271631,-0.08262507,0.25959003,9.806217,2,1683969869.3726175
-0.010366458,0.02646496,0.9988388,-0.002443461,-0.00076358154,-0.0015271631,-0.08262507,0.25959003,9.806217,2,1683969869.3880057
-0.010366458,0.02646496,0.9988388,0.0,0.00061086525,-0.00030543262,-0.08262507,0.25959003,9.806217,2,1683969869.403355
-0.010366458,0.02646496,0.9988388,0.0,0.00061086525,-0.00030543262,-0.08256642,0.25947037,9.806221,2,1683969869.4084473
-0.009390792,0.025489293,0.9988388,0.0,0.00061086525,-0.00030543262,-0.08256642,0.25947037,9.806221,2,1683969869.4289253
-0.009390792,0.025489293,0.9988388,0.0,0.00061086525,-0.00030543262,-0.082576506,0.2593979,9.806223,2,1683969869.4340541
-0.009390792,0.025489293,0.9988388,0.0012217305,-0.0018325958,-0.00030543262,-0.082576506,0.2593979,9.806223,2,1683969869.4442778
-0.009390792,0.025489293,0.9988388,-0.0012217305,-0.0032070426,-0.0015271631,-0.082576506,0.2593979,9.806223,2,1683969869.4647694
-0.009390792,0.025489293,0.9988388,-0.0012217305,-0.0032070426,-0.0015271631,-0.08241419,0.25954494,9.80622,2,1683969869.4699008
-0.009390792,0.02695279,0.9978631,-0.0012217305,-0.0032070426,-0.0015271631,-0.08241419,0.25954494,9.80622,2,1683969869.4801576
-0.008902958,0.025977125,0.9988388,-0.0012217305,-0.0032070426,-0.0015271631,-0.08241419,0.25954494,9.80622,2,1683969869.4955556
-0.008902958,0.025977125,0.9988388,-0.002443461,-0.001985312,0.0009162979,-0.08241419,0.25954494,9.80622,2,1683969869.5006855
-0.008902958,0.025977125,0.9988388,-0.002443461,-0.001985312,0.0009162979,-0.08221365,0.259479,9.806223,2,1683969869.510948
-0.00798827,0.02695279,0.9998144,-0.002443461,-0.001985312,0.0009162979,-0.08221365,0.259479,9.806223,2,1683969869.5314493
-0.00798827,0.02695279,0.9998144,0.0012217305,0.00061086525,0.0009162979,-0.08221365,0.259479,9.806223,2,1683969869.5417135
-0.00798827,0.02695279,0.9998144,0.0012217305,0.00061086525,0.0009162979,-0.0822491,0.25935358,9.806227,2,1683969869.5468092
-0.0069516255,0.02792846,0.9988388,0.0012217305,0.00061086525,0.0009162979,-0.0822491,0.25935358,9.806227,2,1683969869.5672905
-0.0069516255,0.02792846,0.9988388,0.0,-0.00061086525,-0.00030543262,-0.0822491,0.25935358,9.806227,2,1683969869.5724237
-0.0069516255,0.02792846,0.9988388,0.0,-0.00061086525,-0.00030543262,-0.082144834,0.25928816,9.806229,2,1683969869.5826838
-0.0069516255,0.02792846,0.9988388,0.0,-0.00061086525,-0.00030543262,-0.082967155,0.2595015,9.806216,2,1683969869.5929477
-0.0069516255,0.02792846,0.9988388,-0.002443461,-0.00076358154,-0.0015271631,-0.082967155,0.2595015,9.806216,2,1683969869.5980828
-0.009390792,0.02695279,0.998351,-0.002443461,-0.00076358154,-0.0015271631,-0.082967155,0.2595015,9.806216,2,1683969869.6083302
-0.009390792,0.02695279,0.998351,0.0,0.004276057,0.0021380284,-0.082967155,0.2595015,9.806216,2,1683969869.6288455
-0.008415125,0.024513626,0.9978631,0.0,0.004276057,0.0021380284,-0.082967155,0.2595015,9.806216,2,1683969869.6339753
-0.008476105,0.025977125,1.0007901,0.0,0.004276057,0.0021380284,-0.08303367,0.25954095,9.806215,2,1683969869.6391604
-0.008902958,0.02792846,0.9973753,0.0012217305,-0.004276057,0.0009162979,-0.08299664,0.25952938,9.806215,2,1683969869.6443424
-0.011342125,0.02695279,0.9973753,0.0012217305,-0.00061086525,-0.00030543262,-0.08298184,0.25968236,9.806211,2,1683969869.6495368
-0.011342125,0.02695279,0.9973753,0.0012217305,-0.00061086525,-0.00030543262,-0.083086014,0.25973707,9.806209,2,1683969869.6546228
-0.011342125,0.02695279,0.9973753,0.0,0.00061086525,-0.00030543262,-0.083086014,0.25973707,9.806209,2,1683969869.6700122
-0.008415125,0.025489293,0.9993266,0.0,0.00061086525,-0.00030543262,-0.083086014,0.25973707,9.806209,2,1683969869.6751485
-0.007927292,0.024025792,0.9974363,0.0,0.00061086525,-0.00030543262,-0.083086014,0.25973707,9.806209,2,1683969869.6905732
-0.007927292,0.024025792,0.9974363,0.0,-0.00061086525,0.0009162979,-0.083086014,0.25973707,9.806209,2,1683969869.6957123
-0.007927292,0.024025792,0.9974363,0.0,-0.00061086525,0.0009162979,-0.08302713,0.25977048,9.806209,2,1683969869.7008414
-0.008415125,0.025001459,0.9979241,0.0,-0.00061086525,0.0009162979,-0.08302713,0.25977048,9.806209,2,1683969869.7316039
-0.008415125,0.025001459,0.9979241,0.0,-0.00061086525,0.0009162979,-0.08296679,0.2597522,9.80621,2,1683969869.736738
-0.008415125,0.025001459,0.9979241,-0.0012217305,0.0018325958,-0.0015271631,-0.08296679,0.2597522,9.80621,2,1683969869.7469976
-0.008415125,0.025001459,0.9979241,0.0,0.0018325958,-0.00030543262,-0.08296679,0.2597522,9.80621,2,1683969869.7521322
-0.008415125,0.025001459,0.9979241,0.0,0.0018325958,-0.00030543262,-0.083109476,0.25934085,9.80622,2,1683969869.7572627
-0.008963938,0.02695279,1.0003022,0.0,0.0018325958,-0.00030543262,-0.083109476,0.25934085,9.80622,2,1683969869.7675142
-0.008963938,0.02695279,1.0003022,0.0,0.0018325958,-0.00030543262,-0.0831818,0.25937077,9.806218,2,1683969869.788023
-0.008963938,0.02695279,1.0003022,0.0012217305,0.00061086525,0.0009162979,-0.0831818,0.25937077,9.806218,2,1683969869.798282
-0.008415125,0.02695279,0.9974363,0.0012217305,0.00061086525,0.0009162979,-0.0831818,0.25937077,9.806218,2,1683969869.8034098
-0.008415125,0.02695279,0.9974363,0.0,-0.00061086525,0.0021380284,-0.0831818,0.25937077,9.806218,2,1683969869.8136766
-0.008415125,0.02695279,0.9974363,0.0,-0.00061086525,0.0021380284,-0.08332506,0.25950438,9.806213,2,1683969869.829066
-0.009390792,0.025977125,0.9988388,0.0,-0.00061086525,0.0021380284,-0.08332506,0.25950438,9.806213,2,1683969869.839253
-0.009390792,0.025977125,0.9988388,-0.0012217305,0.0018325958,0.0009162979,-0.08332506,0.25950438,9.806213,2,1683969869.844384
-0.008963938,0.02646496,1.0007901,-0.0012217305,0.0018325958,0.0009162979,-0.08332506,0.25950438,9.806213,2,1683969869.854604
-0.008963938,0.02646496,1.0007901,-0.0012217305,0.0018325958,0.0009162979,-0.08332403,0.25948432,9.806214,2,1683969869.8699827
-0.008963938,0.02646496,1.0007901,-0.0012217305,0.00061086525,0.0009162979,-0.08332403,0.25948432,9.806214,2,1683969869.890562
-0.00798827,0.02695279,0.9998144,-0.0012217305,0.00061086525,0.0009162979,-0.08332403,0.25948432,9.806214,2,1683969869.8956935
-0.00798827,0.02695279,0.9998144,-0.0012217305,0.00061086525,0.0009162979,-0.083396226,0.2593473,9.806216,2,1683969869.9059553
-0.007927292,0.025001459,0.9974363,-0.0012217305,0.00061086525,0.0009162979,-0.083396226,0.2593473,9.806216,2,1683969869.921342
-0.007927292,0.025001459,0.9974363,0.0,-0.0030543262,0.0009162979,-0.083396226,0.2593473,9.806216,2,1683969869.9367328
-0.007927292,0.025001459,0.9974363,0.0,-0.0030543262,0.0009162979,-0.08342658,0.25925666,9.806219,2,1683969869.941865
-0.007927292,0.025001459,0.9974363,-0.0012217305,-0.0018325958,0.0009162979,-0.08342658,0.25925666,9.806219,2,1683969869.9675038
-0.0069516255,0.025977125,0.9993266,-0.0012217305,-0.0018325958,0.0009162979,-0.08342658,0.25925666,9.806219,2,1683969869.9726324
-0.0069516255,0.025977125,0.9993266,-0.0012217305,-0.0018325958,0.0009162979,-0.083334126,0.25927678,9.80622,2,1683969869.977762
-0.0069516255,0.025977125,0.9993266,0.0012217305,0.004276057,0.0021380284,-0.083334126,0.25927678,9.80622,2,1683969869.998281
-0.0069516255,0.025977125,0.9993266,0.0012217305,0.004276057,0.0021380284,-0.08318407,0.25946903,9.806215,2,1683969870.003406
-0.00798827,0.025977125,1.0017658,0.0012217305,0.004276057,0.0021380284,-0.08318407,0.25946903,9.806215,2,1683969870.0136857
-0.00798827,0.025977125,1.0017658,0.002443461,0.0018325958,0.0021380284,-0.08318407,0.25946903,9.806215,2,1683969870.0188162
-0.008902958,0.025489293,0.9998144,0.002443461,0.0018325958,0.0021380284,-0.08318407,0.25946903,9.806215,2,1683969870.029077
-0.008902958,0.025489293,0.9998144,0.0012217305,0.00061086525,-0.0015271631,-0.08318407,0.25946903,9.806215,2,1683969870.044426
-0.008902958,0.025489293,0.9998144,0.0012217305,0.00061086525,-0.0015271631,-0.08329761,0.25949213,9.806213,2,1683969870.0598254
-0.008902958,0.02695279,0.9988388,0.0012217305,0.00061086525,-0.0015271631,-0.08329761,0.25949213,9.806213,2,1683969870.0700774
-0.008902958,0.02695279,0.9988388,0.0012217305,0.00061086525,-0.00030543262,-0.08329761,0.25949213,9.806213,2,1683969870.0957434
-0.008902958,0.02695279,0.9988388,0.0012217305,0.00061086525,-0.00030543262,-0.08326656,0.25949344,9.806214,2,1683969870.1008532
-0.011342125,0.025489293,0.998351,0.0012217305,0.00061086525,-0.00030543262,-0.08326656,0.25949344,9.806214,2,1683969870.105985
-0.0075004376,0.02646496,1.0003022,0.0012217305,0.00061086525,-0.00030543262,-0.08326656,0.25949344,9.806214,2,1683969870.1213837
-0.0075004376,0.02646496,1.0003022,-0.0012217305,-0.0018325958,0.0009162979,-0.08326656,0.25949344,9.806214,2,1683969870.1265104
-0.0075004376,0.02646496,1.0003022,-0.0012217305,-0.0018325958,0.0009162979,-0.08323622,0.25949106,9.806215,2,1683969870.1367688
-0.0075004376,0.02646496,1.0003022,-0.0012217305,-0.0018325958,0.0009162979,-0.083361,0.25920656,9.806221,2,1683969870.1726491
-0.0075004376,0.02646496,1.0003022,-0.002443461,0.00045814895,-0.0027488936,-0.083361,0.25920656,9.806221,2,1683969870.1777818
-0.008415125,0.02695279,0.9978631,-0.002443461,0.00045814895,-0.0027488936,-0.083361,0.25920656,9.806221,2,1683969870.1829138
-0.008415125,0.02695279,0.9978631,0.0,-0.00061086525,-0.00030543262,-0.083361,0.25920656,9.806221,2,1683969870.1880455
-0.008415125,0.02695279,0.9978631,0.0,-0.00061086525,-0.00030543262,-0.08337898,0.25910112,9.806223,2,1683969870.2135825
-0.008902958,0.02646496,0.9988388,0.0,-0.00061086525,-0.00030543262,-0.08337898,0.25910112,9.806223,2,1683969870.2187169
-0.0074394583,0.02695279,0.9998144,0.0,-0.00061086525,-0.00030543262,-0.08337898,0.25910112,9.806223,2,1683969870.2339878
-0.0074394583,0.02695279,0.9998144,0.0,-0.00061086525,-0.00030543262,-0.08342902,0.25893533,9.806228,2,1683969870.2390807
-0.0074394583,0.02695279,0.9998144,0.0012217305,-0.00061086525,-0.0015271631,-0.08342902,0.25893533,9.806228,2,1683969870.2441707
-0.008902958,0.027440626,0.9988388,0.0012217305,-0.00061086525,-0.0015271631,-0.08342902,0.25893533,9.806228,2,1683969870.2749412
-0.008902958,0.027440626,0.9988388,0.0,-0.004428773,-0.0027488936,-0.08342902,0.25893533,9.806228,2,1683969870.2852032
-0.008902958,0.027440626,0.9988388,0.0,-0.004428773,-0.0027488936,-0.083516836,0.2590184,9.806225,2,1683969870.2903366
-0.008902958,0.027440626,0.9988388,0.0012217305,0.00061086525,-0.00030543262,-0.083516836,0.2590184,9.806225,2,1683969870.3057156
-0.008902958,0.027440626,0.9988388,0.0012217305,0.00061086525,-0.00030543262,-0.08292442,0.2584067,9.806246,2,1683969870.3108513
-0.010366458,0.025977125,0.9993266,0.0012217305,0.00061086525,-0.00030543262,-0.08292442,0.2584067,9.806246,2,1683969870.3211067
-0.010366458,0.025977125,0.9993266,0.0012217305,0.00061086525,-0.00030543262,-0.08304241,0.2584246,9.806244,2,1683969870.3364608
-0.010366458,0.025977125,0.9993266,-0.0036651916,-0.004428773,-0.00030543262,-0.08304241,0.2584246,9.806244,2,1683969870.3415725
-0.0074394583,0.025001459,0.998351,-0.0036651916,-0.004428773,-0.00030543262,-0.08304241,0.2584246,9.806244,2,1683969870.3467
-0.0074394583,0.025001459,0.998351,-0.0036651916,-0.004428773,-0.00030543262,-0.08311059,0.25832847,9.806247,2,1683969870.382485
-0.0075004376,0.025977125,1.0003022,-0.0036651916,-0.004428773,-0.00030543262,-0.08311059,0.25832847,9.806247,2,1683969870.3927433
-0.0075004376,0.025977125,1.0003022,-0.0036651916,0.0018325958,0.0021380284,-0.08311059,0.25832847,9.806247,2,1683969870.3978732
-0.008415125,0.025001459,0.9968874,-0.0036651916,0.0018325958,0.0021380284,-0.08311059,0.25832847,9.806247,2,1683969870.4030068
-0.008415125,0.025001459,0.9968874,-0.0036651916,0.0018325958,0.0021380284,-0.08316213,0.25816226,9.80625,2,1683969870.4183981
-0.008415125,0.025001459,0.9968874,0.0012217305,-0.0030543262,-0.00030543262,-0.08316213,0.25816226,9.80625,2,1683969870.4286625
-0.008415125,0.025001459,0.9968874,0.0012217305,-0.0030543262,-0.00030543262,-0.082992844,0.25821277,9.80625,2,1683969870.4491358
-0.0074394583,0.025977125,0.9993266,0.0012217305,-0.0030543262,-0.00030543262,-0.082992844,0.25821277,9.80625,2,1683969870.4542663
-0.0074394583,0.025977125,0.9993266,0.002443461,-0.0018325958,-0.00030543262,-0.082992844,0.25821277,9.80625,2,1683969870.4695394
-0.0074394583,0.025977125,0.9993266,0.0012217305,0.004276057,-0.0015271631,-0.082992844,0.25821277,9.80625,2,1683969870.4848852
-0.0074394583,0.025977125,0.9993266,0.0012217305,0.004276057,-0.0015271631,-0.08287015,0.25830388,9.806249,2,1683969870.5002775
-0.009878625,0.02695279,0.9988388,0.0012217305,0.004276057,-0.0015271631,-0.08287015,0.25830388,9.806249,2,1683969870.505407
-0.009878625,0.02695279,0.9988388,0.0,0.0018325958,-0.0015271631,-0.08287015,0.25830388,9.806249,2,1683969870.5105
-0.008902958,0.027440626,0.9993266,0.0,0.0018325958,-0.0015271631,-0.08287015,0.25830388,9.806249,2,1683969870.51563
-0.008902958,0.027440626,0.9993266,0.0,0.0018325958,-0.0015271631,-0.082878865,0.25835493,9.806248,2,1683969870.5412714
-0.0069516255,0.02646496,0.9978631,0.0,0.0018325958,-0.0015271631,-0.082878865,0.25835493,9.806248,2,1683969870.556673
-0.0069516255,0.02646496,0.9978631,0.0012217305,0.004276057,0.0009162979,-0.082878865,0.25835493,9.806248,2,1683969870.571948
-0.0075004376,0.025489293,1.0012779,0.0012217305,0.004276057,0.0009162979,-0.082878865,0.25835493,9.806248,2,1683969870.5770307
-0.008415125,0.02792846,0.9988388,0.0012217305,0.004276057,0.0009162979,-0.082878865,0.25835493,9.806248,2,1683969870.597473
-0.008415125,0.02792846,0.9988388,0.0036651916,-0.0030543262,0.0009162979,-0.082878865,0.25835493,9.806248,2,1683969870.6077485
-0.008415125,0.02792846,0.9988388,0.0036651916,-0.0030543262,0.0009162979,-0.08189703,0.25748178,9.806279,2,1683969870.6180084
-0.008415125,0.02792846,0.9988388,-0.0012217305,-0.00061086525,-0.00030543262,-0.08189703,0.25748178,9.806279,2,1683969870.6334057
-0.0075004376,0.027440626,0.9998144,-0.0012217305,-0.00061086525,-0.00030543262,-0.08189703,0.25748178,9.806279,2,1683969870.6436634
-0.0075004376,0.027440626,0.9998144,-0.0012217305,-0.00061086525,-0.00030543262,-0.08176367,0.2576665,9.806275,2,1683969870.6539333
-0.0075004376,0.027440626,0.9998144,-0.0012217305,-0.00061086525,-0.00030543262,-0.0819273,0.25764862,9.806274,2,1683969870.6795743
-0.008476105,0.027440626,1.0017658,-0.0012217305,-0.00061086525,-0.00030543262,-0.0819273,0.25764862,9.806274,2,1683969870.6847072
-0.008476105,0.027440626,1.0017658,0.0012217305,-0.0018325958,0.0009162979,-0.0819273,0.25764862,9.806274,2,1683969870.6898384
-0.008902958,0.02695279,0.9988388,0.0012217305,-0.0018325958,0.0009162979,-0.0819273,0.25764862,9.806274,2,1683969870.7000816
-0.008902958,0.02695279,0.9988388,0.0,0.0018325958,0.0021380284,-0.0819273,0.25764862,9.806274,2,1683969870.7205653
-0.008902958,0.02695279,0.9988388,0.0,0.0018325958,0.0021380284,-0.081999324,0.25770038,9.8062725,2,1683969870.7256975
-0.008902958,0.02695279,0.9988388,0.0012217305,0.00061086525,-0.0015271631,-0.081999324,0.25770038,9.8062725,2,1683969870.7359576
-0.008902958,0.02695279,0.9988388,0.0012217305,0.00061086525,-0.0015271631,-0.08223896,0.25774914,9.806269,2,1683969870.751315
-0.008476105,0.024025792,1.0003022,0.0012217305,0.00061086525,-0.0015271631,-0.08223896,0.25774914,9.806269,2,1683969870.7564437
-0.008902958,0.025489293,0.9973753,0.0012217305,0.00061086525,-0.0015271631,-0.08223896,0.25774914,9.806269,2,1683969870.771827
-0.008902958,0.025489293,0.9973753,0.0012217305,0.00061086525,0.0009162979,-0.08223896,0.25774914,9.806269,2,1683969870.7820883
-0.008902958,0.025489293,0.9973753,0.0012217305,0.00061086525,0.0009162979,-0.08229611,0.2577197,9.806269,2,1683969870.7923334
-0.008902958,0.025489293,0.9973753,0.0012217305,0.00061086525,0.0009162979,-0.08211033,0.25765738,9.8062725,2,1683969870.8025956
-0.008902958,0.025489293,0.9973753,0.0012217305,0.00061086525,-0.00030543262,-0.08211033,0.25765738,9.8062725,2,1683969870.8077264
-0.007927292,0.02695279,0.9993266,0.0012217305,0.00061086525,-0.00030543262,-0.08211033,0.25765738,9.8062725,2,1683969870.823121
-0.007927292,0.02695279,0.9993266,0.0012217305,0.00061086525,-0.00030543262,-0.08215672,0.2576173,9.806273,2,1683969870.8487728
-0.009390792,0.025489293,0.9998144,0.0012217305,0.00061086525,-0.00030543262,-0.08215672,0.2576173,9.806273,2,1683969870.8539023
-0.009390792,0.025489293,0.9998144,0.0,0.0030543262,-0.00030543262,-0.08215672,0.2576173,9.806273,2,1683969870.8641632
-0.009390792,0.025489293,0.9998144,0.0,0.0030543262,-0.00030543262,-0.08181343,0.25803608,9.806265,2,1683969870.8744361
-0.0069516255,0.027440626,0.9993266,0.0,0.0030543262,-0.00030543262,-0.08181343,0.25803608,9.806265,2,1683969870.8795702
-0.009390792,0.025977125,0.9973753,0.0,0.0030543262,-0.00030543262,-0.08181343,0.25803608,9.806265,2,1683969870.9051409
-0.009390792,0.025977125,0.9973753,0.0,0.0030543262,-0.00030543262,-0.08188903,0.2580962,9.806262,2,1683969870.9102724
-0.009390792,0.025977125,0.9973753,-0.0012217305,-0.00061086525,0.0009162979,-0.08188903,0.2580962,9.806262,2,1683969870.9153678
-0.008415125,0.02646496,0.998351,-0.0012217305,-0.00061086525,0.0009162979,-0.08188903,0.2580962,9.806262,2,1683969870.9410257
-0.008415125,0.02646496,0.998351,0.0,0.0018325958,-0.00030543262,-0.08188903,0.2580962,9.806262,2,1683969870.9461567
-0.008415125,0.02646496,0.998351,0.0,0.0018325958,-0.00030543262,-0.081970684,0.25814033,9.806261,2,1683969870.9563844
-0.007927292,0.02695279,0.9993266,0.0,0.0018325958,-0.00030543262,-0.081970684,0.25814033,9.806261,2,1683969870.9666057
-0.007927292,0.02695279,0.9993266,0.0,0.0018325958,-0.00030543262,-0.0819937,0.25820363,9.806259,2,1683969870.9768646
-0.007927292,0.02695279,0.9993266,-0.0012217305,0.0030543262,-0.00030543262,-0.0819937,0.25820363,9.806259,2,1683969870.992251
-0.007927292,0.02695279,0.9993266,-0.0012217305,0.0030543262,-0.00030543262,-0.08210379,0.25812143,9.80626,2,1683969871.012778
-0.008415125,0.024025792,0.9978631,-0.0012217305,0.0030543262,-0.00030543262,-0.08210379,0.25812143,9.80626,2,1683969871.017907
-0.008415125,0.024025792,0.9978631,-0.0012217305,-0.00061086525,-0.0015271631,-0.08210379,0.25812143,9.80626,2,1683969871.0332966
-0.008415125,0.024025792,0.9978631,0.0,0.00061086525,-0.00030543262,-0.08210379,0.25812143,9.80626,2,1683969871.0538127
-0.008415125,0.025977125,0.998351,0.0,0.00061086525,-0.00030543262,-0.08210379,0.25812143,9.80626,2,1683969871.0589397
-0.008415125,0.025977125,0.998351,0.0,0.00061086525,-0.00030543262,-0.0821018,0.25806832,9.806262,2,1683969871.0692031
-0.008415125,0.025977125,0.998351,0.0,0.00061086525,-0.00030543262,-0.08218459,0.25807956,9.80626,2,1683969871.0896926
-0.008415125,0.025977125,0.998351,0.0,-0.0018325958,0.0009162979,-0.08218459,0.25807956,9.80626,2,1683969871.094823
-0.008963938,0.025489293,1.0003022,0.0,-0.0018325958,0.0009162979,-0.08218459,0.25807956,9.80626,2,1683969871.1050842
-0.008963938,0.025489293,1.0003022,-0.0012217305,0.00061086525,0.0009162979,-0.08218459,0.25807956,9.80626,2,1683969871.1255603
-0.008963938,0.025489293,1.0003022,-0.0012217305,0.00061086525,0.0009162979,-0.08208011,0.25809857,9.806261,2,1683969871.1306906
-0.00798827,0.02695279,0.9998144,-0.0012217305,0.00061086525,0.0009162979,-0.08208011,0.25809857,9.806261,2,1683969871.1460457
-0.00798827,0.02695279,0.9998144,-0.0012217305,0.00061086525,-0.0015271631,-0.08208011,0.25809857,9.806261,2,1683969871.1512032
-0.00798827,0.02695279,0.9998144,-0.0012217305,0.00061086525,-0.0015271631,-0.08221419,0.25824773,9.806256,2,1683969871.1665869
-0.00798827,0.02695279,0.9998144,0.0,0.0018325958,0.0009162979,-0.08221419,0.25824773,9.806256,2,1683969871.1819723
-0.00798827,0.02695279,0.9998144,0.0,0.0018325958,0.0009162979,-0.08215203,0.2582318,9.806257,2,1683969871.1973765
-0.008415125,0.02646496,0.9974363,0.0,0.0018325958,0.0009162979,-0.08215203,0.2582318,9.806257,2,1683969871.2025092
-0.008415125,0.02646496,0.9974363,-0.0012217305,-0.00061086525,-0.00030543262,-0.08215203,0.2582318,9.806257,2,1683969871.217862
-0.008415125,0.02646496,0.9974363,-0.0012217305,-0.00061086525,-0.00030543262,-0.08228371,0.25825852,9.806255,2,1683969871.2229505
-0.007927292,0.027440626,0.9969484,-0.0012217305,-0.00061086525,-0.00030543262,-0.08228371,0.25825852,9.806255,2,1683969871.2280853
-0.007927292,0.025977125,0.9993266,-0.0012217305,-0.00061086525,-0.00030543262,-0.08228371,0.25825852,9.806255,2,1683969871.2485793
-0.007927292,0.025977125,0.9993266,0.0012217305,-0.00061086525,0.0009162979,-0.08228371,0.25825852,9.806255,2,1683969871.253712
-0.007927292,0.025977125,0.9993266,0.0012217305,-0.00061086525,0.0009162979,-0.082333475,0.25820217,9.806256,2,1683969871.2588425
-0.008476105,0.025977125,1.0017658,0.0012217305,-0.00061086525,0.0009162979,-0.082333475,0.25820217,9.806256,2,1683969871.2844462
-0.008476105,0.025977125,1.0017658,0.0012217305,0.004276057,-0.00030543262,-0.082333475,0.25820217,9.806256,2,1683969871.294696
-0.008476105,0.025977125,1.0017658,0.0012217305,0.004276057,-0.00030543262,-0.08232103,0.2582649,9.806254,2,1683969871.3049576
-0.008476105,0.025977125,1.0017658,0.0,0.0018325958,0.0009162979,-0.08232103,0.2582649,9.806254,2,1683969871.3202772
-0.010366458,0.025489293,0.9988388,0.0,0.0018325958,0.0009162979,-0.08232103,0.2582649,9.806254,2,1683969871.3305383
-0.010366458,0.025489293,0.9988388,0.0,0.0018325958,0.0009162979,-0.082627356,0.25841734,9.806248,2,1683969871.3356671
-0.010366458,0.025489293,0.9988388,0.0,0.0018325958,0.0009162979,-0.082672276,0.2583461,9.80625,2,1683969871.3664393
-0.010366458,0.025489293,0.9988388,-0.0012217305,0.00061086525,0.0009162979,-0.082672276,0.2583461,9.80625,2,1683969871.3715634
-0.00798827,0.02695279,1.0007901,-0.0012217305,0.00061086525,0.0009162979,-0.082672276,0.2583461,9.80625,2,1683969871.3766959
-0.00798827,0.02695279,1.0007901,0.0,-0.0030543262,0.0021380284,-0.082672276,0.2583461,9.80625,2,1683969871.3920836
-0.009390792,0.025977125,0.9973753,0.0,-0.0030543262,0.0021380284,-0.082672276,0.2583461,9.80625,2,1683969871.4023476
-0.009390792,0.025977125,0.9973753,-0.0012217305,-0.00061086525,-0.0015271631,-0.082672276,0.2583461,9.80625,2,1683969871.4177263
-0.009390792,0.025977125,0.9973753,-0.0012217305,-0.00061086525,-0.0015271631,-0.0820691,0.25763768,9.806273,2,1683969871.4279497
-0.009390792,0.024513626,0.998351,-0.0012217305,-0.00061086525,-0.0015271631,-0.0820691,0.25763768,9.806273,2,1683969871.443299
-0.009390792,0.024513626,0.998351,0.0,-0.004276057,0.0009162979,-0.0820691,0.25763768,9.806273,2,1683969871.4636836
-0.009390792,0.024513626,0.998351,0.0,-0.004276057,0.0009162979,-0.081966326,0.25765678,9.806274,2,1683969871.468815
-0.009878625,0.023537958,0.9993266,0.0,-0.004276057,0.0009162979,-0.081966326,0.25765678,9.806274,2,1683969871.4739394
-0.0069516255,0.02695279,0.9988388,0.0,-0.004276057,0.0009162979,-0.081966326,0.25765678,9.806274,2,1683969871.499497
-0.0069516255,0.02695279,0.9988388,0.0,-0.004276057,0.0009162979,-0.0819842,0.25760585,9.806274,2,1683969871.50463
-0.0069516255,0.02695279,0.9988388,0.0,0.0030543262,0.0009162979,-0.0819842,0.25760585,9.806274,2,1683969871.509763
-0.007927292,0.02695279,0.998351,0.0,0.0030543262,0.0009162979,-0.0819842,0.25760585,9.806274,2,1683969871.5302827
-0.007927292,0.02695279,0.998351,0.0,0.0030543262,0.0009162979,-0.082012944,0.25762445,9.806274,2,1683969871.545664
-0.007927292,0.02695279,0.998351,0.0012217305,-0.00061086525,0.0009162979,-0.082012944,0.25762445,9.806274,2,1683969871.5507991
-0.007927292,0.02695279,0.998351,0.0012217305,-0.00061086525,0.0009162979,-0.0821957,0.25777444,9.806269,2,1683969871.5712025
-0.007927292,0.02695279,0.998351,-0.0012217305,0.00061086525,-0.0015271631,-0.0821957,0.25777444,9.806269,2,1683969871.576291
-0.009390792,0.025977125,0.998351,-0.0012217305,0.00061086525,-0.0015271631,-0.0821957,0.25777444,9.806269,2,1683969871.5814233
-0.009390792,0.02646496,0.9993266,-0.0012217305,0.00061086525,-0.0015271631,-0.0821957,0.25777444,9.806269,2,1683969871.6120284
-0.009390792,0.02646496,0.9993266,-0.0012217305,0.00061086525,-0.0015271631,-0.08220998,0.25783795,9.806267,2,1683969871.6171143
-0.009390792,0.02646496,0.9993266,0.0,-0.0030543262,-0.00030543262,-0.08220998,0.25783795,9.806267,2,1683969871.622243
-0.008902958,0.025489293,0.9998144,0.0,-0.0030543262,-0.00030543262,-0.08220998,0.25783795,9.806267,2,1683969871.6426904
-0.008902958,0.025489293,0.9998144,0.0,-0.0030543262,-0.00030543262,-0.082083374,0.25780275,9.80627,2,1683969871.65295
-0.008902958,0.025489293,0.9998144,-0.0012217305,0.0030543262,0.0009162979,-0.082083374,0.25780275,9.80627,2,1683969871.6580849
-0.009878625,0.025489293,0.9988388,-0.0012217305,0.0030543262,0.0009162979,-0.082083374,0.25780275,9.80627,2,1683969871.6733942
-0.009878625,0.025489293,0.9988388,-0.0012217305,0.0030543262,0.0009162979,-0.08230557,0.25778136,9.806268,2,1683969871.678523
-0.009878625,0.025489293,0.9988388,0.0012217305,-0.004276057,-0.00030543262,-0.08230557,0.25778136,9.806268,2,1683969871.6887472
-0.009878625,0.025489293,0.9988388,0.0012217305,-0.004276057,-0.00030543262,-0.0824337,0.2583873,9.806251,2,1683969871.7092323
-0.008476105,0.02792846,1.0003022,0.0012217305,-0.004276057,-0.00030543262,-0.0824337,0.2583873,9.806251,2,1683969871.7194078
-0.008476105,0.02792846,1.0003022,0.00015271631,-0.00290161,0.0009162979,-0.0824337,0.2583873,9.806251,2,1683969871.7245352
-0.008476105,0.02792846,1.0003022,0.00015271631,-0.00290161,0.0009162979,-0.08240337,0.25844255,9.80625,2,1683969871.7399232
-0.008415125,0.024513626,0.9978631,0.00015271631,-0.00290161,0.0009162979,-0.08240337,0.25844255,9.80625,2,1683969871.750156
-0.008415125,0.024513626,0.9978631,0.00015271631,0.0032070426,-0.00030543262,-0.08240337,0.25844255,9.80625,2,1683969871.7552402
-0.008415125,0.024513626,0.9978631,0.00015271631,-0.00045814895,-0.0015271631,-0.08240337,0.25844255,9.80625,2,1683969871.7808893
-0.0064637917,0.02646496,0.998351,0.00015271631,-0.00045814895,-0.0015271631,-0.08240337,0.25844255,9.80625,2,1683969871.7860248
-0.0064637917,0.02646496,0.998351,0.00015271631,-0.00045814895,-0.0015271631,-0.0827213,0.2585028,9.806246,2,1683969871.791123
-0.00798827,0.02841629,0.9998144,0.00015271631,-0.00045814895,-0.0015271631,-0.0827213,0.2585028,9.806246,2,1683969871.8064048
-0.00798827,0.02841629,0.9998144,-0.0010690142,-0.00045814895,-0.00030543262,-0.0827213,0.2585028,9.806246,2,1683969871.8217323
-0.00798827,0.02841629,0.9998144,-0.0010690142,-0.00045814895,-0.00030543262,-0.0827407,0.25856012,9.806243,2,1683969871.8319967
-0.00798827,0.02841629,0.9998144,-0.0010690142,-0.00045814895,-0.00030543262,-0.08275836,0.2584905,9.806245,2,1683969871.837128
-0.00798827,0.02841629,0.9998144,-0.0010690142,0.001985312,-0.00030543262,-0.08275836,0.2584905,9.806245,2,1683969871.8524852
-0.007927292,0.027440626,0.9993266,-0.0010690142,0.001985312,-0.00030543262,-0.08275836,0.2584905,9.806245,2,1683969871.8678763
-0.007927292,0.027440626,0.9993266,0.00015271631,0.00076358154,0.0009162979,-0.08275836,0.2584905,9.806245,2,1683969871.8781395
-0.007927292,0.027440626,0.9993266,0.00015271631,0.00076358154,0.0009162979,-0.0826626,0.25855562,9.806244,2,1683969871.8883598
-0.008902958,0.027440626,0.9973753,0.00015271631,0.00076358154,0.0009162979,-0.0826626,0.25855562,9.806244,2,1683969871.8986297
-0.007927292,0.025977125,0.998351,0.00015271631,0.00076358154,0.0009162979,-0.0826626,0.25855562,9.806244,2,1683969871.9140217
-0.007927292,0.025977125,0.998351,0.0013744468,0.001985312,-0.0015271631,-0.0826626,0.25855562,9.806244,2,1683969871.9242969
-0.007927292,0.025977125,0.998351,0.0013744468,0.001985312,-0.0015271631,-0.08258354,0.25854188,9.806246,2,1683969871.9345598
-0.007927292,0.025977125,0.998351,0.00015271631,-0.00045814895,-0.00030543262,-0.08258354,0.25854188,9.806246,2,1683969871.944785
-0.005549104,0.02646496,1.0003022,0.00015271631,-0.00045814895,-0.00030543262,-0.08258354,0.25854188,9.806246,2,1683969871.9499176
-0.008902958,0.025489293,0.998351,0.00015271631,-0.00045814895,-0.00030543262,-0.08258354,0.25854188,9.806246,2,1683969871.9806514
-0.008902958,0.025489293,0.998351,0.00015271631,-0.00045814895,-0.00030543262,-0.08418171,0.25926626,9.806212,2,1683969871.9857864
-0.008902958,0.025489293,0.998351,0.0013744468,0.00076358154,0.0009162979,-0.08418171,0.25926626,9.806212,2,1683969871.9960494
-0.008902958,0.025489293,0.998351,0.0013744468,0.00076358154,0.0009162979,-0.08422798,0.2593226,9.8062105,2,1683969872.0216856
-0.0064637917,0.029391957,0.9974363,0.0013744468,0.00076358154,0.0009162979,-0.08422798,0.2593226,9.8062105,2,1683969872.0268202
-0.0064637917,0.029391957,0.9974363,0.00015271631,-0.00045814895,-0.00030543262,-0.08422798,0.2593226,9.8062105,2,1683969872.0319963
-0.0064637917,0.029391957,0.9974363,0.00015271631,0.0032070426,-0.00030543262,-0.08422798,0.2593226,9.8062105,2,1683969872.0422568
-0.0064637917,0.029391957,0.9974363,0.00015271631,0.0032070426,-0.00030543262,-0.08416002,0.2593302,9.8062105,2,1683969872.0576327
-0.0075004376,0.02841629,1.0003022,0.00015271631,0.0032070426,-0.00030543262,-0.08416002,0.2593302,9.8062105,2,1683969872.062764
-0.008415125,0.02646496,0.9998144,0.00015271631,0.0032070426,-0.00030543262,-0.08416002,0.2593302,9.8062105,2,1683969872.0781107
-0.008415125,0.02646496,0.9998144,0.00015271631,0.0032070426,-0.00030543262,-0.08426589,0.25933984,9.80621,2,1683969872.0831783
-0.008415125,0.02646496,0.9998144,0.00015271631,-0.00045814895,-0.0015271631,-0.08426589,0.25933984,9.80621,2,1683969872.088305
-0.008415125,0.02646496,0.9998144,0.00015271631,-0.00045814895,-0.0015271631,-0.084309146,0.25933185,9.80621,2,1683969872.119062
-0.010427438,0.02646496,1.0007901,0.00015271631,-0.00045814895,-0.0015271631,-0.084309146,0.25933185,9.80621,2,1683969872.1241977
-0.010427438,0.02646496,1.0007901,-0.0010690142,0.004428773,-0.0015271631,-0.084309146,0.25933185,9.80621,2,1683969872.1395862
-0.008476105,0.025001459,1.0003022,-0.0010690142,0.004428773,-0.0015271631,-0.084309146,0.25933185,9.80621,2,1683969872.1446774
-0.008476105,0.025001459,1.0003022,0.00015271631,-0.00290161,0.0009162979,-0.084309146,0.25933185,9.80621,2,1683969872.1703155
-0.008476105,0.025001459,1.0003022,0.00015271631,-0.00290161,0.0009162979,-0.084426835,0.25929374,9.80621,2,1683969872.175442
-0.007927292,0.02646496,0.9984119,0.00015271631,-0.00290161,0.0009162979,-0.084426835,0.25929374,9.80621,2,1683969872.1857052
-0.007927292,0.02646496,0.9984119,0.0025961774,0.00076358154,0.0009162979,-0.084426835,0.25929374,9.80621,2,1683969872.1908367
-0.007927292,0.02646496,0.9984119,0.0025961774,0.00076358154,0.0009162979,-0.08431543,0.25936127,9.806209,2,1683969872.2112708
-0.009390792,0.027440626,0.998351,0.0025961774,0.00076358154,0.0009162979,-0.08431543,0.25936127,9.806209,2,1683969872.2215564
-0.009390792,0.027440626,0.998351,-0.0010690142,-0.0016798794,-0.00030543262,-0.08431543,0.25936127,9.806209,2,1683969872.2266893
-0.009390792,0.027440626,0.998351,-0.0010690142,-0.0016798794,-0.00030543262,-0.08445229,0.259526,9.806204,2,1683969872.2369502
-0.008902958,0.027440626,0.9993266,-0.0010690142,-0.0016798794,-0.00030543262,-0.08445229,0.259526,9.806204,2,1683969872.2523105
-0.008902958,0.027440626,0.9993266,-0.0010690142,-0.0016798794,-0.00030543262,-0.085446715,0.25971472,9.80619,2,1683969872.257438
-0.008902958,0.027440626,0.9993266,0.0025961774,-0.0041233404,-0.00030543262,-0.085446715,0.25971472,9.80619,2,1683969872.2676933
-0.008902958,0.027440626,0.9993266,0.0025961774,-0.00290161,0.0009162979,-0.085446715,0.25971472,9.80619,2,1683969872.2779157
-0.008902958,0.027440626,0.9993266,0.0025961774,-0.00290161,0.0009162979,-0.085171275,0.25982535,9.80619,2,1683969872.2984412
-0.009390792,0.02695279,0.9978631,0.0025961774,-0.00290161,0.0009162979,-0.085171275,0.25982535,9.80619,2,1683969872.3035367
-0.008963938,0.02646496,1.0007901,0.0025961774,-0.00290161,0.0009162979,-0.085171275,0.25982535,9.80619,2,1683969872.3239613
-0.008963938,0.02646496,1.0007901,0.0025961774,-0.00290161,0.0009162979,-0.08508653,0.25978565,9.8061905,2,1683969872.3290906
-0.008963938,0.02646496,1.0007901,-0.0022907446,-0.00045814895,-0.00030543262,-0.08508653,0.25978565,9.8061905,2,1683969872.334225
-0.008963938,0.02646496,1.0007901,0.0013744468,-0.00290161,0.0009162979,-0.08508653,0.25978565,9.8061905,2,1683969872.354698
-0.008963938,0.02646496,1.0007901,0.0013744468,-0.00290161,0.0009162979,-0.08517224,0.25976095,9.8061905,2,1683969872.3649578
-0.008902958,0.025489293,0.9988388,0.0013744468,-0.00290161,0.0009162979,-0.08517224,0.25976095,9.8061905,2,1683969872.3700895
-0.008902958,0.025489293,0.9988388,0.00015271631,-0.00045814895,0.0009162979,-0.08517224,0.25976095,9.8061905,2,1683969872.3854392
-0.008902958,0.02646496,0.998351,0.00015271631,-0.00045814895,0.0009162979,-0.08517224,0.25976095,9.8061905,2,1683969872.3905733
-0.008902958,0.02646496,0.998351,0.00015271631,-0.00045814895,0.0009162979,-0.08518352,0.259777,9.8061905,2,1683969872.4110377
-0.008415125,0.02695279,0.9973753,0.00015271631,-0.00045814895,0.0009162979,-0.08518352,0.259777,9.8061905,2,1683969872.4212627
-0.008415125,0.02695279,0.9973753,0.00015271631,-0.00045814895,0.0009162979,-0.085184895,0.25974187,9.806191,2,1683969872.431519
-0.008415125,0.02695279,0.9973753,0.0013744468,-0.00045814895,-0.00030543262,-0.085184895,0.25974187,9.806191,2,1683969872.4417448
-0.008415125,0.02695279,0.9973753,0.00015271631,0.004428773,-0.00030543262,-0.085184895,0.25974187,9.806191,2,1683969872.4519978
-0.009451771,0.027440626,0.9998144,0.00015271631,0.004428773,-0.00030543262,-0.085184895,0.25974187,9.806191,2,1683969872.4775999
-0.009451771,0.027440626,0.9998144,0.00015271631,0.004428773,-0.00030543262,-0.08525614,0.25984642,9.806188,2,1683969872.4827347
-0.009451771,0.027440626,0.9998144,0.00015271631,0.004428773,-0.00030543262,-0.085401185,0.25986582,9.806186,2,1683969872.4980774
-0.007927292,0.028904125,0.998351,0.00015271631,0.004428773,-0.00030543262,-0.085401185,0.25986582,9.806186,2,1683969872.5032103
-0.007927292,0.028904125,0.998351,0.00015271631,-0.0016798794,0.0009162979,-0.085401185,0.25986582,9.806186,2,1683969872.5083337
-0.0075004376,0.02646496,1.0012779,0.00015271631,-0.0016798794,0.0009162979,-0.085401185,0.25986582,9.806186,2,1683969872.513425
-0.0075004376,0.02646496,1.0012779,0.00015271631,0.0032070426,-0.0015271631,-0.085401185,0.25986582,9.806186,2,1683969872.5287824
-0.0075004376,0.02646496,1.0012779,0.00015271631,0.0032070426,-0.0015271631,-0.084989466,0.26006588,9.806185,2,1683969872.5339158
-0.0075004376,0.02646496,1.0012779,0.00015271631,0.0032070426,-0.0015271631,-0.085136,0.260104,9.806182,2,1683969872.5646467
-0.0075004376,0.02646496,1.0012779,0.0025961774,-0.0041233404,0.0009162979,-0.085136,0.260104,9.806182,2,1683969872.5697753
-0.008963938,0.027440626,1.0003022,0.0025961774,-0.0041233404,0.0009162979,-0.085136,0.260104,9.806182,2,1683969872.5749087
-0.0069516255,0.025001459,0.9993266,0.0025961774,-0.0041233404,0.0009162979,-0.085136,0.260104,9.806182,2,1683969872.5903003
-0.0069516255,0.025001459,0.9993266,0.00015271631,-0.0016798794,-0.00030543262,-0.085136,0.260104,9.806182,2,1683969872.6056087
-0.0069516255,0.025001459,0.9993266,0.00015271631,-0.0016798794,-0.00030543262,-0.08491774,0.26014608,9.806183,2,1683969872.610702
-0.0069516255,0.025001459,0.9993266,0.00015271631,-0.0016798794,-0.00030543262,-0.0849109,0.26011804,9.806184,2,1683969872.6259866
-0.0069516255,0.025001459,0.9993266,0.00015271631,-0.00045814895,-0.0015271631,-0.0849109,0.26011804,9.806184,2,1683969872.636252
-0.009878625,0.024025792,0.9993266,0.00015271631,-0.00045814895,-0.0015271631,-0.0849109,0.26011804,9.806184,2,1683969872.64647
-0.006524771,0.027440626,1.0003022,0.00015271631,-0.00045814895,-0.0015271631,-0.0849109,0.26011804,9.806184,2,1683969872.6669726
-0.006524771,0.027440626,1.0003022,0.00015271631,-0.00045814895,-0.0015271631,-0.08494992,0.26013985,9.806183,2,1683969872.67723
-0.006524771,0.027440626,1.0003022,0.0025961774,-0.00045814895,-0.00030543262,-0.08494992,0.26013985,9.806183,2,1683969872.6874812
-0.006524771,0.027440626,1.0003022,-0.0010690142,0.0032070426,-0.00030543262,-0.08494992,0.26013985,9.806183,2,1683969872.702872
-0.006524771,0.027440626,1.0003022,-0.0010690142,0.0032070426,-0.00030543262,-0.08496856,0.26030174,9.806178,2,1683969872.7079804
-0.0075004376,0.02792846,0.9998144,-0.0010690142,0.0032070426,-0.00030543262,-0.08496856,0.26030174,9.806178,2,1683969872.7181907
-0.0075004376,0.02792846,0.9998144,-0.0010690142,0.0032070426,-0.00030543262,-0.085132174,0.26023006,9.806179,2,1683969872.7386184
-0.0075004376,0.02792846,0.9998144,0.00015271631,-0.00290161,-0.00030543262,-0.085132174,0.26023006,9.806179,2,1683969872.7437527
-0.008415125,0.027440626,0.9988388,0.00015271631,-0.00290161,-0.00030543262,-0.085132174,0.26023006,9.806179,2,1683969872.7488496
-0.008415125,0.027440626,0.9988388,0.00015271631,-0.00290161,-0.00030543262,-0.08494525,0.26020482,9.806181,2,1683969872.7795541
-0.008415125,0.027440626,0.9988388,-0.0010690142,0.001985312,-0.00030543262,-0.08494525,0.26020482,9.806181,2,1683969872.7846856
-0.008415125,0.027440626,0.9988388,-0.0010690142,0.001985312,-0.00030543262,-0.08460337,0.26070368,9.806171,2,1683969872.8051589
-0.008415125,0.027440626,0.9988388,0.00015271631,0.001985312,-0.00030543262,-0.08460337,0.26070368,9.806171,2,1683969872.81539
-0.009878625,0.02792846,0.9993266,0.00015271631,0.001985312,-0.00030543262,-0.08460337,0.26070368,9.806171,2,1683969872.8204975
-0.008902958,0.02695279,0.9978631,0.00015271631,0.001985312,-0.00030543262,-0.08460337,0.26070368,9.806171,2,1683969872.825586
-0.008902958,0.02695279,0.9978631,-0.0010690142,-0.0016798794,0.0021380284,-0.08460337,0.26070368,9.806171,2,1683969872.8358066
-0.008902958,0.02695279,0.9978631,-0.0010690142,-0.0016798794,0.0021380284,-0.084772736,0.260649,9.80617,2,1683969872.8409429
-0.008415125,0.025489293,0.9993266,-0.0010690142,-0.0016798794,0.0021380284,-0.084772736,0.260649,9.80617,2,1683969872.8716378
-0.008415125,0.025489293,0.9993266,-0.0022907446,-0.00045814895,0.0021380284,-0.084772736,0.260649,9.80617,2,1683969872.881896
-0.008415125,0.025489293,0.9993266,-0.0022907446,-0.00045814895,0.0021380284,-0.084661014,0.26064175,9.806171,2,1683969872.8921487
-0.009390792,0.025001459,0.9998144,-0.0022907446,-0.00045814895,0.0021380284,-0.084661014,0.26064175,9.806171,2,1683969872.9075243
-0.009390792,0.025001459,0.9998144,-0.0022907446,-0.00045814895,0.0021380284,-0.08477732,0.2605135,9.806174,2,1683969872.9126556
-0.009390792,0.025001459,0.9998144,0.0013744468,-0.00290161,0.0009162979,-0.08477732,0.2605135,9.806174,2,1683969872.922877
-0.009390792,0.025001459,0.9998144,0.0013744468,-0.00290161,0.0009162979,-0.08477954,0.26057866,9.806172,2,1683969872.943291
-0.009390792,0.025001459,0.9998144,-0.0022907446,0.004428773,-0.00030543262,-0.08477954,0.26057866,9.806172,2,1683969872.948425
-0.008415125,0.025977125,0.9988388,-0.0022907446,0.004428773,-0.00030543262,-0.08477954,0.26057866,9.806172,2,1683969872.9586816
-0.008415125,0.025977125,0.9988388,0.0025961774,-0.00045814895,0.0021380284,-0.08477954,0.26057866,9.806172,2,1683969872.974074
-0.008415125,0.025977125,0.9988388,0.0025961774,-0.00045814895,0.0021380284,-0.08503044,0.2605071,9.806172,2,1683969872.979179
-0.008902958,0.025977125,0.9978631,0.0025961774,-0.00045814895,0.0021380284,-0.08503044,0.2605071,9.806172,2,1683969872.9894376
-0.008476105,0.025977125,1.0017658,0.0025961774,-0.00045814895,0.0021380284,-0.08503044,0.2605071,9.806172,2,1683969873.0048096
-0.008476105,0.025977125,1.0017658,0.00015271631,0.0032070426,-0.00030543262,-0.08503044,0.2605071,9.806172,2,1683969873.0201156
-0.008476105,0.025977125,1.0017658,0.00015271631,0.0032070426,-0.00030543262,-0.085027784,0.26065734,9.806169,2,1683969873.0252059
-0.008415125,0.025001459,0.9993266,0.00015271631,0.0032070426,-0.00030543262,-0.085027784,0.26065734,9.806169,2,1683969873.0404775
-0.008415125,0.025001459,0.9993266,0.00015271631,0.0032070426,-0.00030543262,-0.08509676,0.26067427,9.806167,2,1683969873.04561
-0.008476105,0.02646496,0.9998144,0.00015271631,0.0032070426,-0.00030543262,-0.08509676,0.26067427,9.806167,2,1683969873.0763016
-0.008476105,0.02646496,0.9998144,0.00015271631,0.00076358154,-0.0015271631,-0.08509676,0.26067427,9.806167,2,1683969873.0814407
-0.008476105,0.02646496,0.9998144,0.00015271631,0.00076358154,-0.0015271631,-0.085801624,0.260516,9.806166,2,1683969873.091696
-0.009939604,0.027440626,1.0007901,0.00015271631,0.00076358154,-0.0015271631,-0.085801624,0.260516,9.806166,2,1683969873.117353
-0.009939604,0.027440626,1.0007901,0.0013744468,-0.00045814895,-0.0027488936,-0.085801624,0.260516,9.806166,2,1683969873.1224449
-0.009939604,0.027440626,1.0007901,0.0013744468,-0.00045814895,-0.0027488936,-0.08572923,0.26048192,9.806167,2,1683969873.1275554
-0.009939604,0.027440626,1.0007901,0.0013744468,-0.00045814895,-0.0027488936,-0.08560992,0.2603583,9.806171,2,1683969873.1479979
-0.007927292,0.024513626,0.9998144,0.0013744468,-0.00045814895,-0.0027488936,-0.08560992,0.2603583,9.806171,2,1683969873.153088
-0.007927292,0.024513626,0.9998144,0.0013744468,0.0032070426,0.0009162979,-0.08560992,0.2603583,9.806171,2,1683969873.1582181
-0.0064637917,0.025489293,0.9993266,0.0013744468,0.0032070426,0.0009162979,-0.08560992,0.2603583,9.806171,2,1683969873.183837
-0.0064637917,0.025489293,0.9993266,0.0013744468,0.0032070426,0.0009162979,-0.085542135,0.26040202,9.80617,2,1683969873.1889694
-0.0064637917,0.025489293,0.9993266,0.00015271631,0.00076358154,0.0021380284,-0.085542135,0.26040202,9.80617,2,1683969873.1940982
-0.008415125,0.025977125,0.9998144,0.00015271631,0.00076358154,0.0021380284,-0.085542135,0.26040202,9.80617,2,1683969873.2094321
-0.008415125,0.025977125,0.9998144,0.00015271631,-0.00045814895,-0.0015271631,-0.085542135,0.26040202,9.80617,2,1683969873.214526
-0.008415125,0.025977125,0.9998144,0.00015271631,-0.00045814895,-0.0015271631,-0.08564744,0.26034233,9.806171,2,1683969873.2247646
-0.010366458,0.02646496,0.9993266,0.00015271631,-0.00045814895,-0.0015271631,-0.08564744,0.26034233,9.806171,2,1683969873.2605689
-0.010366458,0.02646496,0.9993266,0.00015271631,-0.00045814895,-0.0015271631,-0.08566065,0.26030573,9.806172,2,1683969873.2656972
-0.010366458,0.02646496,0.9993266,0.0013744468,0.00076358154,-0.00030543262,-0.08566065,0.26030573,9.806172,2,1683969873.2708316
-0.008902958,0.025489293,0.998351,0.0013744468,0.00076358154,-0.00030543262,-0.08566065,0.26030573,9.806172,2,1683969873.2862284
-0.008902958,0.025489293,0.998351,0.00015271631,0.0032070426,-0.00030543262,-0.08566065,0.26030573,9.806172,2,1683969873.2913203
-0.008902958,0.025489293,0.998351,0.00015271631,0.0032070426,-0.00030543262,-0.08568872,0.26031643,9.806171,2,1683969873.3015785
-0.008902958,0.027440626,0.998351,0.00015271631,0.0032070426,-0.00030543262,-0.08568872,0.26031643,9.806171,2,1683969873.3271332
-0.008902958,0.027440626,0.998351,0.0025961774,0.0056505036,-0.0015271631,-0.08568872,0.26031643,9.806171,2,1683969873.332224
-0.008902958,0.027440626,0.998351,0.0025961774,0.0056505036,-0.0015271631,-0.085763544,0.2602273,9.806173,2,1683969873.3373084
-0.008902958,0.027440626,0.998351,-0.0022907446,0.00076358154,-0.00030543262,-0.085763544,0.2602273,9.806173,2,1683969873.3475413
-0.008902958,0.027440626,0.998351,-0.0022907446,0.00076358154,-0.00030543262,-0.085181564,0.2608331,9.806162,2,1683969873.3578012
-0.007927292,0.02646496,0.998351,-0.0022907446,0.00076358154,-0.00030543262,-0.085181564,0.2608331,9.806162,2,1683969873.3629293
-0.007927292,0.02646496,0.998351,0.00015271631,0.001985312,-0.00030543262,-0.085181564,0.2608331,9.806162,2,1683969873.38345
-0.007927292,0.02646496,0.998351,0.00015271631,0.001985312,-0.00030543262,-0.08517175,0.26087418,9.806161,2,1683969873.3937116
-0.009390792,0.02792846,0.9973753,0.00015271631,0.001985312,-0.00030543262,-0.08517175,0.26087418,9.806161,2,1683969873.409098
-0.008415125,0.027440626,0.9993266,0.00015271631,0.001985312,-0.00030543262,-0.08517175,0.26087418,9.806161,2,1683969873.4193206
-0.008415125,0.027440626,0.9993266,0.0012217305,0.0030543262,-0.00030543262,-0.08517175,0.26087418,9.806161,2,1683969873.4346817
-0.008415125,0.027440626,0.9993266,0.0012217305,0.0030543262,-0.00030543262,-0.08521806,0.2609478,9.806159,2,1683969873.439789
-0.008963938,0.027440626,0.9998144,0.0012217305,0.0030543262,-0.00030543262,-0.08521806,0.2609478,9.806159,2,1683969873.4653962
-0.008963938,0.027440626,0.9998144,-0.0012217305,-0.0030543262,-0.00030543262,-0.08521806,0.2609478,9.806159,2,1683969873.4704924
-0.008963938,0.027440626,0.9998144,-0.0012217305,-0.0030543262,-0.00030543262,-0.085037425,0.2610347,9.806158,2,1683969873.4756207
-0.008963938,0.027440626,0.9998144,0.0012217305,-0.0018325958,0.0021380284,-0.085037425,0.2610347,9.806158,2,1683969873.4910157
-0.00798827,0.02695279,1.0012779,0.0012217305,-0.0018325958,0.0021380284,-0.085037425,0.2610347,9.806158,2,1683969873.5012393
-0.00798827,0.02695279,1.0012779,0.0012217305,-0.0018325958,0.0021380284,-0.08497885,0.2610654,9.806158,2,1683969873.5114925
-0.00798827,0.025977125,1.0007901,0.0012217305,-0.0018325958,0.0021380284,-0.08497885,0.2610654,9.806158,2,1683969873.5319684
-0.00798827,0.025977125,1.0007901,-0.0,0.004276057,-0.00030543262,-0.08497885,0.2610654,9.806158,2,1683969873.537104
-0.00798827,0.025977125,1.0007901,-0.0,0.004276057,-0.00030543262,-0.08490514,0.26106712,9.806159,2,1683969873.5524588
-0.0074394583,0.02646496,0.998351,-0.0,0.004276057,-0.00030543262,-0.08490514,0.26106712,9.806159,2,1683969873.572983
-0.0074394583,0.02646496,0.998351,-0.0,0.0030543262,-0.0027488936,-0.08490514,0.26106712,9.806159,2,1683969873.5781147
-0.0074394583,0.02646496,0.998351,-0.0,0.0030543262,-0.0027488936,-0.084996134,0.26104668,9.806158,2,1683969873.5831804
-0.0074394583,0.02646496,0.998351,-0.0,0.0030543262,-0.0027488936,-0.08510515,0.26106435,9.806156,2,1683969873.5934408
-0.0074394583,0.02646496,0.998351,-0.002443461,-0.00076358154,-0.0015271631,-0.08510515,0.26106435,9.806156,2,1683969873.6139128
-0.0069516255,0.025489293,0.9993266,-0.002443461,-0.00076358154,-0.0015271631,-0.08510515,0.26106435,9.806156,2,1683969873.6241705
-0.0069516255,0.025489293,0.9993266,-0.002443461,-0.00076358154,-0.0015271631,-0.08502941,0.26044244,9.806174,2,1683969873.6446536
-0.008902958,0.02646496,0.998351,-0.002443461,-0.00076358154,-0.0015271631,-0.08502941,0.26044244,9.806174,2,1683969873.6497483
-0.008902958,0.02646496,0.998351,-0.0,-0.0018325958,-0.0027488936,-0.08502941,0.26044244,9.806174,2,1683969873.6599948
-0.008902958,0.02646496,0.998351,-0.0,0.00061086525,-0.0027488936,-0.08502941,0.26044244,9.806174,2,1683969873.6753435
-0.008902958,0.027440626,0.9988388,-0.0,0.00061086525,-0.0027488936,-0.08502941,0.26044244,9.806174,2,1683969873.6804342
-0.008902958,0.027440626,0.9988388,-0.0,0.00061086525,-0.0027488936,-0.08487595,0.26047578,9.806174,2,1683969873.6958172
-0.008902958,0.027440626,0.9988388,-0.0012217305,0.00061086525,-0.00030543262,-0.08487595,0.26047578,9.806174,2,1683969873.7111661
-0.008902958,0.027440626,0.9988388,-0.0012217305,0.00061086525,-0.00030543262,-0.08479043,0.26053348,9.806174,2,1683969873.7162654
-0.008963938,0.027440626,0.9998144,-0.0012217305,0.00061086525,-0.00030543262,-0.08479043,0.26053348,9.806174,2,1683969873.73165
-0.008902958,0.025489293,0.998351,-0.0012217305,0.00061086525,-0.00030543262,-0.08479043,0.26053348,9.806174,2,1683969873.741912
-0.008902958,0.025489293,0.998351,-0.0012217305,0.00061086525,-0.00030543262,-0.08472758,0.26055884,9.806173,2,1683969873.757256
-0.008902958,0.025489293,0.998351,0.0012217305,0.00061086525,-0.00030543262,-0.08472758,0.26055884,9.806173,2,1683969873.7623842
-0.008902958,0.025489293,0.998351,0.0012217305,0.00061086525,-0.00030543262,-0.084819876,0.26047316,9.806175,2,1683969873.7777596
-0.008902958,0.025489293,0.998351,-0.0,0.0018325958,0.0033597588,-0.084819876,0.26047316,9.806175,2,1683969873.7879846
-0.009878625,0.02695279,0.9978631,-0.0,0.0018325958,0.0033597588,-0.084819876,0.26047316,9.806175,2,1683969873.7982495
-0.007927292,0.02695279,0.9988388,-0.0,0.0018325958,0.0033597588,-0.084819876,0.26047316,9.806175,2,1683969873.8187308
-0.007927292,0.02695279,0.9988388,-0.0012217305,-0.0030543262,-0.00030543262,-0.084819876,0.26047316,9.806175,2,1683969873.823863
-0.007927292,0.02695279,0.9988388,-0.0012217305,-0.0030543262,-0.00030543262,-0.08492367,0.2604422,9.806174,2,1683969873.8391755
-0.007927292,0.02695279,0.9988388,-0.0012217305,-0.0030543262,-0.00030543262,-0.08490322,0.2604546,9.806174,2,1683969873.8442662
-0.0059759584,0.025977125,0.9998144,-0.0012217305,-0.0030543262,-0.00030543262,-0.08490322,0.2604546,9.806174,2,1683969873.8596175
-0.0059759584,0.025977125,0.9998144,-0.0,-0.0018325958,0.0009162979,-0.08490322,0.2604546,9.806174,2,1683969873.8698707
-0.0059759584,0.025977125,0.9998144,-0.0,-0.00061086525,-0.0015271631,-0.08490322,0.2604546,9.806174,2,1683969873.8955119
-0.0059759584,0.025977125,0.9998144,-0.0,-0.00061086525,-0.0015271631,-0.084851,0.26037568,9.806177,2,1683969873.9006436
-0.007927292,0.025977125,0.9973753,-0.0,-0.00061086525,-0.0015271631,-0.084851,0.26037568,9.806177,2,1683969873.910896
-0.007927292,0.025977125,0.9973753,0.0036651916,0.0030543262,0.0009162979,-0.084851,0.26037568,9.806177,2,1683969873.9159899
-0.007927292,0.025977125,0.9973753,0.0036651916,0.0030543262,0.0009162979,-0.08369637,0.2609941,9.806171,2,1683969873.9211154
-0.007927292,0.025977125,0.9973753,-0.0,0.0018325958,-0.0015271631,-0.08369637,0.2609941,9.806171,2,1683969873.9569783
-0.007927292,0.025977125,0.9973753,-0.0,0.0018325958,-0.0015271631,-0.08381819,0.26112288,9.806167,2,1683969873.9621084
-0.008415125,0.02792846,0.9963996,-0.0,0.0018325958,-0.0015271631,-0.08381819,0.26112288,9.806167,2,1683969873.9723318
-0.008415125,0.02792846,0.9963996,-0.0,0.0018325958,-0.0015271631,-0.0837802,0.26107565,9.806168,2,1683969873.9826155
-0.008415125,0.025977125,0.998351,-0.0,0.0018325958,-0.0015271631,-0.0837802,0.26107565,9.806168,2,1683969873.987746
-0.008415125,0.025977125,0.998351,0.0012217305,-0.0018325958,-0.00030543262,-0.0837802,0.26107565,9.806168,2,1683969874.0082672
-0.008415125,0.025977125,0.998351,0.0012217305,-0.0018325958,-0.00030543262,-0.08358237,0.26115742,9.806168,2,1683969874.018474
-0.0075004376,0.025977125,1.0007901,0.0012217305,-0.0018325958,-0.00030543262,-0.08358237,0.26115742,9.806168,2,1683969874.0338619
-0.0075004376,0.025977125,1.0007901,-0.0,-0.0018325958,-0.0015271631,-0.08358237,0.26115742,9.806168,2,1683969874.0441191
-0.0075004376,0.025977125,1.0007901,0.0012217305,-0.0030543262,-0.00030543262,-0.08358237,0.26115742,9.806168,2,1683969874.059462
-0.009390792,0.02646496,0.9973753,0.0012217305,-0.0030543262,-0.00030543262,-0.08358237,0.26115742,9.806168,2,1683969874.0748203
-0.009390792,0.02646496,0.9973753,0.0012217305,-0.0030543262,-0.00030543262,-0.08348967,0.26108247,9.8061695,2,1683969874.079954
-0.009390792,0.025977125,0.998351,0.0012217305,-0.0030543262,-0.00030543262,-0.08348967,0.26108247,9.8061695,2,1683969874.0952005
-0.009390792,0.025977125,0.998351,0.0012217305,-0.0030543262,-0.00030543262,-0.083450004,0.26107138,9.806171,2,1683969874.1054585
-0.009390792,0.025977125,0.998351,0.002443461,-0.00061086525,0.0009162979,-0.083450004,0.26107138,9.806171,2,1683969874.11572
-0.009390792,0.025977125,0.998351,0.002443461,-0.00061086525,0.0009162979,-0.08366487,0.2610913,9.806169,2,1683969874.136243
-0.009390792,0.025977125,0.998351,0.002443461,-0.0030543262,0.0021380284,-0.08366487,0.2610913,9.806169,2,1683969874.1464832
-0.009939604,0.025977125,1.0022537,0.002443461,-0.0030543262,0.0021380284,-0.08366487,0.2610913,9.806169,2,1683969874.1515753
-0.009939604,0.025977125,1.0022537,0.002443461,-0.0030543262,0.0021380284,-0.083587624,0.26110488,9.806169,2,1683969874.1720347
-0.0074394583,0.025489293,0.9993266,0.002443461,-0.0030543262,0.0021380284,-0.083587624,0.26110488,9.806169,2,1683969874.1822972
-0.0074394583,0.025489293,0.9993266,0.002443461,-0.0030543262,0.0021380284,-0.08158722,0.26049694,9.806202,2,1683969874.197677
-0.0074394583,0.025489293,0.9993266,-0.0,0.0030543262,-0.00030543262,-0.08158722,0.26049694,9.806202,2,1683969874.21305
-0.009390792,0.025001459,0.998351,-0.0,0.0030543262,-0.00030543262,-0.08158722,0.26049694,9.806202,2,1683969874.2181983
-0.009390792,0.025001459,0.998351,-0.0,0.0018325958,0.0009162979,-0.08158722,0.26049694,9.806202,2,1683969874.2335536
-0.009390792,0.025001459,0.998351,-0.0,0.0018325958,0.0009162979,-0.081657045,0.26043412,9.806203,2,1683969874.238646
-0.009390792,0.025001459,0.998351,-0.0,0.0018325958,-0.0015271631,-0.081657045,0.26043412,9.806203,2,1683969874.253976
-0.008415125,0.025977125,0.9973753,-0.0,0.0018325958,-0.0015271631,-0.081657045,0.26043412,9.806203,2,1683969874.2692575
-0.008415125,0.025977125,0.9973753,-0.0,0.0018325958,-0.0015271631,-0.08160546,0.26044902,9.806203,2,1683969874.2743819
-0.008415125,0.025977125,0.9973753,0.0012217305,0.00061086525,-0.00030543262,-0.08160546,0.26044902,9.806203,2,1683969874.3000216
-0.007927292,0.02646496,0.9998144,0.0012217305,0.00061086525,-0.00030543262,-0.08160546,0.26044902,9.806203,2,1683969874.3051097
-0.007927292,0.02646496,0.9998144,0.0012217305,0.00061086525,-0.00030543262,-0.081435196,0.2605096,9.806203,2,1683969874.3153253
-0.007927292,0.02646496,0.9998144,0.0012217305,0.00061086525,-0.00030543262,-0.08162126,0.2605171,9.806202,2,1683969874.3358498
-0.008476105,0.02792846,1.0007901,0.0012217305,0.00061086525,-0.00030543262,-0.08162126,0.2605171,9.806202,2,1683969874.346109
-0.008476105,0.02792846,1.0007901,-0.0012217305,0.00061086525,-0.00030543262,-0.08162126,0.2605171,9.806202,2,1683969874.3511984
-0.010854292,0.027440626,0.9978631,-0.0012217305,0.00061086525,-0.00030543262,-0.08162126,0.2605171,9.806202,2,1683969874.3767433
-0.010854292,0.027440626,0.9978631,-0.0012217305,0.00061086525,-0.00030543262,-0.081530966,0.26048928,9.806203,2,1683969874.381874
-0.010854292,0.027440626,0.9978631,-0.0012217305,-0.0032070426,-0.00030543262,-0.081530966,0.26048928,9.806203,2,1683969874.387007
-0.010854292,0.027440626,0.9978631,0.0012217305,-0.0018325958,0.0009162979,-0.081530966,0.26048928,9.806203,2,1683969874.4024167
-0.010854292,0.027440626,0.9978631,0.0012217305,-0.0018325958,0.0009162979,-0.081345536,0.26043588,9.806206,2,1683969874.417811
-0.0069516255,0.025489293,0.998351,0.0012217305,-0.0018325958,0.0009162979,-0.081345536,0.26043588,9.806206,2,1683969874.4280667
-0.007927292,0.027440626,0.9993266,0.0012217305,-0.0018325958,0.0009162979,-0.081345536,0.26043588,9.806206,2,1683969874.4434125
-0.007927292,0.027440626,0.9993266,0.0012217305,-0.0018325958,0.0009162979,-0.081253536,0.26042753,9.806207,2,1683969874.4485443
-0.007927292,0.027440626,0.9993266,0.002443461,0.005497787,0.0021380284,-0.081253536,0.26042753,9.806207,2,1683969874.4536946
-0.008415125,0.027440626,0.9988388,0.002443461,0.005497787,0.0021380284,-0.081253536,0.26042753,9.806207,2,1683969874.4690115
-0.008415125,0.027440626,0.9988388,0.0012217305,0.00061086525,0.0009162979,-0.081253536,0.26042753,9.806207,2,1683969874.4792168
-0.008415125,0.027440626,0.9988388,0.0012217305,0.00061086525,0.0009162979,-0.081158884,0.2599913,9.806218,2,1683969874.4946141
-0.010915271,0.025977125,1.0003022,0.0012217305,0.00061086525,0.0009162979,-0.081158884,0.2599913,9.806218,2,1683969874.5151408
-0.010915271,0.025977125,1.0003022,-0.002443461,-0.00061086525,0.0009162979,-0.081158884,0.2599913,9.806218,2,1683969874.5253987
-0.010915271,0.025977125,1.0003022,-0.002443461,-0.00061086525,0.0009162979,-0.081152745,0.26005054,9.806217,2,1683969874.530528
-0.010915271,0.025977125,1.0003022,0.002443461,-0.00061086525,0.0021380284,-0.081152745,0.26005054,9.806217,2,1683969874.5407925
-0.010915271,0.025977125,1.0003022,0.002443461,-0.00061086525,0.0021380284,-0.08104585,0.25995192,9.806221,2,1683969874.5612657
-0.009939604,0.02695279,1.0012779,0.002443461,-0.00061086525,0.0021380284,-0.08104585,0.25995192,9.806221,2,1683969874.5663621
-0.008476105,0.02841629,1.0003022,0.002443461,-0.00061086525,0.0021380284,-0.08104585,0.25995192,9.806221,2,1683969874.5816836
-0.008476105,0.02841629,1.0003022,-0.002443461,-0.00061086525,-0.00030543262,-0.08104585,0.25995192,9.806221,2,1683969874.5970788
-0.008476105,0.02841629,1.0003022,-0.002443461,-0.00061086525,-0.00030543262,-0.08095611,0.26006725,9.806218,2,1683969874.6022058
-0.009878625,0.027440626,0.9973753,-0.002443461,-0.00061086525,-0.00030543262,-0.08095611,0.26006725,9.806218,2,1683969874.612426
-0.009878625,0.027440626,0.9973753,-0.0012217305,0.00061086525,-0.00030543262,-0.08095611,0.26006725,9.806218,2,1683969874.6277976
-0.009878625,0.027440626,0.9973753,-0.0012217305,0.00061086525,-0.00030543262,-0.08086139,0.25995153,9.806223,2,1683969874.6380665
-0.009878625,0.027440626,0.9973753,-0.0,0.00061086525,-0.0015271631,-0.08086139,0.25995153,9.806223,2,1683969874.6534584
-0.007927292,0.025977125,0.9964606,-0.0,0.00061086525,-0.0015271631,-0.08086139,0.25995153,9.806223,2,1683969874.6636393
-0.007927292,0.025977125,0.9964606,-0.0,0.00061086525,-0.0015271631,-0.080859795,0.25984564,9.806226,2,1683969874.67388
-0.007927292,0.025977125,0.9964606,0.002443461,-0.004276057,-0.00030543262,-0.080859795,0.25984564,9.806226,2,1683969874.6841311
-0.008902958,0.027440626,0.9978631,0.002443461,-0.004276057,-0.00030543262,-0.080859795,0.25984564,9.806226,2,1683969874.68926
-0.008902958,0.027440626,0.9978631,0.002443461,-0.004276057,-0.00030543262,-0.08094691,0.2598626,9.806224,2,1683969874.6943932
-0.010366458,0.025489293,0.9993266,0.002443461,-0.004276057,-0.00030543262,-0.08094691,0.2598626,9.806224,2,1683969874.7251306
-0.010366458,0.025489293,0.9993266,-0.0,0.00061086525,-0.0015271631,-0.08094691,0.2598626,9.806224,2,1683969874.7302632
-0.009878625,0.025977125,0.998351,-0.0,0.00061086525,-0.0015271631,-0.08094691,0.2598626,9.806224,2,1683969874.7558665
-0.009878625,0.025977125,0.998351,-0.0,0.00061086525,-0.0015271631,-0.08224518,0.25941676,9.806225,2,1683969874.7609625
-0.009878625,0.025977125,0.998351,-0.0012217305,0.00061086525,-0.0015271631,-0.08224518,0.25941676,9.806225,2,1683969874.7812953
-0.007927292,0.027440626,0.998351,-0.0012217305,0.00061086525,-0.0015271631,-0.08224518,0.25941676,9.806225,2,1683969874.7864344
-0.007927292,0.027440626,0.998351,-0.0012217305,0.00061086525,-0.0015271631,-0.08221582,0.259526,9.806223,2,1683969874.7915213
-0.007927292,0.027440626,0.998351,-0.0012217305,0.00061086525,-0.0015271631,-0.082179144,0.25952628,9.806223,2,1683969874.827336
-0.0069516255,0.02646496,0.9998144,-0.0012217305,0.00061086525,-0.0015271631,-0.082179144,0.25952628,9.806223,2,1683969874.8324633
-0.0069516255,0.02646496,0.9998144,-0.0,-0.00061086525,-0.00030543262,-0.082179144,0.25952628,9.806223,2,1683969874.8427289
-0.0069516255,0.02646496,0.9998144,0.0012217305,0.0018325958,-0.00030543262,-0.082179144,0.25952628,9.806223,2,1683969874.8580737
-0.0069516255,0.02646496,0.9998144,0.0012217305,0.0018325958,-0.00030543262,-0.082131036,0.25962317,9.806221,2,1683969874.863139
-0.010366458,0.02792846,0.9978631,0.0012217305,0.0018325958,-0.00030543262,-0.082131036,0.25962317,9.806221,2,1683969874.8784373
-0.010366458,0.02792846,0.9978631,-0.0,0.00061086525,-0.00030543262,-0.082131036,0.25962317,9.806221,2,1683969874.8886735
-0.0074394583,0.02646496,0.9998144,-0.0,0.00061086525,-0.00030543262,-0.082131036,0.25962317,9.806221,2,1683969874.8938076
-0.0074394583,0.02646496,0.9998144,-0.0,0.00061086525,-0.00030543262,-0.08221518,0.259699,9.806218,2,1683969874.8989828
-0.007927292,0.02646496,0.9998144,-0.0,0.00061086525,-0.00030543262,-0.08221518,0.259699,9.806218,2,1683969874.904113
-0.007927292,0.02646496,0.9998144,-0.0,0.00061086525,-0.00030543262,-0.08231926,0.25976723,9.806215,2,1683969874.9194958
-0.007927292,0.02646496,0.9998144,0.0012217305,0.00061086525,-0.00030543262,-0.08231926,0.25976723,9.806215,2,1683969874.9246273
-0.008415125,0.025489293,0.9978631,0.0012217305,0.00061086525,-0.00030543262,-0.08231926,0.25976723,9.806215,2,1683969874.9451456
-0.008415125,0.025489293,0.9978631,-0.002443461,0.0030543262,0.0021380284,-0.08231926,0.25976723,9.806215,2,1683969874.9502764
-0.008415125,0.025489293,0.9978631,-0.002443461,0.0030543262,0.0021380284,-0.08261815,0.25975493,9.806213,2,1683969874.9656358
-0.008415125,0.025489293,0.9978631,-0.0,-0.004428773,-0.0015271631,-0.08261815,0.25975493,9.806213,2,1683969874.9809196
-0.008415125,0.02646496,0.9988388,-0.0,-0.004428773,-0.0015271631,-0.08261815,0.25975493,9.806213,2,1683969875.0014234
-0.008415125,0.02646496,0.9988388,0.0,-0.0015271631,-0.0015271631,-0.08261815,0.25975493,9.806213,2,1683969875.00656
-0.008415125,0.02646496,0.9988388,0.0,-0.0015271631,-0.0015271631,-0.08317088,0.2587807,9.806234,2,1683969875.0219498
-0.007927292,0.025977125,0.998351,0.0,-0.0015271631,-0.0015271631,-0.08317088,0.2587807,9.806234,2,1683969875.0475576
-0.007927292,0.025977125,0.998351,0.0,-0.0015271631,-0.0015271631,-0.08306824,0.25879166,9.806234,2,1683969875.052683
-0.007927292,0.025977125,0.998351,0.0012217305,-0.0015271631,0.0021380284,-0.08306824,0.25879166,9.806234,2,1683969875.062903
-0.007927292,0.02841629,0.9973753,0.0012217305,-0.0015271631,0.0021380284,-0.08306824,0.25879166,9.806234,2,1683969875.0781834
-0.007927292,0.02841629,0.9973753,0.0012217305,0.0021380284,-0.0027488936,-0.08306824,0.25879166,9.806234,2,1683969875.0832741
-0.007927292,0.02841629,0.9973753,0.0012217305,0.0021380284,-0.0027488936,-0.08305452,0.2587413,9.806236,2,1683969875.098659
-0.007927292,0.02841629,0.9973753,0.0012217305,-0.00030543262,0.0009162979,-0.08305452,0.2587413,9.806236,2,1683969875.103789
-0.007927292,0.02841629,0.9973753,0.0012217305,-0.00030543262,0.0009162979,-0.08324875,0.25882354,9.8062315,2,1683969875.108922
-0.009390792,0.02646496,0.9993266,0.0012217305,-0.00030543262,0.0009162979,-0.08324875,0.25882354,9.8062315,2,1683969875.1191812
-0.007927292,0.025001459,0.9998144,0.0,-0.00030543262,-0.0015271631,-0.083271354,0.25888366,9.806231,2,1683969875.1397235
-0.007927292,0.024513626,0.998351,0.0,0.0009162979,-0.0027488936,-0.08333003,0.258687,9.806235,2,1683969875.1500251
-0.009390792,0.02646496,0.9988388,0.0,-0.0027488936,-0.0015271631,-0.08333003,0.258687,9.806235,2,1683969875.1552036
-0.009390792,0.02646496,0.9988388,0.0,-0.0027488936,-0.0015271631,-0.083539225,0.25852698,9.806238,2,1683969875.1603262
-0.009390792,0.02646496,0.9988388,-0.0012217305,0.0009162979,0.0009162979,-0.083539225,0.25852698,9.806238,2,1683969875.175642
-0.009390792,0.02646496,0.9988388,-0.0012217305,0.0009162979,0.0009162979,-0.08313711,0.25806427,9.8062525,2,1683969875.2011695
-0.008415125,0.025489293,0.9993266,-0.0012217305,0.0009162979,0.0009162979,-0.08313711,0.25806427,9.8062525,2,1683969875.206299
-0.008415125,0.025489293,0.9993266,0.0012217305,0.0009162979,0.0021380284,-0.08313711,0.25806427,9.8062525,2,1683969875.2114418
-0.008415125,0.025489293,0.9993266,0.0012217305,0.0009162979,-0.00030543262,-0.08313711,0.25806427,9.8062525,2,1683969875.237039
-0.0074394583,0.02792846,0.998351,0.0012217305,0.0009162979,-0.00030543262,-0.08313711,0.25806427,9.8062525,2,1683969875.2421775
-0.0074394583,0.02792846,0.998351,0.0012217305,0.0009162979,-0.00030543262,-0.08332374,0.2580482,9.806252,2,1683969875.2523973
-0.0074394583,0.02792846,0.998351,0.0,-0.0027488936,-0.00030543262,-0.08332374,0.2580482,9.806252,2,1683969875.2626503
-0.008415125,0.025977125,0.9978631,0.0,-0.0027488936,-0.00030543262,-0.08332374,0.2580482,9.806252,2,1683969875.2728739
-0.008415125,0.025977125,0.9978631,0.0,-0.0027488936,-0.00030543262,-0.083300166,0.25815344,9.80625,2,1683969875.2779639
-0.008415125,0.025977125,0.9978631,0.0,-0.00030543262,-0.0015271631,-0.083300166,0.25815344,9.80625,2,1683969875.2932754
-0.008415125,0.025977125,0.9978631,0.0,-0.00030543262,-0.0015271631,-0.083340645,0.25814775,9.806249,2,1683969875.3086593
-0.007927292,0.025489293,0.9973753,0.0,-0.00030543262,-0.0015271631,-0.083340645,0.25814775,9.806249,2,1683969875.3137848
-0.007927292,0.025489293,0.9973753,0.0012217305,-0.010231993,-0.00015271631,-0.083340645,0.25814775,9.806249,2,1683969875.344555
-0.007927292,0.025489293,0.9973753,0.0012217305,-0.010231993,-0.00015271631,-0.08321192,0.25804728,9.8062525,2,1683969875.3496854
-0.0074394583,0.02695279,0.9993266,0.0012217305,-0.010231993,-0.00015271631,-0.08321192,0.25804728,9.8062525,2,1683969875.3599415
-0.0074394583,0.02695279,0.9993266,0.0,0.0033597588,-0.0015271631,-0.08321192,0.25804728,9.8062525,2,1683969875.3702078
-0.0074394583,0.02695279,0.9993266,0.0,0.0033597588,-0.0015271631,-0.083219364,0.25815147,9.806251,2,1683969875.3753183
-0.009451771,0.025977125,0.9998144,0.0,0.0033597588,-0.0015271631,-0.083219364,0.25815147,9.806251,2,1683969875.3804107
-0.009451771,0.025977125,0.9998144,0.0,0.0033597588,-0.0015271631,-0.08338254,0.25815624,9.806249,2,1683969875.4161892
-0.009451771,0.025977125,0.9998144,0.002443461,-0.0015271631,0.0009162979,-0.08338254,0.25815624,9.806249,2,1683969875.421321
-0.008415125,0.02646496,0.9978631,0.002443461,-0.0015271631,0.0009162979,-0.08338254,0.25815624,9.806249,2,1683969875.4315813
-0.008415125,0.02646496,0.9978631,0.002443461,-0.0015271631,0.0009162979,-0.08324272,0.25819975,9.806249,2,1683969875.4367123
-0.009390792,0.025489293,0.9993266,0.002443461,-0.0015271631,0.0009162979,-0.08324272,0.25819975,9.806249,2,1683969875.457192
-0.009390792,0.025489293,0.9993266,0.0,-0.0015271631,-0.0015271631,-0.08324272,0.25819975,9.806249,2,1683969875.462283
-0.009390792,0.025489293,0.9993266,0.0,-0.0015271631,-0.0015271631,-0.08408335,0.2590344,9.80622,2,1683969875.4673755
-0.009390792,0.025489293,0.9993266,0.0,0.0009162979,0.0009162979,-0.08408335,0.2590344,9.80622,2,1683969875.4776149
-0.009939604,0.02695279,1.0017658,0.0,0.0009162979,0.0009162979,-0.08408335,0.2590344,9.80622,2,1683969875.4981313
-0.009939604,0.02695279,1.0017658,0.0,0.0009162979,0.0009162979,-0.08398357,0.2589827,9.806222,2,1683969875.503193
-0.009939604,0.02695279,1.0017658,0.0,-0.0015271631,0.0021380284,-0.08398357,0.2589827,9.806222,2,1683969875.523717
-0.007927292,0.027440626,0.998351,0.0,-0.0015271631,0.0021380284,-0.08398357,0.2589827,9.806222,2,1683969875.5288491
-0.007927292,0.027440626,0.998351,0.0,-0.0015271631,0.0021380284,-0.084004484,0.25883391,9.806226,2,1683969875.5391183
-0.007927292,0.027440626,0.998351,0.0012217305,0.00580322,0.0009162979,-0.084004484,0.25883391,9.806226,2,1683969875.5493839
-0.007927292,0.027440626,0.998351,0.0012217305,0.00580322,0.0009162979,-0.08387515,0.25877717,9.806229,2,1683969875.564761
-0.008415125,0.02646496,0.9978631,0.0012217305,0.00580322,0.0009162979,-0.08387515,0.25877717,9.806229,2,1683969875.5698972
-0.008415125,0.02646496,0.9978631,0.0012217305,0.00580322,0.0009162979,-0.0839838,0.25888363,9.806224,2,1683969875.5904248
-0.008415125,0.02646496,0.9978631,-0.0012217305,0.004581489,-0.0015271631,-0.0839838,0.25888363,9.806224,2,1683969875.6057842
-0.007927292,0.025489293,0.998351,-0.0012217305,0.004581489,-0.0015271631,-0.0839838,0.25888363,9.806224,2,1683969875.6160343
-0.007927292,0.025489293,0.998351,0.0,0.004581489,0.0021380284,-0.0839838,0.25888363,9.806224,2,1683969875.6211636
-0.009390792,0.02646496,0.9988388,0.0,0.004581489,0.0021380284,-0.0839838,0.25888363,9.806224,2,1683969875.6365476
-0.009390792,0.02646496,0.9988388,0.0,0.004581489,0.0021380284,-0.08399521,0.25882888,9.806226,2,1683969875.6519415
-0.009390792,0.02646496,0.9988388,-0.0012217305,-0.00030543262,-0.00030543262,-0.08399521,0.25882888,9.806226,2,1683969875.6724172
-0.008963938,0.025977125,1.0007901,-0.0012217305,-0.00030543262,-0.00030543262,-0.08399521,0.25882888,9.806226,2,1683969875.677549
-0.008963938,0.025977125,1.0007901,-0.0012217305,-0.00030543262,-0.00030543262,-0.08432217,0.2588726,9.806221,2,1683969875.6878095
-0.008963938,0.025977125,1.0007901,-0.002443461,-0.00045814895,-0.0015271631,-0.08432217,0.2588726,9.806221,2,1683969875.7134485
-0.008963938,0.025977125,1.0007901,-0.002443461,-0.00045814895,-0.0015271631,-0.084945396,0.2580852,9.806237,2,1683969875.723681
-0.008415125,0.02695279,0.9978631,-0.002443461,-0.00045814895,-0.0015271631,-0.084945396,0.2580852,9.806237,2,1683969875.7288117
-0.008415125,0.02695279,0.9978631,0.0036651916,-0.00030543262,-0.00030543262,-0.084945396,0.2580852,9.806237,2,1683969875.7339394
-0.005061271,0.029879792,1.0022537,0.0036651916,-0.00030543262,-0.00030543262,-0.084945396,0.2580852,9.806237,2,1683969875.7544627
-0.005061271,0.029879792,1.0022537,0.0036651916,-0.00030543262,-0.00030543262,-0.0848925,0.2585452,9.806226,2,1683969875.7647095
-0.005061271,0.029879792,1.0022537,0.012370021,-0.010079277,0.0010690142,-0.0848925,0.2585452,9.806226,2,1683969875.780052
-0.005061271,0.029879792,1.0022537,0.004886922,-0.005192355,0.0022907446,-0.0848925,0.2585452,9.806226,2,1683969875.8005364
-0.005061271,0.029879792,1.0022537,0.004886922,-0.005192355,0.0022907446,-0.08427766,0.25930154,9.8062105,2,1683969875.8056288
