acc_x,acc_y,acc_z,gyr_x,gyr_y,gyr_z,grav_x,grav_y,grav_z,label,timestamp
-0.007927292,0.02646496,0.9984119,-0.0013744468,-0.00045814895,-0.00030543262,-0.08677806,0.25799823,9.806223,2,1683969852.7636588
-0.007927292,0.02646496,0.9984119,-0.00015271631,0.0032070426,-0.00030543262,-0.08677806,0.25799823,9.806223,2,1683969852.860112
-0.008415125,0.025977125,0.9988997,-0.00015271631,0.0032070426,-0.00030543262,-0.08679807,0.25788343,9.806226,2,1683969852.865237
-0.0070126047,0.025001459,1.0008512,-0.00015271631,0.0032070426,-0.00030543262,-0.08679807,0.25788343,9.806226,2,1683969852.870308
-0.0070126047,0.025001459,1.0008512,-0.00015271631,0.001985312,-0.003970624,-0.08679807,0.25788343,9.806226,2,1683969852.88556
-0.0070126047,0.025001459,1.0008512,-0.00015271631,0.001985312,-0.003970624,-0.08681358,0.2578224,9.806228,2,1683969852.8906398
-0.0070126047,0.025001459,1.0008512,0.0010690142,0.00076358154,0.0021380284,-0.08681358,0.2578224,9.806228,2,1683969852.9058785
-0.007927292,0.02646496,0.9974363,0.0010690142,0.00076358154,0.0021380284,-0.08681358,0.2578224,9.806228,2,1683969852.9109602
-0.007927292,0.02646496,0.9974363,0.0010690142,0.00076358154,0.0021380284,-0.086766616,0.2577934,9.806229,2,1683969852.9160397
-0.007927292,0.025489293,0.9974363,0.0010690142,0.00076358154,0.0021380284,-0.086766616,0.2577934,9.806229,2,1683969852.9464962
-0.007927292,0.025489293,0.9974363,-0.0013744468,-0.00290161,0.0009162979,-0.086766616,0.2577934,9.806229,2,1683969852.9515748
-0.007927292,0.025489293,0.9974363,-0.0013744468,-0.00290161,0.0009162979,-0.086655326,0.25774607,9.8062315,2,1683969852.96174
-0.008902958,0.02646496,0.9978631,-0.0013744468,-0.00290161,0.0009162979,-0.086655326,0.25774607,9.8062315,2,1683969852.9769723
-0.008902958,0.02646496,0.9978631,-0.0013744468,-0.00290161,0.0009162979,-0.08660068,0.25766817,9.806233,2,1683969852.992225
-0.008902958,0.02646496,0.9978631,-0.0013744468,-0.00045814895,-0.00030543262,-0.08660068,0.25766817,9.806233,2,1683969852.9973075
-0.008902958,0.02646496,0.9978631,0.0010690142,-0.00290161,-0.0015271631,-0.08660068,0.25766817,9.806233,2,1683969853.0074623
-0.008902958,0.02646496,0.9978631,0.0010690142,-0.00290161,-0.0015271631,-0.08658579,0.257616,9.806234,2,1683969853.0176208
-0.010854292,0.025489293,0.9988388,0.0010690142,-0.00290161,-0.0015271631,-0.08658579,0.257616,9.806234,2,1683969853.0277793
-0.010854292,0.025489293,0.9988388,0.0010690142,-0.00290161,-0.0015271631,-0.086585335,0.2577607,9.8062315,2,1683969853.0531602
-0.008902958,0.025001459,0.9988388,0.0010690142,-0.00290161,-0.0015271631,-0.086585335,0.2577607,9.8062315,2,1683969853.058245
-0.008902958,0.025001459,0.9988388,-0.0013744468,-0.00045814895,-0.00030543262,-0.086585335,0.2577607,9.8062315,2,1683969853.0633235
-0.008902958,0.025001459,0.9988388,-0.0038179078,-0.00045814895,0.0021380284,-0.086585335,0.2577607,9.8062315,2,1683969853.0989056
-0.008902958,0.025001459,0.9988388,-0.0038179078,-0.00045814895,0.0021380284,-0.08654454,0.25765127,9.806234,2,1683969853.1039872
-0.009390792,0.02695279,0.9993266,-0.0038179078,-0.00045814895,0.0021380284,-0.08654454,0.25765127,9.806234,2,1683969853.1090677
-0.009390792,0.024513626,0.9998144,-0.0038179078,-0.00045814895,0.0021380284,-0.08654454,0.25765127,9.806234,2,1683969853.1344588
-0.009390792,0.024513626,0.9998144,0.0010690142,-0.0016798794,-0.00030543262,-0.08654454,0.25765127,9.806234,2,1683969853.139537
-0.009390792,0.024513626,0.9998144,0.0010690142,-0.0016798794,-0.00030543262,-0.08654151,0.2574395,9.80624,2,1683969853.1446168
-0.009390792,0.024513626,0.9998144,0.0022907446,0.00076358154,-0.00030543262,-0.08654151,0.2574395,9.80624,2,1683969853.1598465
-0.009390792,0.024513626,0.9998144,0.0022907446,0.00076358154,-0.00030543262,-0.08655037,0.2574856,9.806239,2,1683969853.164926
-0.008902958,0.025977125,0.9978631,0.0022907446,0.00076358154,-0.00030543262,-0.08655037,0.2574856,9.806239,2,1683969853.1750808
-0.008902958,0.025977125,0.9978631,0.0022907446,0.00076358154,-0.00030543262,-0.08650289,0.25760293,9.806236,2,1683969853.200472
-0.008902958,0.025977125,0.9978631,0.0015271631,0.00290161,-0.0015271631,-0.08650289,0.25760293,9.806236,2,1683969853.2106955
-0.0064637917,0.02695279,0.9993266,0.0015271631,0.00290161,-0.0015271631,-0.08650289,0.25760293,9.806236,2,1683969853.215774
-0.0064637917,0.02695279,0.9993266,0.0015271631,0.00290161,-0.0015271631,-0.08648531,0.25757754,9.806236,2,1683969853.2208579
-0.0064637917,0.02695279,0.9993266,-0.0009162979,0.0016798794,0.0021380284,-0.08648531,0.25757754,9.806236,2,1683969853.2259336
-0.007927292,0.02841629,0.9988388,-0.0009162979,0.0016798794,0.0021380284,-0.08648531,0.25757754,9.806236,2,1683969853.2360885
-0.0075004376,0.02695279,1.0012779,-0.0009162979,0.0016798794,0.0021380284,-0.08648531,0.25757754,9.806236,2,1683969853.276699
-0.0075004376,0.02695279,1.0012779,-0.0021380284,-0.0009162979,-0.00030543262,-0.08648531,0.25757754,9.806236,2,1683969853.2817798
-0.0075004376,0.02695279,1.0012779,-0.0021380284,-0.0009162979,-0.00030543262,-0.08645182,0.25762656,9.806236,2,1683969853.2868621
-0.00798827,0.025977125,1.0003022,-0.0021380284,-0.0009162979,-0.00030543262,-0.08645182,0.25762656,9.806236,2,1683969853.3071806
-0.00798827,0.025977125,1.0003022,-0.0009162979,-0.001985312,0.0009162979,-0.08645182,0.25762656,9.806236,2,1683969853.317334
-0.00798827,0.025977125,1.0003022,-0.0009162979,-0.001985312,0.0009162979,-0.08649655,0.2575817,9.806236,2,1683969853.322415
-0.00798827,0.025977125,1.0003022,-0.0009162979,-0.001985312,0.0009162979,-0.08638547,0.25760236,9.806237,2,1683969853.337647
-0.00798827,0.025977125,1.0003022,0.0015271631,0.00045814895,0.0009162979,-0.08638547,0.25760236,9.806237,2,1683969853.3427224
-0.008902958,0.027440626,0.9974363,0.0015271631,0.00045814895,0.0009162979,-0.08638547,0.25760236,9.806237,2,1683969853.3478029
-0.008902958,0.027440626,0.9974363,0.0015271631,-0.001985312,0.0009162979,-0.08638547,0.25760236,9.806237,2,1683969853.3630276
-0.008415125,0.02792846,0.9993266,0.0015271631,-0.001985312,0.0009162979,-0.08638547,0.25760236,9.806237,2,1683969853.3681102
-0.008415125,0.02792846,0.9993266,0.0015271631,-0.001985312,0.0009162979,-0.086362176,0.25768995,9.806235,2,1683969853.378276
-0.008415125,0.02792846,0.9993266,-0.0021380284,-0.0021380284,0.0009162979,-0.086362176,0.25768995,9.806235,2,1683969853.4036589
-0.008415125,0.02792846,0.9993266,-0.0021380284,-0.0021380284,0.0009162979,-0.08631086,0.25778684,9.806233,2,1683969853.4138114
-0.010427438,0.027440626,0.9998144,-0.0021380284,-0.0021380284,0.0009162979,-0.08631086,0.25778684,9.806233,2,1683969853.4239686
-0.010427438,0.027440626,0.9998144,-0.0021380284,-0.0021380284,0.0009162979,-0.08625374,0.25770542,9.806235,2,1683969853.4493563
-0.010427438,0.027440626,0.9998144,0.00030543262,-0.004428773,-0.00030543262,-0.08625374,0.25770542,9.806235,2,1683969853.4595137
-0.007927292,0.024513626,0.99938756,0.00030543262,-0.004428773,-0.00030543262,-0.08625374,0.25770542,9.806235,2,1683969853.4645905
-0.008415125,0.025977125,0.9964606,0.00030543262,-0.004428773,-0.00030543262,-0.08625374,0.25770542,9.806235,2,1683969853.47983
-0.008415125,0.025977125,0.9964606,0.00030543262,-0.004428773,-0.00030543262,-0.0859553,0.2577917,9.806235,2,1683969853.484914
-0.008415125,0.025977125,0.9964606,0.00030543262,-0.001985312,0.0021380284,-0.0859553,0.2577917,9.806235,2,1683969853.5001676
-0.008415125,0.025001459,0.9984119,0.00030543262,-0.001985312,0.0021380284,-0.0859553,0.2577917,9.806235,2,1683969853.5204844
-0.008415125,0.025001459,0.9984119,0.00030543262,-0.001985312,0.0021380284,-0.08582795,0.25775608,9.806238,2,1683969853.5255651
-0.008415125,0.025001459,0.9984119,0.00030543262,-0.00076358154,-0.00030543262,-0.08582795,0.25775608,9.806238,2,1683969853.5357237
-0.008415125,0.025001459,0.9984119,0.00030543262,-0.00076358154,-0.00030543262,-0.085887864,0.25775802,9.806237,2,1683969853.5560334
-0.008902958,0.02646496,0.9969484,0.00030543262,-0.00076358154,-0.00030543262,-0.085887864,0.25775802,9.806237,2,1683969853.5611165
-0.008902958,0.02646496,0.9969484,0.0015271631,-0.004428773,0.0021380284,-0.085887864,0.25775802,9.806237,2,1683969853.5712683
-0.008902958,0.02646496,0.9969484,0.0015271631,-0.004428773,0.0021380284,-0.085561104,0.25795022,9.806235,2,1683969853.5915945
-0.009451771,0.025001459,1.0012779,0.0015271631,-0.004428773,0.0021380284,-0.085561104,0.25795022,9.806235,2,1683969853.5966704
-0.009451771,0.025001459,1.0012779,0.0015271631,0.00045814895,0.0009162979,-0.085561104,0.25795022,9.806235,2,1683969853.606824
-0.0069516255,0.025489293,0.9974363,0.0015271631,0.00045814895,0.0009162979,-0.085561104,0.25795022,9.806235,2,1683969853.6220884
-0.0069516255,0.025489293,0.9974363,0.0015271631,0.00045814895,0.0009162979,-0.08551122,0.25805417,9.806232,2,1683969853.6271179
-0.0069516255,0.025489293,0.9974363,0.003970624,0.00045814895,-0.00030543262,-0.08551122,0.25805417,9.806232,2,1683969853.6321995
-0.0069516255,0.025489293,0.9974363,0.003970624,0.00045814895,-0.00030543262,-0.085586496,0.2582745,9.806227,2,1683969853.6677299
-0.0069516255,0.025489293,0.9974363,0.0027488936,-0.00076358154,0.0021380284,-0.085586496,0.2582745,9.806227,2,1683969853.6728268
-0.008476105,0.02695279,1.0003022,0.0027488936,-0.00076358154,0.0021380284,-0.085586496,0.2582745,9.806227,2,1683969853.6779158
-0.008476105,0.02695279,1.0003022,0.00030543262,0.00045814895,-0.00030543262,-0.085586496,0.2582745,9.806227,2,1683969853.6829998
-0.007927292,0.025977125,0.9979241,0.00030543262,0.00045814895,-0.00030543262,-0.085586496,0.2582745,9.806227,2,1683969853.6931605
-0.007927292,0.025977125,0.9979241,0.00030543262,0.00045814895,-0.00030543262,-0.08544646,0.2584477,9.806223,2,1683969853.7135348
-0.007927292,0.025977125,0.9979241,0.00030543262,-0.0033597588,-0.0027488936,-0.08544646,0.2584477,9.806223,2,1683969853.7338393
-0.007927292,0.025977125,0.9979241,0.00030543262,-0.0033597588,-0.0027488936,-0.08533308,0.25846258,9.806224,2,1683969853.7389202
-0.009390792,0.02841629,0.9979241,0.00030543262,-0.0033597588,-0.0027488936,-0.08533308,0.25846258,9.806224,2,1683969853.7440007
-0.0064637917,0.02841629,0.9984119,0.00030543262,-0.0033597588,-0.0027488936,-0.08533308,0.25846258,9.806224,2,1683969853.7541535
-0.0064637917,0.02841629,0.9984119,0.0027488936,-0.00076358154,-0.00030543262,-0.08533308,0.25846258,9.806224,2,1683969853.7643137
-0.0064637917,0.02841629,0.9984119,0.0027488936,-0.00076358154,-0.00030543262,-0.08513097,0.2584795,9.806225,2,1683969853.774473
-0.0069516255,0.02695279,0.9984119,0.0027488936,-0.00076358154,-0.00030543262,-0.08513097,0.2584795,9.806225,2,1683969853.7998757
-0.0069516255,0.02695279,0.9984119,0.00030543262,-0.001985312,-0.00030543262,-0.08513097,0.2584795,9.806225,2,1683969853.8049557
-0.0069516255,0.02695279,0.9984119,0.00030543262,-0.001985312,-0.00030543262,-0.08493713,0.25867814,9.806221,2,1683969853.8202014
-0.0069516255,0.02695279,0.9984119,0.00030543262,-0.00076358154,-0.00030543262,-0.08493713,0.25867814,9.806221,2,1683969853.8252769
-0.0069516255,0.02695279,0.9984119,0.00030543262,-0.00076358154,-0.00030543262,-0.08504395,0.2587716,9.806218,2,1683969853.8303561
-0.009939604,0.02841629,1.0007901,0.00030543262,-0.00076358154,-0.00030543262,-0.08504395,0.2587716,9.806218,2,1683969853.8506646
-0.008476105,0.02695279,1.0007901,0.00030543262,-0.00076358154,-0.00030543262,-0.08504395,0.2587716,9.806218,2,1683969853.8760958
-0.008476105,0.02695279,1.0007901,0.00030543262,-0.00076358154,-0.00030543262,-0.08502561,0.25893745,9.806213,2,1683969853.8811917
-0.008476105,0.02695279,1.0007901,-0.0021380284,0.0016798794,0.0021380284,-0.08502561,0.25893745,9.806213,2,1683969853.9016042
-0.008476105,0.02695279,1.0007901,-0.0021380284,0.0016798794,0.0021380284,-0.085090585,0.25890622,9.806214,2,1683969853.9067347
-0.009390792,0.025489293,0.9974363,-0.0021380284,0.0016798794,0.0021380284,-0.085090585,0.25890622,9.806214,2,1683969853.911867
-0.009390792,0.025489293,0.9974363,0.00030543262,-0.00076358154,-0.00030543262,-0.085090585,0.25890622,9.806214,2,1683969853.93232
-0.009390792,0.025489293,0.9974363,0.00030543262,-0.00076358154,-0.00030543262,-0.084939875,0.25870204,9.806221,2,1683969853.9374492
-0.0074394583,0.025489293,0.9984119,0.00030543262,-0.00076358154,-0.00030543262,-0.084939875,0.25870204,9.806221,2,1683969853.942579
-0.007927292,0.02646496,0.9979241,0.00030543262,-0.00076358154,-0.00030543262,-0.084939875,0.25870204,9.806221,2,1683969853.973332
-0.007927292,0.02646496,0.9979241,0.00030543262,-0.00076358154,-0.00030543262,-0.084984146,0.25865474,9.806222,2,1683969853.9835184
-0.007927292,0.02646496,0.9979241,0.0015271631,0.00045814895,0.0009162979,-0.084984146,0.25865474,9.806222,2,1683969853.9886415
-0.007927292,0.024513626,0.99938756,0.0015271631,0.00045814895,0.0009162979,-0.084984146,0.25865474,9.806222,2,1683969853.9988885
-0.007927292,0.024513626,0.99938756,-0.0009162979,-0.004581489,-0.00030543262,-0.084984146,0.25865474,9.806222,2,1683969854.0040212
-0.007927292,0.024513626,0.99938756,-0.0009162979,-0.004581489,-0.00030543262,-0.08513153,0.25875425,9.806218,2,1683969854.0193875
-0.008476105,0.02646496,1.0003633,-0.0009162979,-0.004581489,-0.00030543262,-0.08513153,0.25875425,9.806218,2,1683969854.0399065
-0.008476105,0.02646496,1.0003633,-0.0009162979,-0.004581489,-0.00030543262,-0.08498331,0.25868806,9.806221,2,1683969854.050162
-0.008415125,0.02695279,0.9984119,-0.0009162979,-0.004581489,-0.00030543262,-0.08498331,0.25868806,9.806221,2,1683969854.0552576
-0.008415125,0.02695279,0.9984119,-0.0009162979,-0.004581489,-0.00030543262,-0.08406504,0.2592647,9.806213,2,1683969854.0706472
-0.008415125,0.02695279,0.9984119,0.0015271631,-0.001985312,0.0009162979,-0.08406504,0.2592647,9.806213,2,1683969854.0808446
-0.00798827,0.02841629,1.0003633,0.0015271631,-0.001985312,0.0009162979,-0.08406504,0.2592647,9.806213,2,1683969854.0910366
-0.00798827,0.02841629,1.0003633,0.00030543262,0.00045814895,-0.0015271631,-0.08406504,0.2592647,9.806213,2,1683969854.0961666
-0.00798827,0.02841629,1.0003633,0.00030543262,0.00045814895,-0.0015271631,-0.08398115,0.25935832,9.806212,2,1683969854.1218104
-0.00798827,0.02646496,1.0003633,0.00030543262,0.00045814895,-0.0015271631,-0.08398115,0.25935832,9.806212,2,1683969854.1372035
-0.00798827,0.02646496,1.0003633,0.0015271631,0.00045814895,0.0009162979,-0.08398115,0.25935832,9.806212,2,1683969854.1423342
-0.00798827,0.02646496,1.0003633,0.0015271631,0.00045814895,0.0009162979,-0.084120534,0.259368,9.8062105,2,1683969854.1525855
-0.00798827,0.02646496,1.0003633,0.0027488936,-0.001985312,0.0021380284,-0.084120534,0.259368,9.8062105,2,1683969854.167967
-0.00798827,0.027440626,1.0017658,0.0027488936,-0.001985312,0.0021380284,-0.084120534,0.259368,9.8062105,2,1683969854.1781971
-0.00798827,0.027440626,1.0017658,0.0027488936,-0.001985312,0.0021380284,-0.08418916,0.25944683,9.806208,2,1683969854.1934814
-0.008415125,0.025489293,0.99938756,0.0027488936,-0.001985312,0.0021380284,-0.08418916,0.25944683,9.806208,2,1683969854.2037375
-0.008415125,0.025489293,0.99938756,0.0027488936,-0.001985312,0.0021380284,-0.08407971,0.25955045,9.806206,2,1683969854.2190652
-0.008415125,0.025489293,0.99938756,0.0015271631,0.00290161,-0.0015271631,-0.08407971,0.25955045,9.806206,2,1683969854.2292857
-0.008415125,0.025489293,0.99938756,0.00030543262,0.0053450707,-0.0015271631,-0.08407971,0.25955045,9.806206,2,1683969854.2498045
-0.008963938,0.02695279,1.0007901,0.00030543262,0.0053450707,-0.0015271631,-0.08407971,0.25955045,9.806206,2,1683969854.2600656
-0.008963938,0.02695279,1.0007901,0.00030543262,0.0053450707,-0.0015271631,-0.08410827,0.259514,9.806207,2,1683969854.2651997
-0.008963938,0.02695279,1.0007901,0.00030543262,0.0053450707,-0.0015271631,-0.08430398,0.2594561,9.806206,2,1683969854.290722
-0.0074394583,0.023537958,0.99938756,0.00030543262,0.0053450707,-0.0015271631,-0.08430398,0.2594561,9.806206,2,1683969854.2958343
-0.0074394583,0.023537958,0.99938756,-0.0009162979,0.00045814895,0.0009162979,-0.08430398,0.2594561,9.806206,2,1683969854.3009648
-0.0074394583,0.023537958,0.99938756,-0.0009162979,0.00045814895,0.0009162979,-0.08429359,0.25937325,9.806209,2,1683969854.3214428
-0.0074394583,0.023537958,0.99938756,-0.0009162979,0.0065668016,-0.00030543262,-0.08429359,0.25937325,9.806209,2,1683969854.3265777
-0.0074394583,0.02792846,0.9988997,-0.0009162979,0.0065668016,-0.00030543262,-0.08429359,0.25937325,9.806209,2,1683969854.336835
-0.0074394583,0.02792846,0.9988997,-0.0009162979,0.0065668016,-0.00030543262,-0.08314828,0.25958866,9.806212,2,1683969854.3471074
-0.0074394583,0.02792846,0.9988997,0.00030543262,0.0016798794,-0.0015271631,-0.08314828,0.25958866,9.806212,2,1683969854.3573287
-0.0074394583,0.02792846,0.9988997,0.00030543262,0.0016798794,-0.0015271631,-0.08302489,0.25946304,9.806217,2,1683969854.3675866
-0.0074394583,0.02792846,0.9988997,-0.0009162979,0.00045814895,0.0021380284,-0.08302489,0.25946304,9.806217,2,1683969854.3778532
-0.010366458,0.025001459,0.9979241,-0.0009162979,0.00045814895,0.0021380284,-0.08302489,0.25946304,9.806217,2,1683969854.3931243
-0.008902958,0.02695279,0.99938756,-0.0009162979,0.00045814895,0.0021380284,-0.08302489,0.25946304,9.806217,2,1683969854.408474
-0.008902958,0.02695279,0.99938756,-0.0021380284,0.00045814895,-0.00030543262,-0.08302489,0.25946304,9.806217,2,1683969854.413605
-0.008902958,0.02695279,0.99938756,-0.0021380284,0.00045814895,-0.00030543262,-0.08290821,0.2593692,9.80622,2,1683969854.4340866
-0.009451771,0.02695279,1.0003022,-0.0021380284,0.00045814895,-0.00030543262,-0.08290821,0.2593692,9.80622,2,1683969854.4442706
-0.009451771,0.02695279,1.0003022,-0.0021380284,0.00045814895,-0.00030543262,-0.08281428,0.25926667,9.806224,2,1683969854.4596598
-0.009451771,0.02695279,1.0003022,0.0015271631,0.0016798794,-0.00030543262,-0.08281428,0.25926667,9.806224,2,1683969854.4647913
-0.0074394583,0.025001459,0.99987537,0.0015271631,0.0016798794,-0.00030543262,-0.08281428,0.25926667,9.806224,2,1683969854.4801817
-0.0074394583,0.025001459,0.99987537,0.00030543262,0.00045814895,0.0009162979,-0.08281428,0.25926667,9.806224,2,1683969854.4903836
-0.0074394583,0.025001459,0.99987537,0.00030543262,0.00045814895,0.0009162979,-0.08282997,0.25928232,9.806224,2,1683969854.5057735
-0.0069516255,0.02646496,0.9984119,0.00030543262,0.00045814895,0.0009162979,-0.08282997,0.25928232,9.806224,2,1683969854.5109053
-0.0069516255,0.02646496,0.9984119,0.00030543262,0.00045814895,0.0009162979,-0.082914606,0.25925502,9.806223,2,1683969854.5262635
-0.0069516255,0.02646496,0.9984119,-0.0021380284,-0.0033597588,-0.0015271631,-0.082914606,0.25925502,9.806223,2,1683969854.5313616
-0.009878625,0.027440626,0.998351,-0.0021380284,-0.0033597588,-0.0015271631,-0.082914606,0.25925502,9.806223,2,1683969854.5518854
-0.009878625,0.027440626,0.998351,-0.0021380284,-0.0033597588,-0.0015271631,-0.08284873,0.25916147,9.806226,2,1683969854.5723684
-0.009878625,0.027440626,0.998351,-0.0009162979,0.0016798794,0.0033597588,-0.08284873,0.25916147,9.806226,2,1683969854.5775015
-0.007927292,0.02646496,0.9974363,-0.0009162979,0.0016798794,0.0033597588,-0.08284873,0.25916147,9.806226,2,1683969854.5928848
-0.007927292,0.02646496,0.9974363,-0.0009162979,0.0016798794,0.0033597588,-0.08307576,0.25907347,9.806227,2,1683969854.598048
-0.007927292,0.02646496,0.9974363,-0.0009162979,0.0041233404,-0.0015271631,-0.08307576,0.25907347,9.806227,2,1683969854.6031883
-0.007927292,0.02646496,0.9974363,-0.0009162979,0.0041233404,-0.0015271631,-0.08285209,0.25979188,9.80621,2,1683969854.613446
-0.007927292,0.02646496,0.9974363,0.0015271631,-0.001985312,-0.00030543262,-0.08285209,0.25979188,9.80621,2,1683969854.6237028
-0.009451771,0.02695279,0.99987537,0.0015271631,-0.001985312,-0.00030543262,-0.08285209,0.25979188,9.80621,2,1683969854.633955
-0.009878625,0.02695279,0.9979241,0.0015271631,-0.001985312,-0.00030543262,-0.08285209,0.25979188,9.80621,2,1683969854.6646874
-0.009878625,0.02695279,0.9979241,-0.0009162979,-0.00076358154,0.0009162979,-0.08285209,0.25979188,9.80621,2,1683969854.6698117
-0.009878625,0.02695279,0.9979241,-0.0009162979,-0.00076358154,0.0009162979,-0.082820274,0.25984928,9.806209,2,1683969854.6749456
-0.009878625,0.02695279,0.9979241,-0.0009162979,-0.00076358154,0.0009162979,-0.08257926,0.2598863,9.80621,2,1683969854.69034
-0.009878625,0.02695279,0.9979241,0.00030543262,0.00045814895,0.0009162979,-0.08257926,0.2598863,9.80621,2,1683969854.6954725
-0.008415125,0.02792846,0.9988997,0.00030543262,0.00045814895,0.0009162979,-0.08257926,0.2598863,9.80621,2,1683969854.7006052
-0.008415125,0.027440626,0.9979241,0.00030543262,0.00045814895,0.0009162979,-0.08257926,0.2598863,9.80621,2,1683969854.726201
-0.008415125,0.027440626,0.9979241,0.00030543262,0.00045814895,0.0009162979,-0.08248046,0.25993603,9.806209,2,1683969854.7364216
-0.008415125,0.027440626,0.9979241,0.00030543262,0.0053450707,0.0009162979,-0.08248046,0.25993603,9.806209,2,1683969854.7466774
-0.008415125,0.027440626,0.9979241,0.0015271631,0.00290161,-0.0015271631,-0.08248046,0.25993603,9.806209,2,1683969854.7671976
-0.008415125,0.027440626,0.9979241,0.0015271631,0.00290161,-0.0015271631,-0.08271596,0.25983468,9.80621,2,1683969854.7723234
-0.0069516255,0.024513626,0.99987537,0.0015271631,0.00290161,-0.0015271631,-0.08271596,0.25983468,9.80621,2,1683969854.7774174
-0.0069516255,0.024513626,0.99987537,0.0015271631,0.00290161,-0.0015271631,-0.08270957,0.25989705,9.806208,2,1683969854.8030224
-0.007927292,0.025977125,0.9988997,0.0015271631,0.00290161,-0.0015271631,-0.08270957,0.25989705,9.806208,2,1683969854.808159
-0.007927292,0.025977125,0.9988997,-0.0009162979,0.00045814895,-0.00030543262,-0.08270957,0.25989705,9.806208,2,1683969854.818422
-0.007927292,0.025977125,0.9988997,-0.0009162979,-0.004581489,0.0009162979,-0.08270957,0.25989705,9.806208,2,1683969854.8286746
-0.007927292,0.025977125,0.9988997,-0.0009162979,-0.004581489,0.0009162979,-0.082788266,0.25978848,9.8062105,2,1683969854.8338118
-0.005549104,0.027440626,1.001339,-0.0009162979,-0.004581489,0.0009162979,-0.082788266,0.25978848,9.8062105,2,1683969854.8440607
-0.005549104,0.027440626,1.001339,-0.0033597588,-0.0009162979,-0.00030543262,-0.082788266,0.25978848,9.8062105,2,1683969854.864559
-0.005549104,0.027440626,1.001339,-0.0033597588,-0.0009162979,-0.00030543262,-0.082635425,0.2597381,9.806213,2,1683969854.8748188
-0.0074394583,0.027440626,0.99938756,-0.0033597588,-0.0009162979,-0.00030543262,-0.082635425,0.2597381,9.806213,2,1683969854.900431
-0.0074394583,0.027440626,0.99938756,-0.0009162979,0.00045814895,0.0009162979,-0.082635425,0.2597381,9.806213,2,1683969854.9055638
-0.0074394583,0.027440626,0.99938756,-0.0009162979,0.00045814895,0.0009162979,-0.08189278,0.25939912,9.806229,2,1683969854.91069
-0.0074394583,0.027440626,0.99938756,0.00030543262,0.00290161,-0.0015271631,-0.08189278,0.25939912,9.806229,2,1683969854.9312
-0.0074394583,0.027440626,0.99938756,0.00030543262,0.00290161,-0.0015271631,-0.08185083,0.25949562,9.806226,2,1683969854.9414542
-0.007927292,0.025977125,0.99938756,0.00030543262,0.00290161,-0.0015271631,-0.08185083,0.25949562,9.806226,2,1683969854.9568386
-0.007927292,0.025977125,0.99938756,0.00030543262,-0.0032070426,-0.00030543262,-0.08185083,0.25949562,9.806226,2,1683969854.9619682
-0.009939604,0.02695279,1.0007901,0.00030543262,-0.0032070426,-0.00030543262,-0.08185083,0.25949562,9.806226,2,1683969854.9876153
-0.009939604,0.02695279,1.0007901,0.00030543262,-0.0032070426,-0.00030543262,-0.08191622,0.25947383,9.806226,2,1683969854.9927444
-0.0074394583,0.02646496,0.9984119,0.00030543262,-0.0032070426,-0.00030543262,-0.08191622,0.25947383,9.806226,2,1683969855.0132403
-0.0074394583,0.02646496,0.9984119,0.00030543262,-0.0032070426,-0.00030543262,-0.08161672,0.25951755,9.806228,2,1683969855.0183728
-0.0074394583,0.02646496,0.9984119,-0.0009162979,-0.001985312,-0.00030543262,-0.08161672,0.25951755,9.806228,2,1683969855.0235097
-0.009390792,0.02695279,0.9964606,-0.0009162979,-0.001985312,-0.00030543262,-0.08161672,0.25951755,9.806228,2,1683969855.0543003
-0.009390792,0.02695279,0.9964606,-0.0009162979,-0.001985312,-0.00030543262,-0.08154239,0.25945187,9.806231,2,1683969855.0594242
-0.009390792,0.02695279,0.9964606,-0.0009162979,-0.001985312,-0.00030543262,-0.08146318,0.25931683,9.806234,2,1683969855.0747814
-0.008902958,0.024025792,0.9979241,-0.0009162979,0.0016798794,-0.00030543262,-0.08146318,0.25931683,9.806234,2,1683969855.079917
-0.008902958,0.024025792,0.9979241,0.0015271631,0.0016798794,-0.0015271631,-0.081517205,0.2592598,9.806234,2,1683969855.0850875
-0.007927292,0.025489293,0.9979241,0.0015271631,0.0016798794,-0.0015271631,-0.081517205,0.2592598,9.806234,2,1683969855.085097
-0.007927292,0.02646496,0.99938756,-0.0021380284,-0.0021380284,0.0009162979,-0.08136828,0.25927895,9.806236,2,1683969855.0902758
-0.007927292,0.02695279,0.9979241,0.00030543262,-0.001985312,0.0009162979,-0.080652066,0.2592022,9.806244,2,1683969855.095437
-0.009878625,0.02695279,0.9979241,0.00030543262,-0.001985312,0.0009162979,-0.080652066,0.2592022,9.806244,2,1683969855.1005642
-0.009878625,0.02695279,0.9979241,0.00030543262,-0.00076358154,-0.00030543262,-0.080652066,0.2592022,9.806244,2,1683969855.120995
-0.009878625,0.02695279,0.9979241,0.00030543262,-0.00076358154,0.0009162979,-0.080652066,0.2592022,9.806244,2,1683969855.1414094
-0.009878625,0.02695279,0.9979241,0.00030543262,-0.00076358154,0.0009162979,-0.08062849,0.25922114,9.806244,2,1683969855.146541
-0.008902958,0.025977125,0.9988997,0.00030543262,-0.00076358154,0.0009162979,-0.08062849,0.25922114,9.806244,2,1683969855.1567638
-0.008476105,0.025489293,1.0008512,0.00030543262,-0.00076358154,0.0009162979,-0.08062849,0.25922114,9.806244,2,1683969855.1670282
-0.008476105,0.025489293,1.0008512,0.00030543262,-0.00076358154,0.0009162979,-0.08045584,0.25918776,9.806246,2,1683969855.1772583
-0.008476105,0.025489293,1.0008512,-0.0009162979,-0.004581489,-0.0015271631,-0.08045584,0.25918776,9.806246,2,1683969855.18239
-0.008476105,0.025489293,1.0008512,-0.0009162979,-0.004581489,-0.0015271631,-0.08043047,0.2591901,9.806247,2,1683969855.208014
-0.008476105,0.025489293,1.0008512,-0.0009162979,-0.00076358154,0.0009162979,-0.08043047,0.2591901,9.806247,2,1683969855.2182708
-0.008415125,0.02646496,0.9988997,-0.0009162979,-0.00076358154,0.0009162979,-0.08043047,0.2591901,9.806247,2,1683969855.228457
-0.008415125,0.02646496,0.9988997,0.00030543262,0.00045814895,0.0009162979,-0.08043047,0.2591901,9.806247,2,1683969855.248959
-0.008902958,0.025489293,0.9988997,0.00030543262,0.00045814895,0.0009162979,-0.08043047,0.2591901,9.806247,2,1683969855.2540846
-0.008902958,0.025489293,0.9988997,0.00030543262,0.00045814895,0.0009162979,-0.08040382,0.25917056,9.806247,2,1683969855.264311
-0.009390792,0.025489293,0.9984119,0.00030543262,0.00045814895,0.0009162979,-0.08040382,0.25917056,9.806247,2,1683969855.289938
-0.009390792,0.025489293,0.9984119,0.0015271631,0.0016798794,-0.00030543262,-0.08040382,0.25917056,9.806247,2,1683969855.2950702
-0.009390792,0.025489293,0.9984119,0.0015271631,0.0016798794,-0.00030543262,-0.0804022,0.2591535,9.806248,2,1683969855.3002017
-0.009390792,0.025489293,0.9984119,0.0015271631,0.0016798794,-0.00030543262,-0.08134444,0.258947,9.806245,2,1683969855.3309631
-0.009390792,0.025489293,0.9984119,0.0025961774,-0.00290161,-0.0016798794,-0.08134444,0.258947,9.806245,2,1683969855.3463428
-0.010854292,0.025489293,0.998351,0.0025961774,-0.00290161,-0.0016798794,-0.08134444,0.258947,9.806245,2,1683969855.3514652
-0.010854292,0.025489293,0.998351,0.0025961774,-0.00290161,-0.0016798794,-0.08118006,0.2589794,9.806246,2,1683969855.3565934
-0.010854292,0.025489293,0.998351,0.00015271631,-0.0041233404,0.00076358154,-0.08118006,0.2589794,9.806246,2,1683969855.3668494
-0.009390792,0.02695279,0.9979241,0.00015271631,-0.0041233404,0.00076358154,-0.08118006,0.2589794,9.806246,2,1683969855.3719778
-0.009390792,0.02695279,0.9979241,-0.0010690142,-0.00045814895,0.00076358154,-0.08118006,0.2589794,9.806246,2,1683969855.3975415
-0.0069516255,0.02695279,0.9988997,-0.0010690142,-0.00045814895,0.00076358154,-0.08118006,0.2589794,9.806246,2,1683969855.4180644
-0.0069516255,0.02695279,0.9988997,-0.0010690142,-0.00045814895,0.00076358154,-0.08105745,0.25906506,9.806244,2,1683969855.4231884
-0.0069516255,0.02695279,0.9988997,-0.0010690142,-0.00045814895,0.00076358154,-0.08090908,0.2591436,9.806243,2,1683969855.438581
-0.0069516255,0.02695279,0.9988997,0.0013744468,-0.0016798794,0.00076358154,-0.08090908,0.2591436,9.806243,2,1683969855.4437187
-0.0064637917,0.02841629,0.9984119,0.0013744468,-0.0016798794,0.00076358154,-0.08090908,0.2591436,9.806243,2,1683969855.4539747
-0.0064637917,0.02841629,0.9984119,0.00015271631,0.001985312,-0.00045814895,-0.08090908,0.2591436,9.806243,2,1683969855.4693725
-0.0070126047,0.024025792,1.0008512,0.00015271631,0.001985312,-0.00045814895,-0.08090908,0.2591436,9.806243,2,1683969855.474508
-0.0070126047,0.024025792,1.0008512,0.00015271631,0.001985312,-0.00045814895,-0.080833,0.25917774,9.806243,2,1683969855.4950206
-0.0070126047,0.024025792,1.0008512,0.00015271631,0.001985312,-0.00045814895,-0.08085342,0.25924608,9.806241,2,1683969855.515531
-0.009878625,0.025489293,0.9998144,0.00015271631,0.001985312,-0.00045814895,-0.08085342,0.25924608,9.806241,2,1683969855.5206177
-0.009878625,0.025489293,0.9998144,0.0013744468,-0.00045814895,-0.00045814895,-0.08085342,0.25924608,9.806241,2,1683969855.5308588
-0.0069516255,0.027440626,0.99987537,0.0013744468,-0.00045814895,-0.00045814895,-0.08085342,0.25924608,9.806241,2,1683969855.5462463
-0.0069516255,0.027440626,0.99987537,0.0013744468,-0.00045814895,-0.00045814895,-0.08084456,0.25925615,9.806241,2,1683969855.5513372
-0.0069516255,0.027440626,0.99987537,0.00015271631,-0.00045814895,-0.0016798794,-0.08084456,0.25925615,9.806241,2,1683969855.5564697
-0.010427438,0.025977125,1.0012779,0.00015271631,-0.00045814895,-0.0016798794,-0.08084456,0.25925615,9.806241,2,1683969855.5718544
-0.010427438,0.025977125,1.0012779,-0.0010690142,-0.00045814895,0.00076358154,-0.08084456,0.25925615,9.806241,2,1683969855.5871797
-0.010427438,0.025977125,1.0012779,-0.0010690142,-0.00045814895,0.00076358154,-0.08082017,0.2593365,9.806239,2,1683969855.5923123
-0.010427438,0.025977125,1.0012779,-0.0010690142,-0.00045814895,0.00076358154,-0.080809325,0.2595444,9.806233,2,1683969855.6077104
-0.010427438,0.025977125,1.0012779,-0.0022907446,0.00076358154,0.00076358154,-0.080809325,0.2595444,9.806233,2,1683969855.6179655
-0.009878625,0.024025792,0.9998144,-0.0022907446,0.00076358154,0.00076358154,-0.080809325,0.2595444,9.806233,2,1683969855.6230822
-0.008902958,0.02695279,0.9984119,-0.0022907446,0.00076358154,0.00076358154,-0.080809325,0.2595444,9.806233,2,1683969855.6333368
-0.008902958,0.02695279,0.9984119,-0.0022907446,0.00076358154,0.00076358154,-0.080806755,0.25944933,9.806236,2,1683969855.6486845
-0.008902958,0.02695279,0.9984119,0.00015271631,0.00076358154,-0.00045814895,-0.080806755,0.25944933,9.806236,2,1683969855.6640344
-0.008902958,0.02695279,0.9984119,0.00015271631,0.00076358154,0.00076358154,-0.080806755,0.25944933,9.806236,2,1683969855.684541
-0.008902958,0.02695279,0.9984119,0.00015271631,0.00076358154,0.00076358154,-0.08092503,0.25943345,9.806236,2,1683969855.6896737
-0.007927292,0.027440626,0.9984119,0.00015271631,0.00076358154,0.00076358154,-0.08092503,0.25943345,9.806236,2,1683969855.6948066
-0.007927292,0.027440626,0.9984119,0.00015271631,0.00076358154,0.00076358154,-0.0810982,0.25937757,9.806235,2,1683969855.7050579
-0.007927292,0.027440626,0.9984119,-0.0010690142,-0.0030543262,-0.00045814895,-0.0810982,0.25937757,9.806235,2,1683969855.710155
-0.007927292,0.023537958,0.9969484,-0.0010690142,-0.0030543262,-0.00045814895,-0.0810982,0.25937757,9.806235,2,1683969855.7306378
-0.007927292,0.023537958,0.9969484,-0.0010690142,-0.00045814895,0.00076358154,-0.0810982,0.25937757,9.806235,2,1683969855.7408965
-0.007927292,0.023537958,0.9969484,-0.0010690142,-0.00045814895,0.00076358154,-0.08097859,0.25931647,9.806238,2,1683969855.7562864
-0.009390792,0.025489293,0.9984119,-0.0010690142,-0.00045814895,0.00076358154,-0.08097859,0.25931647,9.806238,2,1683969855.7614198
-0.008902958,0.025489293,0.9988997,-0.0010690142,-0.00045814895,0.00076358154,-0.08097859,0.25931647,9.806238,2,1683969855.78707
-0.008902958,0.025489293,0.9988997,-0.0010690142,-0.00045814895,0.00076358154,-0.081045866,0.2593894,9.806236,2,1683969855.7922015
-0.008902958,0.025489293,0.9988997,0.00015271631,0.00076358154,0.00076358154,-0.081045866,0.2593894,9.806236,2,1683969855.7973342
-0.008902958,0.025489293,0.9988997,-0.0010690142,-0.0016798794,-0.00045814895,-0.081045866,0.2593894,9.806236,2,1683969855.8229787
-0.009390792,0.02646496,0.9988997,-0.0010690142,-0.0016798794,-0.00045814895,-0.081045866,0.2593894,9.806236,2,1683969855.8332458
-0.009390792,0.02646496,0.9988997,-0.0010690142,-0.0016798794,-0.00045814895,-0.08119603,0.25942427,9.806233,2,1683969855.8383756
-0.009390792,0.02646496,0.9988997,0.00015271631,-0.0016798794,0.00076358154,-0.08119603,0.25942427,9.806233,2,1683969855.848629
-0.008415125,0.02792846,0.9988997,0.00015271631,-0.0016798794,0.00076358154,-0.08119603,0.25942427,9.806233,2,1683969855.8537614
-0.008415125,0.02792846,0.9988997,0.00015271631,-0.0016798794,0.00076358154,-0.08120586,0.25941363,9.806233,2,1683969855.8640187
-0.008415125,0.02792846,0.9988997,-0.0022907446,0.00076358154,0.00076358154,-0.08120586,0.25941363,9.806233,2,1683969855.87937
-0.009878625,0.025977125,0.9984119,-0.0022907446,0.00076358154,0.00076358154,-0.08120586,0.25941363,9.806233,2,1683969855.8947206
-0.009878625,0.025977125,0.9984119,-0.0022907446,0.00076358154,0.00076358154,-0.08244474,0.25916222,9.806231,2,1683969855.9049766
-0.009878625,0.025977125,0.9984119,0.00015271631,-0.0016798794,-0.00290161,-0.08244474,0.25916222,9.806231,2,1683969855.9203103
-0.009390792,0.025977125,0.9969484,0.00015271631,-0.0016798794,-0.00290161,-0.08244474,0.25916222,9.806231,2,1683969855.935662
-0.009390792,0.025977125,0.9969484,0.00015271631,-0.0016798794,-0.00290161,-0.08261004,0.259091,9.806231,2,1683969855.9407961
-0.008476105,0.025977125,1.0007901,0.00015271631,-0.0016798794,-0.00290161,-0.08261004,0.259091,9.806231,2,1683969855.9510534
-0.008476105,0.025977125,1.0007901,0.0013744468,0.00076358154,-0.0016798794,-0.08261004,0.259091,9.806231,2,1683969855.9561858
-0.008476105,0.025977125,1.0007901,0.0013744468,0.00076358154,-0.0016798794,-0.08249585,0.25901017,9.806233,2,1683969855.9664476
-0.008476105,0.025977125,1.0007901,0.00015271631,-0.00290161,0.00076358154,-0.08249585,0.25901017,9.806233,2,1683969855.9921064
-0.008476105,0.025977125,1.0007901,0.00015271631,-0.00290161,0.00076358154,-0.08253307,0.25915623,9.806229,2,1683969856.0074904
-0.0074394583,0.02646496,0.9964606,0.00015271631,-0.00290161,0.00076358154,-0.08253307,0.25915623,9.806229,2,1683969856.012625
-0.0074394583,0.02646496,0.9964606,0.00015271631,-0.00290161,0.00076358154,-0.082402915,0.25918162,9.80623,2,1683969856.0228784
-0.0069516255,0.025489293,0.9988997,0.00015271631,-0.00290161,0.00076358154,-0.082402915,0.25918162,9.80623,2,1683969856.0280118
-0.0069516255,0.025489293,0.9988997,-0.0010690142,0.00076358154,-0.00045814895,-0.082402915,0.25918162,9.80623,2,1683969856.0382674
-0.0069516255,0.025489293,0.9988997,-0.0010690142,0.0032070426,0.001985312,-0.082402915,0.25918162,9.80623,2,1683969856.0638373
-0.007927292,0.025977125,0.9998144,-0.0010690142,0.0032070426,0.001985312,-0.082402915,0.25918162,9.80623,2,1683969856.0689592
-0.007927292,0.025977125,0.9998144,-0.0010690142,0.0032070426,0.001985312,-0.082309596,0.25925073,9.806229,2,1683969856.0740943
-0.007927292,0.025977125,0.9998144,-0.0010690142,0.0032070426,0.001985312,-0.08241289,0.25920913,9.806229,2,1683969856.0945992
-0.007927292,0.025977125,0.9998144,0.0025961774,0.0056505036,0.00076358154,-0.08241289,0.25920913,9.806229,2,1683969856.099735
-0.007927292,0.027440626,0.9979241,0.0025961774,0.0056505036,0.00076358154,-0.08241289,0.25920913,9.806229,2,1683969856.1150842
-0.008963938,0.02646496,1.0007901,0.0025961774,0.0056505036,0.00076358154,-0.08241289,0.25920913,9.806229,2,1683969856.1458542
-0.008963938,0.02646496,1.0007901,0.00015271631,-0.00045814895,0.00076358154,-0.08241289,0.25920913,9.806229,2,1683969856.150992
-0.008963938,0.027440626,1.0012779,0.00015271631,-0.00045814895,0.00076358154,-0.08241289,0.25920913,9.806229,2,1683969856.1561203
-0.008963938,0.027440626,1.0012779,0.00015271631,0.00076358154,0.00076358154,-0.08241289,0.25920913,9.806229,2,1683969856.166382
-0.008963938,0.027440626,1.0012779,0.00015271631,0.00076358154,0.00076358154,-0.08297731,0.25941464,9.806219,2,1683969856.1766305
-0.008963938,0.027440626,1.0012779,0.00015271631,0.00076358154,0.00076358154,-0.08295205,0.25926903,9.806223,2,1683969856.2124813
-0.0074394583,0.027440626,0.9993266,0.00015271631,0.00076358154,0.00076358154,-0.08295205,0.25926903,9.806223,2,1683969856.2176154
-0.0074394583,0.027440626,0.9993266,-0.0010690142,0.0032070426,-0.00045814895,-0.08295205,0.25926903,9.806223,2,1683969856.2227106
-0.0074394583,0.027440626,0.9993266,-0.0010690142,0.0032070426,-0.00045814895,-0.083015434,0.25924087,9.806223,2,1683969856.2329276
-0.0074394583,0.027440626,0.9993266,-0.0010690142,-0.0016798794,0.00076358154,-0.083015434,0.25924087,9.806223,2,1683969856.243195
-0.0074394583,0.025977125,0.9984119,-0.0010690142,-0.0016798794,0.00076358154,-0.083015434,0.25924087,9.806223,2,1683969856.2534547
-0.0074394583,0.025977125,0.9984119,0.00015271631,0.00076358154,0.00076358154,-0.083015434,0.25924087,9.806223,2,1683969856.2688444
-0.0074394583,0.025977125,0.9984119,0.00015271631,0.00076358154,0.00076358154,-0.083110735,0.2592409,9.806222,2,1683969856.2791157
-0.008902958,0.025489293,0.9993266,0.00015271631,0.00076358154,0.00076358154,-0.083110735,0.2592409,9.806222,2,1683969856.2945187
-0.009390792,0.027440626,0.998351,0.00015271631,0.00076358154,0.00076358154,-0.083110735,0.2592409,9.806222,2,1683969856.304776
-0.009390792,0.027440626,0.998351,-0.0010690142,0.001985312,0.00076358154,-0.083110735,0.2592409,9.806222,2,1683969856.309907
-0.009390792,0.027440626,0.998351,-0.0010690142,0.001985312,0.00076358154,-0.083234824,0.25927466,9.80622,2,1683969856.3252933
-0.009390792,0.027440626,0.998351,-0.0010690142,0.001985312,0.00076358154,-0.083505094,0.2593043,9.806217,2,1683969856.340665
-0.009390792,0.027440626,0.998351,0.0025961774,0.00076358154,-0.0016798794,-0.083505094,0.2593043,9.806217,2,1683969856.345797
-0.007927292,0.025489293,0.9979241,0.0025961774,0.00076358154,-0.0016798794,-0.083505094,0.2593043,9.806217,2,1683969856.361182
-0.008902958,0.02646496,0.9974363,0.0025961774,0.00076358154,-0.0016798794,-0.083505094,0.2593043,9.806217,2,1683969856.381693
-0.008902958,0.02646496,0.9974363,-0.0022907446,-0.00045814895,0.00076358154,-0.083505094,0.2593043,9.806217,2,1683969856.3919563
-0.008902958,0.02646496,0.9974363,-0.0022907446,-0.00045814895,0.00076358154,-0.083542675,0.25925812,9.806218,2,1683969856.4022107
-0.009390792,0.025489293,0.9993266,-0.0022907446,-0.00045814895,0.00076358154,-0.083542675,0.25925812,9.806218,2,1683969856.4175599
-0.009390792,0.025489293,0.9993266,-0.0022907446,-0.00045814895,0.00076358154,-0.08351126,0.25912935,9.806221,2,1683969856.4278207
-0.008476105,0.02695279,0.99987537,-0.0022907446,-0.00045814895,0.00076358154,-0.08351126,0.25912935,9.806221,2,1683969856.432954
-0.008476105,0.02695279,0.99987537,-0.0022907446,-0.00045814895,0.00076358154,-0.083962314,0.2593728,9.806211,2,1683969856.438056
-0.008476105,0.02695279,0.99987537,0.00015271631,-0.00045814895,-0.00045814895,-0.083962314,0.2593728,9.806211,2,1683969856.458575
-0.008476105,0.02695279,0.99987537,-0.0010690142,-0.0016798794,-0.00045814895,-0.083962314,0.2593728,9.806211,2,1683969856.4739585
-0.008476105,0.02695279,0.99987537,-0.0010690142,-0.0016798794,-0.00045814895,-0.08396268,0.25934154,9.806212,2,1683969856.4841902
-0.010854292,0.02695279,0.9993266,-0.0010690142,-0.0016798794,-0.00045814895,-0.08396268,0.25934154,9.806212,2,1683969856.4995027
-0.009390792,0.027440626,0.9969484,-0.0010690142,-0.0016798794,-0.00045814895,-0.08396268,0.25934154,9.806212,2,1683969856.5251515
-0.009390792,0.027440626,0.9969484,-0.0010690142,-0.0016798794,-0.00045814895,-0.08387604,0.25930953,9.806213,2,1683969856.5302813
-0.009390792,0.027440626,0.9969484,0.0013744468,0.0032070426,0.001985312,-0.08387604,0.25930953,9.806213,2,1683969856.5354028
-0.009390792,0.027440626,0.9969484,-0.0010690142,-0.0018325958,-0.0016798794,-0.08387604,0.25930953,9.806213,2,1683969856.5507765
-0.009390792,0.027440626,0.9969484,-0.0010690142,-0.0018325958,-0.0016798794,-0.08385339,0.25934687,9.806213,2,1683969856.5661662
-0.009390792,0.02695279,0.9984119,-0.0010690142,-0.0018325958,-0.0016798794,-0.08385339,0.25934687,9.806213,2,1683969856.5712576
-0.009390792,0.02695279,0.9984119,-0.0010690142,0.004428773,0.00076358154,-0.08385339,0.25934687,9.806213,2,1683969856.5815217
-0.007927292,0.027440626,0.9979241,-0.0010690142,0.004428773,0.00076358154,-0.08385339,0.25934687,9.806213,2,1683969856.596916
-0.007927292,0.027440626,0.9979241,-0.0010690142,0.004428773,0.00076358154,-0.083824426,0.25928998,9.806215,2,1683969856.6020532
-0.0064637917,0.027440626,0.9969484,-0.0010690142,0.004428773,0.00076358154,-0.083824426,0.25928998,9.806215,2,1683969856.6225111
-0.0064637917,0.027440626,0.9969484,0.00015271631,-0.0067195175,0.00076358154,-0.083824426,0.25928998,9.806215,2,1683969856.6327877
-0.0064637917,0.027440626,0.9969484,0.00015271631,-0.0067195175,0.00076358154,-0.0838758,0.2592039,9.806216,2,1683969856.637926
-0.0064637917,0.027440626,0.9969484,0.0013744468,-0.0016798794,-0.0016798794,-0.0838758,0.2592039,9.806216,2,1683969856.6533155
-0.0075004376,0.025977125,1.0003633,0.0013744468,-0.0016798794,-0.0016798794,-0.0838758,0.2592039,9.806216,2,1683969856.6635816
-0.0075004376,0.025977125,1.0003633,0.0013744468,-0.0016798794,-0.0016798794,-0.083725855,0.25925085,9.806216,2,1683969856.6789713
-0.008963938,0.02646496,0.9998144,0.0013744468,-0.0016798794,-0.0016798794,-0.083725855,0.25925085,9.806216,2,1683969856.6841037
-0.008963938,0.02646496,0.9998144,0.00015271631,-0.00045814895,0.00076358154,-0.083725855,0.25925085,9.806216,2,1683969856.6892407
-0.008963938,0.02646496,0.9998144,0.00015271631,-0.00045814895,0.00076358154,-0.08361639,0.25931457,9.806216,2,1683969856.7097313
-0.007927292,0.025977125,0.9988997,0.00015271631,-0.00045814895,0.00076358154,-0.08361639,0.25931457,9.806216,2,1683969856.730243
-0.007927292,0.025977125,0.9988997,0.0013744468,0.00076358154,-0.0016798794,-0.08361639,0.25931457,9.806216,2,1683969856.7353354
-0.007927292,0.025977125,0.9988997,0.0013744468,0.00076358154,-0.0016798794,-0.083225235,0.2599685,9.806202,2,1683969856.7405162
-0.007927292,0.025977125,0.9988997,0.0013744468,0.00076358154,-0.0016798794,-0.08323086,0.26001298,9.806201,2,1683969856.771199
-0.007927292,0.025977125,0.9988997,0.00015271631,-0.00045814895,-0.0016798794,-0.08323086,0.26001298,9.806201,2,1683969856.776337
-0.008415125,0.027440626,0.9978631,0.00015271631,-0.00045814895,-0.0016798794,-0.08323086,0.26001298,9.806201,2,1683969856.781471
-0.008415125,0.027440626,0.9978631,0.00015271631,-0.00045814895,-0.0016798794,-0.08315028,0.26001862,9.806202,2,1683969856.7917278
-0.008415125,0.027440626,0.9978631,0.00015271631,-0.0016798794,-0.00045814895,-0.08315028,0.26001862,9.806202,2,1683969856.796853
-0.008415125,0.02695279,0.9969484,0.00015271631,-0.0016798794,-0.00045814895,-0.08315028,0.26001862,9.806202,2,1683969856.8173892
-0.008415125,0.02695279,0.9969484,-0.0022907446,0.001985312,0.00076358154,-0.08315028,0.26001862,9.806202,2,1683969856.8379254
-0.008415125,0.025977125,0.998351,-0.0022907446,0.001985312,0.00076358154,-0.08315028,0.26001862,9.806202,2,1683969856.848175
-0.008415125,0.025977125,0.998351,-0.0022907446,0.001985312,0.00076358154,-0.08311759,0.26000077,9.806202,2,1683969856.8533022
-0.007927292,0.02695279,0.998351,-0.0022907446,0.001985312,0.00076358154,-0.08311759,0.26000077,9.806202,2,1683969856.8738177
-0.007927292,0.02695279,0.998351,-0.0022907446,0.001985312,0.00076358154,-0.083175205,0.25994587,9.806203,2,1683969856.8789468
-0.007927292,0.02695279,0.998351,-0.0035124752,0.0030543262,-0.00290161,-0.083175205,0.25994587,9.806203,2,1683969856.8892086
-0.007927292,0.02695279,0.998351,-0.0035124752,0.0030543262,-0.00290161,-0.08345087,0.2599237,9.806202,2,1683969856.9045477
-0.007927292,0.025001459,0.9993266,-0.0035124752,0.0030543262,-0.00290161,-0.08345087,0.2599237,9.806202,2,1683969856.9148047
-0.007927292,0.025001459,0.9993266,0.0025961774,0.00076358154,-0.0016798794,-0.08345087,0.2599237,9.806202,2,1683969856.92506
-0.007927292,0.025977125,0.9993266,0.0025961774,0.00076358154,-0.0016798794,-0.08345087,0.2599237,9.806202,2,1683969856.9455302
-0.007927292,0.025977125,0.9993266,0.0025961774,0.00076358154,-0.0016798794,-0.08343072,0.26000142,9.8062,2,1683969856.9506648
-0.007927292,0.025977125,0.9993266,0.0013744468,-0.00045814895,0.00076358154,-0.08343072,0.26000142,9.8062,2,1683969856.9557974
-0.008415125,0.025489293,0.9998144,0.0013744468,-0.00045814895,0.00076358154,-0.08343072,0.26000142,9.8062,2,1683969856.966052
-0.008415125,0.025489293,0.9998144,0.00015271631,0.00076358154,0.00076358154,-0.08343072,0.26000142,9.8062,2,1683969856.976315
-0.008415125,0.025489293,0.9998144,0.00015271631,0.00076358154,0.00076358154,-0.083426885,0.260096,9.806197,2,1683969856.9917097
-0.008415125,0.025489293,0.9998144,0.00015271631,-0.0030543262,-0.0016798794,-0.083426885,0.260096,9.806197,2,1683969857.0122359
-0.008415125,0.025489293,0.9998144,0.00015271631,-0.0030543262,-0.0016798794,-0.08381357,0.26029882,9.806188,2,1683969857.0224922
-0.0074394583,0.027440626,0.9974363,0.00015271631,-0.0030543262,-0.0016798794,-0.08381357,0.26029882,9.806188,2,1683969857.0276203
-0.007927292,0.027440626,0.9979241,0.00015271631,-0.0030543262,-0.0016798794,-0.08381357,0.26029882,9.806188,2,1683969857.0430071
-0.007927292,0.027440626,0.9979241,0.00015271631,-0.0030543262,-0.0016798794,-0.08367393,0.26027742,9.8061905,2,1683969857.05326
-0.007927292,0.027440626,0.9979241,-0.0022907446,-0.00076358154,-0.00045814895,-0.08367393,0.26027742,9.8061905,2,1683969857.0635152
-0.007927292,0.027440626,0.9979241,0.00015271631,0.0030543262,0.00076358154,-0.08367393,0.26027742,9.8061905,2,1683969857.0891361
-0.007927292,0.02646496,0.9979241,0.00015271631,0.0030543262,0.00076358154,-0.08367393,0.26027742,9.8061905,2,1683969857.0942671
-0.007927292,0.02646496,0.9979241,0.00015271631,0.0030543262,0.00076358154,-0.08362755,0.26029426,9.80619,2,1683969857.0993934
-0.007927292,0.02646496,0.9979241,0.00015271631,0.0030543262,0.00076358154,-0.08368232,0.26026842,9.8061905,2,1683969857.1199102
-0.007927292,0.02646496,0.9979241,-0.0010690142,-0.0030543262,0.00076358154,-0.08368232,0.26026842,9.8061905,2,1683969857.1250436
-0.007927292,0.02646496,0.9984119,-0.0010690142,-0.0030543262,0.00076358154,-0.08368232,0.26026842,9.8061905,2,1683969857.135264
-0.008902958,0.027440626,0.9974363,-0.0010690142,-0.0030543262,0.00076358154,-0.08368232,0.26026842,9.8061905,2,1683969857.1403883
-0.008902958,0.027440626,0.9974363,-0.0010690142,-0.0030543262,0.00076358154,-0.08369213,0.26003012,9.806197,2,1683969857.155734
-0.008902958,0.027440626,0.9974363,-0.0010690142,0.0030543262,-0.0016798794,-0.08369213,0.26003012,9.806197,2,1683969857.1659987
-0.008902958,0.027440626,0.9974363,-0.0010690142,-0.00061086525,-0.00045814895,-0.08369213,0.26003012,9.806197,2,1683969857.1813893
-0.008902958,0.027440626,0.9974363,-0.0010690142,-0.00061086525,-0.00045814895,-0.08381178,0.26000872,9.806195,2,1683969857.1916516
-0.008415125,0.025489293,0.9984119,-0.0010690142,-0.00061086525,-0.00045814895,-0.08381178,0.26000872,9.806195,2,1683969857.2069964
-0.008415125,0.025489293,0.9984119,-0.0010690142,-0.00061086525,-0.00045814895,-0.08372384,0.26000974,9.806197,2,1683969857.2223833
-0.0075004376,0.027440626,1.0003633,-0.0010690142,-0.00061086525,-0.00045814895,-0.08372384,0.26000974,9.806197,2,1683969857.227515
-0.0075004376,0.027440626,1.0003633,0.00015271631,0.004276057,0.00076358154,-0.08372384,0.26000974,9.806197,2,1683969857.2326453
-0.0075004376,0.027440626,1.0003633,0.00015271631,0.004276057,0.00076358154,-0.08389379,0.26003155,9.806194,2,1683969857.2634099
-0.0075004376,0.027440626,1.0003633,0.00015271631,0.0018325958,-0.0016798794,-0.08389379,0.26003155,9.806194,2,1683969857.2736678
-0.0075004376,0.027440626,1.0003633,0.00015271631,0.0018325958,-0.0016798794,-0.083999425,0.2600698,9.806192,2,1683969857.2787974
-0.00798827,0.02695279,1.0008512,0.00015271631,0.0018325958,-0.0016798794,-0.083999425,0.2600698,9.806192,2,1683969857.2839305
-0.009390792,0.027440626,0.9984119,0.00015271631,0.0018325958,-0.0016798794,-0.083999425,0.2600698,9.806192,2,1683969857.314669
-0.009390792,0.027440626,0.9984119,0.00015271631,0.0018325958,-0.0016798794,-0.083997495,0.26008794,9.806192,2,1683969857.3198009
-0.009390792,0.027440626,0.9984119,0.00015271631,0.0030543262,0.00076358154,-0.083997495,0.26008794,9.806192,2,1683969857.3300204
-0.008415125,0.027440626,0.9969484,0.00015271631,0.0030543262,0.00076358154,-0.083997495,0.26008794,9.806192,2,1683969857.3402824
-0.008415125,0.027440626,0.9969484,0.00015271631,0.0030543262,0.00076358154,-0.08410109,0.26000935,9.806193,2,1683969857.355675
-0.008415125,0.027440626,0.9969484,0.0013744468,-0.00061086525,-0.00045814895,-0.08410109,0.26000935,9.806193,2,1683969857.3608086
-0.008415125,0.027440626,0.9969484,0.00015271631,-0.0030543262,0.00076358154,-0.08410109,0.26000935,9.806193,2,1683969857.3761983
-0.0070126047,0.025977125,1.0003633,0.00015271631,-0.0030543262,0.00076358154,-0.08410109,0.26000935,9.806193,2,1683969857.396718
-0.0070126047,0.025977125,1.0003633,0.00015271631,-0.0030543262,0.00076358154,-0.084080935,0.26004288,9.806192,2,1683969857.4018517
-0.0070126047,0.025977125,1.0003633,0.0025961774,0.00061086525,0.00076358154,-0.084080935,0.26004288,9.806192,2,1683969857.4326239
-0.0070126047,0.025977125,1.0003633,0.0025961774,0.00061086525,0.00076358154,-0.08405386,0.26021054,9.806188,2,1683969857.4377193
-0.009390792,0.02646496,0.9979241,0.0025961774,0.00061086525,0.00076358154,-0.08405386,0.26021054,9.806188,2,1683969857.4428504
-0.009390792,0.02646496,0.9979241,-0.0010690142,-0.004428773,0.00076358154,-0.08405386,0.26021054,9.806188,2,1683969857.4479823
-0.009390792,0.02646496,0.9979241,-0.0010690142,-0.004428773,0.00076358154,-0.0839719,0.2603625,9.806185,2,1683969857.4735763
-0.009390792,0.02646496,0.9979241,0.00015271631,0.0030543262,-0.00045814895,-0.0839719,0.2603625,9.806185,2,1683969857.4940581
-0.009390792,0.025489293,0.99987537,0.00015271631,0.0030543262,-0.00045814895,-0.0839719,0.2603625,9.806185,2,1683969857.5043297
-0.009390792,0.025489293,0.99987537,0.00015271631,0.0030543262,-0.00045814895,-0.08385896,0.2603866,9.806186,2,1683969857.5094628
-0.009390792,0.02695279,0.9988997,0.00015271631,0.0030543262,-0.00045814895,-0.08385896,0.2603866,9.806186,2,1683969857.5299935
-0.009390792,0.02695279,0.9988997,0.0013744468,-0.00061086525,0.00076358154,-0.08385896,0.2603866,9.806186,2,1683969857.5402389
-0.009390792,0.02695279,0.9988997,0.0013744468,-0.0030543262,-0.0016798794,-0.08385896,0.2603866,9.806186,2,1683969857.5505
-0.008415125,0.025977125,0.9988997,0.0013744468,-0.0030543262,-0.0016798794,-0.08385896,0.2603866,9.806186,2,1683969857.5710158
-0.008902958,0.02695279,0.9979241,0.0013744468,-0.0030543262,-0.0016798794,-0.08385896,0.2603866,9.806186,2,1683969857.586407
-0.008902958,0.02695279,0.9979241,-0.0022907446,0.00061086525,-0.00045814895,-0.08385896,0.2603866,9.806186,2,1683969857.5915384
-0.008902958,0.02695279,0.9979241,-0.0022907446,0.00061086525,-0.00045814895,-0.08282676,0.26016733,9.8062,2,1683969857.601799
-0.008476105,0.02646496,1.0003022,-0.0022907446,0.00061086525,-0.00045814895,-0.08282676,0.26016733,9.8062,2,1683969857.622314
-0.008476105,0.02646496,1.0003022,0.00015271631,0.0018325958,-0.00045814895,-0.08282676,0.26016733,9.8062,2,1683969857.627434
-0.008476105,0.02646496,1.0003022,0.00015271631,0.0018325958,-0.00045814895,-0.082947545,0.2600822,9.806201,2,1683969857.6325643
-0.008476105,0.02646496,1.0003022,0.00015271631,0.00061086525,0.00076358154,-0.082947545,0.2600822,9.806201,2,1683969857.6582074
-0.008963938,0.025489293,1.0017658,0.00015271631,0.00061086525,0.00076358154,-0.082947545,0.2600822,9.806201,2,1683969857.6684268
-0.008963938,0.025489293,1.0017658,0.00015271631,0.00061086525,0.00076358154,-0.083009504,0.26024568,9.806196,2,1683969857.6735578
-0.008963938,0.025489293,1.0017658,0.0013744468,-0.00061086525,0.001985312,-0.083009504,0.26024568,9.806196,2,1683969857.6889405
-0.008963938,0.025489293,1.0017658,0.0013744468,-0.00061086525,0.001985312,-0.08311274,0.26015773,9.806198,2,1683969857.6992037
-0.0074394583,0.024025792,0.9988997,0.0013744468,-0.00061086525,0.001985312,-0.08311274,0.26015773,9.806198,2,1683969857.704352
-0.0074394583,0.024025792,0.9988997,0.0013744468,0.004276057,0.00076358154,-0.08311274,0.26015773,9.806198,2,1683969857.7299592
-0.008902958,0.025489293,0.99938756,0.0013744468,0.004276057,0.00076358154,-0.08311274,0.26015773,9.806198,2,1683969857.740219
-0.008902958,0.025489293,0.99938756,0.0013744468,0.004276057,0.00076358154,-0.0830326,0.26018867,9.806197,2,1683969857.745349
-0.008902958,0.025489293,0.99938756,0.0013744468,-0.0018325958,0.00076358154,-0.0830326,0.26018867,9.806197,2,1683969857.7556107
-0.008902958,0.025489293,0.99938756,0.0013744468,-0.0018325958,0.00076358154,-0.08337408,0.26033935,9.8061905,2,1683969857.7658713
-0.00798827,0.02695279,1.0012779,0.0013744468,-0.0018325958,0.00076358154,-0.08337408,0.26033935,9.8061905,2,1683969857.7710028
-0.010854292,0.025977125,0.9984119,0.0013744468,-0.0018325958,0.00076358154,-0.08337408,0.26033935,9.8061905,2,1683969857.7966182
-0.010854292,0.025977125,0.9984119,0.0013744468,-0.0018325958,0.00076358154,-0.08332924,0.2603839,9.80619,2,1683969857.8068693
-0.010854292,0.025977125,0.9984119,0.00015271631,-0.00061086525,-0.00045814895,-0.08332924,0.2603839,9.80619,2,1683969857.8171284
-0.010854292,0.025977125,0.9984119,0.00015271631,-0.00061086525,-0.00045814895,-0.08250904,0.26007488,9.806206,2,1683969857.8376162
-0.010854292,0.025977125,0.9984119,-0.0022907446,-0.00061086525,0.00076358154,-0.08250904,0.26007488,9.806206,2,1683969857.8427477
-0.0069516255,0.02695279,0.9984119,-0.0022907446,-0.00061086525,0.00076358154,-0.08250904,0.26007488,9.806206,2,1683969857.8478801
-0.008415125,0.02695279,0.99938756,-0.0022907446,-0.00061086525,0.00076358154,-0.08250904,0.26007488,9.806206,2,1683969857.8631973
-0.008415125,0.02695279,0.99938756,-0.0022907446,-0.00061086525,0.00076358154,-0.082491934,0.26009664,9.806205,2,1683969857.8683274
-0.008415125,0.02695279,0.99938756,0.00015271631,0.00061086525,-0.0016798794,-0.082491934,0.26009664,9.806205,2,1683969857.8734634
-0.008415125,0.02695279,0.99938756,0.00015271631,0.00061086525,-0.0016798794,-0.08255157,0.2600626,9.806205,2,1683969857.8888543
-0.008415125,0.02695279,0.99938756,-0.0010690142,-0.00061086525,0.00076358154,-0.08255157,0.2600626,9.806205,2,1683969857.899073
-0.00798827,0.02841629,1.0003633,-0.0010690142,-0.00061086525,0.00076358154,-0.08255157,0.2600626,9.806205,2,1683969857.919601
-0.0074394583,0.025977125,0.9974363,-0.0010690142,-0.00061086525,0.00076358154,-0.08255157,0.2600626,9.806205,2,1683969857.9349937
-0.0074394583,0.025977125,0.9974363,0.00015271631,-0.0018325958,0.00076358154,-0.08255157,0.2600626,9.806205,2,1683969857.945261
-0.0074394583,0.025977125,0.9974363,0.00015271631,-0.0018325958,0.00076358154,-0.08247491,0.26006523,9.806206,2,1683969857.95039
-0.0074394583,0.025977125,0.9974363,0.00015271631,-0.0018325958,0.00076358154,-0.08245526,0.25996736,9.806209,2,1683969857.9708273
-0.0074394583,0.025977125,0.9974363,0.00015271631,-0.00061086525,0.00076358154,-0.08245526,0.25996736,9.806209,2,1683969857.975963
-0.008415125,0.02792846,0.9979241,0.00015271631,-0.00061086525,0.00076358154,-0.08245526,0.25996736,9.806209,2,1683969857.9913085
-0.008415125,0.02792846,0.9979241,0.00015271631,0.0030543262,-0.0016798794,-0.08245526,0.25996736,9.806209,2,1683969858.006698
-0.008415125,0.02792846,0.9979241,0.00015271631,0.0030543262,-0.0016798794,-0.08240719,0.2599201,9.8062105,2,1683969858.0169556
-0.007927292,0.02695279,0.99987537,0.00015271631,0.0030543262,-0.0016798794,-0.08240719,0.2599201,9.8062105,2,1683969858.0271442
-0.008415125,0.025489293,0.9984119,0.00015271631,0.0030543262,-0.0016798794,-0.08240719,0.2599201,9.8062105,2,1683969858.0425348
-0.008415125,0.025489293,0.9984119,0.0013744468,-0.0018325958,-0.0016798794,-0.08240719,0.2599201,9.8062105,2,1683969858.0527956
-0.008415125,0.025489293,0.9984119,0.0013744468,-0.0018325958,-0.0016798794,-0.082413696,0.26004332,9.806208,2,1683969858.057934
-0.008963938,0.027440626,1.0003633,0.0013744468,-0.0018325958,-0.0016798794,-0.082413696,0.26004332,9.806208,2,1683969858.0733166
-0.008963938,0.027440626,1.0003633,-0.0010690142,-0.0018325958,0.00076358154,-0.082413696,0.26004332,9.806208,2,1683969858.0886986
-0.008963938,0.027440626,1.0003633,-0.0010690142,-0.0018325958,0.00076358154,-0.08235316,0.26008138,9.806206,2,1683969858.09896
-0.008963938,0.02792846,0.99987537,-0.0010690142,-0.0018325958,0.00076358154,-0.08235316,0.26008138,9.806206,2,1683969858.1194732
-0.008963938,0.02792846,0.99987537,-0.0010690142,0.00061086525,-0.0016798794,-0.08235316,0.26008138,9.806206,2,1683969858.1297364
-0.008963938,0.02792846,0.99987537,-0.0010690142,0.00061086525,-0.0016798794,-0.082068324,0.25874174,9.806244,2,1683969858.134827
-0.008963938,0.02792846,0.99987537,-0.0010690142,0.00061086525,-0.0016798794,-0.08214803,0.25874582,9.806243,2,1683969858.1553044
-0.008963938,0.02792846,0.99987537,0.00015271631,0.0018325958,0.00076358154,-0.08214803,0.25874582,9.806243,2,1683969858.160437
-0.008902958,0.02695279,0.9988997,0.00015271631,0.0018325958,0.00076358154,-0.08214803,0.25874582,9.806243,2,1683969858.1758347
-0.008902958,0.02695279,0.9988997,0.00015271631,0.0018325958,0.00076358154,-0.08217666,0.25877059,9.806242,2,1683969858.1911979
-0.0069516255,0.025977125,0.9988997,0.00015271631,0.0018325958,0.00076358154,-0.08217666,0.25877059,9.806242,2,1683969858.2014525
-0.0069516255,0.025977125,0.9988997,-0.0010690142,-0.0032070426,-0.00290161,-0.08217666,0.25877059,9.806242,2,1683969858.2116673
-0.0074394583,0.02792846,0.9984119,-0.0010690142,-0.0032070426,-0.00290161,-0.08217666,0.25877059,9.806242,2,1683969858.232189
-0.0074394583,0.02792846,0.9984119,0.00015271631,-0.0030543262,-0.00045814895,-0.08217666,0.25877059,9.806242,2,1683969858.2373204
-0.0074394583,0.02792846,0.9984119,0.0050396384,-0.0018325958,-0.00045814895,-0.08217666,0.25877059,9.806242,2,1683969858.257842
-0.0074394583,0.02792846,0.9984119,0.0050396384,-0.0018325958,-0.00045814895,-0.08198582,0.25884575,9.806242,2,1683969858.2680945
-0.007927292,0.025489293,0.9988997,0.0050396384,-0.0018325958,-0.00045814895,-0.08198582,0.25884575,9.806242,2,1683969858.278303
-0.007927292,0.025489293,0.9988997,0.0050396384,-0.0018325958,-0.00045814895,-0.081799015,0.25900578,9.806239,2,1683969858.2935789
-0.007927292,0.025489293,0.9988997,-0.0010690142,0.0030543262,0.00076358154,-0.081799015,0.25900578,9.806239,2,1683969858.298635
-0.007927292,0.025977125,0.9979241,-0.0010690142,0.0030543262,0.00076358154,-0.081799015,0.25900578,9.806239,2,1683969858.3242996
-0.007927292,0.025977125,0.9979241,0.0013744468,0.00061086525,-0.00045814895,-0.081799015,0.25900578,9.806239,2,1683969858.3294325
-0.007927292,0.025977125,0.9979241,0.0013744468,0.00061086525,-0.00045814895,-0.08204515,0.259105,9.806234,2,1683969858.3396938
-0.007927292,0.025977125,0.9979241,0.0013744468,-0.0030543262,-0.00045814895,-0.08204515,0.259105,9.806234,2,1683969858.355077
-0.007927292,0.025977125,0.9998144,0.0013744468,-0.0030543262,-0.00045814895,-0.08204515,0.259105,9.806234,2,1683969858.37553
-0.0069516255,0.02695279,0.9969484,0.0013744468,-0.0030543262,-0.00045814895,-0.08204515,0.259105,9.806234,2,1683969858.3959486
-0.0069516255,0.02695279,0.9969484,0.0013744468,-0.0030543262,-0.00045814895,-0.08142561,0.25860426,9.8062525,2,1683969858.401083
-0.0069516255,0.02695279,0.9969484,0.00015271631,-0.0030543262,-0.0016798794,-0.08142561,0.25860426,9.8062525,2,1683969858.4062078
-0.0069516255,0.02695279,0.9969484,0.00015271631,0.0030543262,0.001985312,-0.08142561,0.25860426,9.8062525,2,1683969858.4318128
-0.00798827,0.025977125,1.0003022,0.00015271631,0.0030543262,0.001985312,-0.08142561,0.25860426,9.8062525,2,1683969858.4369442
-0.00798827,0.025977125,1.0003022,0.00015271631,0.0030543262,0.001985312,-0.08126046,0.2586106,9.806254,2,1683969858.4471686
-0.00798827,0.025977125,1.0003022,0.00015271631,0.0030543262,0.001985312,-0.081234716,0.25859487,9.806255,2,1683969858.4727814
-0.008902958,0.025489293,0.9993266,0.00015271631,0.0030543262,0.001985312,-0.081234716,0.25859487,9.806255,2,1683969858.4778957
-0.008902958,0.025489293,0.9993266,0.0013744468,0.0018325958,-0.00045814895,-0.081234716,0.25859487,9.806255,2,1683969858.4829926
-0.008963938,0.02646496,1.0027415,0.0013744468,0.0018325958,-0.00045814895,-0.081234716,0.25859487,9.806255,2,1683969858.5034251
-0.008963938,0.02646496,1.0027415,0.00015271631,0.0018325958,0.00076358154,-0.081234716,0.25859487,9.806255,2,1683969858.5085485
-0.008963938,0.02646496,1.0027415,0.00015271631,0.0018325958,0.00076358154,-0.08123712,0.25873607,9.806252,2,1683969858.518773
-0.010366458,0.025977125,0.9993266,0.00015271631,0.0018325958,0.00076358154,-0.08123712,0.25873607,9.806252,2,1683969858.5341594
-0.010366458,0.025977125,0.9993266,0.0013744468,-0.006872234,-0.0016798794,-0.08123712,0.25873607,9.806252,2,1683969858.5392482
-0.010366458,0.025977125,0.9993266,0.0013744468,-0.006872234,-0.0016798794,-0.08127664,0.2587296,9.806252,2,1683969858.5494242
-0.010366458,0.025977125,0.9993266,0.0013744468,-0.00061086525,-0.0016798794,-0.08127664,0.2587296,9.806252,2,1683969858.5596817
-0.009390792,0.028904125,0.9988388,0.0013744468,-0.00061086525,-0.0016798794,-0.08127664,0.2587296,9.806252,2,1683969858.5648093
-0.009390792,0.028904125,0.9988388,0.0013744468,-0.00061086525,-0.0016798794,-0.08129866,0.25866795,9.8062525,2,1683969858.5801544
-0.008902958,0.02695279,0.9974363,0.0013744468,-0.00061086525,-0.0016798794,-0.08129866,0.25866795,9.8062525,2,1683969858.5955014
-0.008902958,0.02695279,0.9974363,0.0013744468,0.0018325958,-0.00045814895,-0.08129866,0.25866795,9.8062525,2,1683969858.6108844
-0.008902958,0.02695279,0.9974363,0.0013744468,0.0018325958,-0.00045814895,-0.081381276,0.25866628,9.806252,2,1683969858.616021
-0.008963938,0.02695279,1.0017658,0.0013744468,0.0018325958,-0.00045814895,-0.081381276,0.25866628,9.806252,2,1683969858.6467197
-0.008963938,0.02695279,1.0017658,0.0013744468,0.0018325958,-0.00045814895,-0.081501216,0.25879115,9.806248,2,1683969858.6518574
-0.008963938,0.02695279,1.0017658,0.0013744468,0.0018325958,-0.00045814895,-0.08188677,0.2595061,9.806226,2,1683969858.6621237
-0.008963938,0.02695279,1.0017658,0.00015271631,0.001985312,0.0021380284,-0.08188677,0.2595061,9.806226,2,1683969858.6722786
-0.009451771,0.02646496,0.9998144,0.00015271631,0.001985312,0.0021380284,-0.08188677,0.2595061,9.806226,2,1683969858.6774108
-0.008902958,0.02792846,0.9964606,0.00015271631,0.001985312,0.0021380284,-0.08188677,0.2595061,9.806226,2,1683969858.7079828
-0.008902958,0.02792846,0.9964606,-0.0010690142,-0.0030543262,-0.0015271631,-0.08188677,0.2595061,9.806226,2,1683969858.713074
-0.008902958,0.02792846,0.9964606,-0.0010690142,-0.0030543262,-0.0015271631,-0.081814,0.25968513,9.806221,2,1683969858.723302
-0.008902958,0.02792846,0.9964606,-0.0010690142,-0.0030543262,-0.0015271631,-0.08182429,0.25959846,9.806224,2,1683969858.7387118
-0.008902958,0.02792846,0.9964606,0.0013744468,0.0032070426,0.0021380284,-0.08182429,0.25959846,9.806224,2,1683969858.75409
-0.007927292,0.02646496,0.9988388,0.0013744468,0.0032070426,0.0021380284,-0.08182429,0.25959846,9.806224,2,1683969858.7592006
-0.008476105,0.025977125,1.0017658,0.0013744468,0.0032070426,0.0021380284,-0.08182429,0.25959846,9.806224,2,1683969858.7694154
-0.008476105,0.025977125,1.0017658,0.0013744468,0.0032070426,0.0021380284,-0.08180984,0.25961992,9.806223,2,1683969858.7745469
-0.008476105,0.025977125,1.0017658,0.00015271631,0.001985312,0.0009162979,-0.08180984,0.25961992,9.806223,2,1683969858.7898588
-0.008476105,0.025977125,1.0017658,0.00015271631,-0.0016798794,-0.0015271631,-0.08180984,0.25961992,9.806223,2,1683969858.8153641
-0.008476105,0.027440626,0.9998144,0.00015271631,-0.0016798794,-0.0015271631,-0.08180984,0.25961992,9.806223,2,1683969858.8204975
-0.008476105,0.027440626,0.9998144,0.00015271631,-0.0016798794,-0.0015271631,-0.081558466,0.2596589,9.806224,2,1683969858.8307226
-0.008476105,0.027440626,0.9998144,0.0013744468,-0.00045814895,-0.0015271631,-0.081558466,0.2596589,9.806224,2,1683969858.8358567
-0.008476105,0.027440626,0.9998144,0.0013744468,-0.00045814895,-0.0015271631,-0.081491485,0.2596972,9.806224,2,1683969858.8461165
-0.009451771,0.02646496,0.9998144,0.0013744468,-0.00045814895,-0.0015271631,-0.081491485,0.2596972,9.806224,2,1683969858.851203
-0.008415125,0.024025792,0.9969484,0.0013744468,-0.00045814895,-0.0015271631,-0.081491485,0.2596972,9.806224,2,1683969858.8871033
-0.008415125,0.024025792,0.9969484,0.0025961774,0.00076358154,0.0009162979,-0.081491485,0.2596972,9.806224,2,1683969858.8922324
-0.008415125,0.024025792,0.9969484,0.0025961774,0.00076358154,0.0009162979,-0.08156108,0.2597407,9.806222,2,1683969858.8973548
-0.008415125,0.024025792,0.9969484,0.0025961774,-0.0016798794,-0.00030543262,-0.08156108,0.2597407,9.806222,2,1683969858.9178834
-0.008415125,0.024025792,0.9969484,0.00015271631,-0.0041233404,0.0009162979,-0.08156108,0.2597407,9.806222,2,1683969858.9332774
-0.008415125,0.024025792,0.9969484,0.00015271631,-0.0041233404,0.0009162979,-0.081043765,0.25976282,9.806226,2,1683969858.94867
-0.008415125,0.025001459,0.9984119,0.00015271631,-0.0041233404,0.0009162979,-0.081043765,0.25976282,9.806226,2,1683969858.9589312
-0.008415125,0.025001459,0.9984119,0.0013744468,-0.0041233404,-0.0015271631,-0.081043765,0.25976282,9.806226,2,1683969858.9640617
-0.008415125,0.025001459,0.9984119,0.0013744468,-0.0041233404,-0.0015271631,-0.08092141,0.2598278,9.806225,2,1683969858.979442
-0.0074394583,0.025977125,0.99987537,0.0013744468,-0.0041233404,-0.0015271631,-0.08092141,0.2598278,9.806225,2,1683969858.984573
-0.0074394583,0.025977125,0.99987537,-0.0022907446,0.00076358154,-0.00030543262,-0.08092141,0.2598278,9.806225,2,1683969858.9998503
-0.0074394583,0.025977125,0.99987537,-0.0022907446,0.00076358154,-0.00030543262,-0.080877446,0.25975052,9.806228,2,1683969859.0304387
-0.0074394583,0.025977125,0.99987537,0.00015271631,0.001985312,-0.00030543262,-0.080877446,0.25975052,9.806228,2,1683969859.0355296
-0.009878625,0.025977125,0.9979241,0.00015271631,0.001985312,-0.00030543262,-0.080877446,0.25975052,9.806228,2,1683969859.040666
-0.0069516255,0.024513626,0.9959728,0.00015271631,0.001985312,-0.00030543262,-0.080877446,0.25975052,9.806228,2,1683969859.0560575
-0.0069516255,0.024513626,0.9959728,0.00015271631,0.001985312,-0.00030543262,-0.080993466,0.25986543,9.806223,2,1683969859.0611508
-0.0069516255,0.024513626,0.9959728,-0.0035124752,-0.009162978,-0.0015271631,-0.080993466,0.25986543,9.806223,2,1683969859.0662796
-0.0069516255,0.024513626,0.9959728,0.0013744468,0.00076358154,0.0009162979,-0.080993466,0.25986543,9.806223,2,1683969859.0918403
-0.0069516255,0.024513626,0.9959728,0.0013744468,0.00076358154,0.0009162979,-0.080812834,0.25974232,9.806228,2,1683969859.0969293
-0.008902958,0.025489293,0.9993266,0.0013744468,0.00076358154,0.0009162979,-0.080812834,0.25974232,9.806228,2,1683969859.1071458
-0.008902958,0.025489293,0.9993266,0.0013744468,-0.0016798794,-0.0015271631,-0.080812834,0.25974232,9.806228,2,1683969859.1276307
-0.008902958,0.025489293,0.9993266,0.0013744468,-0.0016798794,-0.0015271631,-0.08083242,0.25980434,9.806227,2,1683969859.1327643
-0.008476105,0.024513626,1.0003022,0.0013744468,-0.0016798794,-0.0015271631,-0.08083242,0.25980434,9.806227,2,1683969859.1430259
-0.008415125,0.025001459,0.99938756,0.0013744468,-0.0016798794,-0.0015271631,-0.08083242,0.25980434,9.806227,2,1683969859.1634912
-0.008415125,0.025001459,0.99938756,0.0013744468,-0.0016798794,-0.0015271631,-0.080765635,0.25988773,9.806225,2,1683969859.1686213
-0.008415125,0.025001459,0.99938756,-0.0022907446,-0.00061086525,-0.0015271631,-0.080765635,0.25988773,9.806225,2,1683969859.1737518
-0.008415125,0.025001459,0.99938756,0.00015271631,-0.00045814895,0.0009162979,-0.080765635,0.25988773,9.806225,2,1683969859.2096004
-0.008415125,0.025001459,0.99938756,0.00015271631,-0.00045814895,0.0009162979,-0.08174835,0.2605222,9.8062,2,1683969859.214733
-0.007927292,0.02646496,0.9969484,0.00015271631,-0.00045814895,0.0009162979,-0.08174835,0.2605222,9.8062,2,1683969859.2198648
-0.007927292,0.02646496,0.9969484,-0.0010690142,0.001985312,-0.0015271631,-0.08174835,0.2605222,9.8062,2,1683969859.2403288
-0.007927292,0.02646496,0.9969484,-0.0022907446,-0.004276057,-0.00030543262,-0.08174835,0.2605222,9.8062,2,1683969859.2505772
-0.007927292,0.02646496,0.9969484,-0.0022907446,-0.004276057,-0.00030543262,-0.0817861,0.26041898,9.806202,2,1683969859.2608323
-0.007927292,0.025001459,0.99938756,-0.0022907446,-0.004276057,-0.00030543262,-0.0817861,0.26041898,9.806202,2,1683969859.2659705
-0.00798827,0.025977125,0.9998144,-0.0022907446,-0.004276057,-0.00030543262,-0.0817861,0.26041898,9.806202,2,1683969859.2864945
-0.00798827,0.025977125,0.9998144,0.0013744468,-0.00045814895,0.0009162979,-0.0817861,0.26041898,9.806202,2,1683969859.3018064
-0.00798827,0.025977125,0.9998144,0.0013744468,-0.00045814895,0.0009162979,-0.08160798,0.26030794,9.806207,2,1683969859.3170965
-0.00798827,0.025977125,0.9998144,0.0013744468,-0.00045814895,0.0009162979,-0.08165761,0.2604906,9.806202,2,1683969859.332404
-0.00798827,0.025977125,0.9998144,0.0025961774,-0.00045814895,0.0009162979,-0.08165761,0.2604906,9.806202,2,1683969859.3426595
-0.008902958,0.02695279,0.998351,0.0025961774,-0.00045814895,0.0009162979,-0.08165761,0.2604906,9.806202,2,1683969859.352917
-0.0069516255,0.025977125,0.9979241,0.0025961774,-0.00045814895,0.0009162979,-0.08165761,0.2604906,9.806202,2,1683969859.3733273
-0.0069516255,0.025977125,0.9979241,0.0025961774,-0.00045814895,0.0009162979,-0.08184715,0.2605673,9.806198,2,1683969859.3784509
-0.0069516255,0.025977125,0.9979241,0.00015271631,0.001985312,-0.00030543262,-0.08184715,0.2605673,9.806198,2,1683969859.3835735
-0.009878625,0.027440626,0.9988388,0.00015271631,0.001985312,-0.00030543262,-0.08184715,0.2605673,9.806198,2,1683969859.3988469
-0.009878625,0.027440626,0.9988388,0.00015271631,0.001985312,-0.00030543262,-0.08198454,0.26063788,9.806195,2,1683969859.419161
-0.008963938,0.025977125,1.0003022,0.00015271631,0.001985312,-0.00030543262,-0.08198454,0.26063788,9.806195,2,1683969859.4345446
-0.008963938,0.025977125,1.0003022,0.00015271631,0.001985312,-0.00030543262,-0.08211255,0.26066688,9.806192,2,1683969859.4447548
-0.008963938,0.025977125,1.0003022,-0.0010690142,0.00076358154,-0.00030543262,-0.08211255,0.26066688,9.806192,2,1683969859.455014
-0.008963938,0.025977125,1.0003022,-0.0010690142,-0.0016798794,0.0021380284,-0.08211255,0.26066688,9.806192,2,1683969859.4704082
-0.008963938,0.025977125,1.0003022,-0.0010690142,-0.0016798794,0.0021380284,-0.08198845,0.26059183,9.806195,2,1683969859.480674
-0.0075004376,0.025489293,1.0017658,-0.0010690142,-0.0016798794,0.0021380284,-0.08198845,0.26059183,9.806195,2,1683969859.4858057
-0.009390792,0.02646496,0.9964606,-0.0010690142,-0.0016798794,0.0021380284,-0.08198845,0.26059183,9.806195,2,1683969859.5063448
-0.009390792,0.02646496,0.9964606,0.00015271631,-0.00045814895,-0.00030543262,-0.08198845,0.26059183,9.806195,2,1683969859.5319867
-0.009390792,0.02646496,0.9964606,0.00015271631,-0.00045814895,-0.00030543262,-0.083194904,0.26104355,9.806173,2,1683969859.5371213
-0.009390792,0.02646496,0.9964606,0.00015271631,-0.00045814895,-0.00030543262,-0.08326611,0.26119408,9.8061695,2,1683969859.547337
-0.009390792,0.02646496,0.9964606,-0.0010690142,0.001985312,0.0033597588,-0.08326611,0.26119408,9.8061695,2,1683969859.5575933
-0.008415125,0.02695279,0.9984119,-0.0010690142,0.001985312,0.0033597588,-0.08326611,0.26119408,9.8061695,2,1683969859.567852
-0.008415125,0.02695279,0.9984119,-0.0010690142,0.0032070426,-0.00030543262,-0.08326611,0.26119408,9.8061695,2,1683969859.5985577
-0.008415125,0.02695279,0.9984119,-0.0010690142,0.0032070426,-0.00030543262,-0.083438665,0.26112178,9.8061695,2,1683969859.6036873
-0.009390792,0.02646496,0.9984119,-0.0010690142,0.0032070426,-0.00030543262,-0.083438665,0.26112178,9.8061695,2,1683969859.608819
-0.009390792,0.02646496,0.9984119,-0.0010690142,0.0032070426,-0.00030543262,-0.08351317,0.2612949,9.806164,2,1683969859.6241922
-0.009390792,0.02646496,0.9984119,0.0025961774,-0.0016798794,-0.00030543262,-0.08351317,0.2612949,9.806164,2,1683969859.6293285
-0.009390792,0.02841629,0.9993266,0.0025961774,-0.0016798794,-0.00030543262,-0.08351317,0.2612949,9.806164,2,1683969859.634459
-0.009390792,0.02841629,0.9993266,0.0013744468,-0.0016798794,0.0009162979,-0.08351317,0.2612949,9.806164,2,1683969859.6601012
-0.0074394583,0.025977125,0.9969484,0.0013744468,-0.0016798794,0.0009162979,-0.08351317,0.2612949,9.806164,2,1683969859.6703172
-0.0074394583,0.025977125,0.9969484,0.0013744468,-0.0016798794,0.0009162979,-0.083414964,0.26140198,9.806162,2,1683969859.6805634
-0.009390792,0.025977125,0.9979241,0.0013744468,-0.0016798794,0.0009162979,-0.083414964,0.26140198,9.806162,2,1683969859.6908293
-0.009390792,0.025977125,0.9979241,0.0013744468,-0.0016798794,0.0009162979,-0.08315275,0.26137146,9.806166,2,1683969859.7010934
-0.009390792,0.025977125,0.9979241,-0.0022907446,0.001985312,0.0009162979,-0.08315275,0.26137146,9.806166,2,1683969859.7062414
-0.009390792,0.025977125,0.9979241,-0.0022907446,0.001985312,0.0009162979,-0.08321162,0.2612965,9.806167,2,1683969859.7370398
-0.007927292,0.025001459,0.9964606,-0.0022907446,0.001985312,0.0009162979,-0.08321162,0.2612965,9.806167,2,1683969859.7421803
-0.007927292,0.025001459,0.9964606,0.00015271631,0.00076358154,-0.00030543262,-0.08321162,0.2612965,9.806167,2,1683969859.7472808
-0.007927292,0.025001459,0.9964606,0.00015271631,0.00076358154,-0.00030543262,-0.08329018,0.2613034,9.806166,2,1683969859.7626667
-0.008963938,0.025977125,1.0022537,0.00015271631,0.00076358154,-0.00030543262,-0.08329018,0.2613034,9.806166,2,1683969859.7883055
-0.008963938,0.025977125,1.0022537,0.0012217305,-0.0030543262,-0.00030543262,-0.08329018,0.2613034,9.806166,2,1683969859.7934275
-0.008963938,0.025977125,1.0022537,0.0012217305,-0.0030543262,-0.00030543262,-0.08364816,0.26078555,9.806177,2,1683969859.79856
-0.008415125,0.02646496,0.9993266,0.0012217305,-0.0030543262,-0.00030543262,-0.08364816,0.26078555,9.806177,2,1683969859.8139102
-0.008415125,0.02646496,0.9993266,0.0012217305,-0.0030543262,-0.00030543262,-0.083558194,0.2608286,9.806176,2,1683969859.8292086
-0.008415125,0.02646496,0.9993266,-0.0,-0.00061086525,-0.00030543262,-0.083558194,0.2608286,9.806176,2,1683969859.8343723
-0.008415125,0.02646496,0.9993266,-0.0,-0.00061086525,0.0009162979,-0.083558194,0.2608286,9.806176,2,1683969859.849728
-0.008415125,0.02646496,0.9993266,-0.0,-0.00061086525,0.0009162979,-0.083546646,0.26081887,9.806176,2,1683969859.8548565
-0.0074394583,0.025489293,0.9988997,-0.0,-0.00061086525,0.0009162979,-0.083546646,0.26081887,9.806176,2,1683969859.870239
-0.0074394583,0.025489293,0.9988997,-0.0,-0.00061086525,0.0009162979,-0.08343767,0.26082665,9.806177,2,1683969859.885599
-0.008415125,0.02695279,0.9984119,-0.0,-0.00061086525,0.0009162979,-0.08343767,0.26082665,9.806177,2,1683969859.8907313
-0.008415125,0.02695279,0.9984119,0.0012217305,-0.005497787,-0.00030543262,-0.08343767,0.26082665,9.806177,2,1683969859.9009912
-0.008476105,0.02646496,1.0003022,0.0012217305,-0.005497787,-0.00030543262,-0.08343767,0.26082665,9.806177,2,1683969859.9163349
-0.008476105,0.02646496,1.0003022,-0.0,0.00061086525,-0.0015271631,-0.08343767,0.26082665,9.806177,2,1683969859.9265404
-0.008476105,0.02646496,1.0003022,-0.0,0.00061086525,-0.0015271631,-0.08310752,0.26082504,9.80618,2,1683969859.9368002
-0.008476105,0.02646496,1.0003022,-0.0012217305,0.00061086525,-0.0015271631,-0.08310752,0.26082504,9.80618,2,1683969859.957314
-0.008476105,0.02646496,1.0003022,-0.0012217305,0.00061086525,-0.0015271631,-0.083139315,0.26081416,9.80618,2,1683969859.9675756
-0.008415125,0.025977125,0.9988997,-0.0012217305,0.00061086525,-0.0015271631,-0.083139315,0.26081416,9.80618,2,1683969859.9778306
-0.007927292,0.025489293,0.9984119,-0.0012217305,0.00061086525,-0.0015271631,-0.083139315,0.26081416,9.80618,2,1683969859.9880936
-0.007927292,0.025489293,0.9984119,0.0012217305,0.00061086525,-0.0015271631,-0.083139315,0.26081416,9.80618,2,1683969859.9983137
-0.007927292,0.025489293,0.9984119,0.0012217305,0.00061086525,-0.0015271631,-0.08316807,0.26078063,9.806181,2,1683969860.0034373
-0.007927292,0.025489293,0.9984119,0.002443461,0.0018325958,-0.0015271631,-0.08316807,0.26078063,9.806181,2,1683969860.0340433
-0.007927292,0.025489293,0.9984119,0.002443461,0.0018325958,-0.0015271631,-0.083154455,0.26061904,9.806185,2,1683969860.0391822
-0.009390792,0.025001459,0.9979241,0.002443461,0.0018325958,-0.0015271631,-0.083154455,0.26061904,9.806185,2,1683969860.0443134
-0.009390792,0.025001459,0.9979241,0.002443461,0.0018325958,-0.0015271631,-0.08414481,0.25977436,9.8062,2,1683969860.0648232
-0.009390792,0.025001459,0.9979241,-0.0,-0.0018325958,0.0021380284,-0.08414481,0.25977436,9.8062,2,1683969860.0699549
-0.007927292,0.02646496,0.9964606,-0.0,-0.0018325958,0.0021380284,-0.08414481,0.25977436,9.8062,2,1683969860.0802023
-0.008963938,0.025001459,1.0012779,-0.0,-0.0018325958,0.0021380284,-0.08414481,0.25977436,9.8062,2,1683969860.0853415
-0.008963938,0.025001459,1.0012779,-0.0,-0.0030543262,0.0009162979,-0.08414481,0.25977436,9.8062,2,1683969860.090469
-0.008963938,0.025001459,1.0012779,-0.0,-0.0030543262,0.0009162979,-0.08389397,0.25964826,9.806205,2,1683969860.11098
-0.008963938,0.025001459,1.0012779,0.0012217305,0.00061086525,0.0033597588,-0.08389397,0.25964826,9.806205,2,1683969860.126252
-0.008963938,0.025001459,1.0012779,0.0012217305,0.00061086525,0.0033597588,-0.08376804,0.25964224,9.806206,2,1683969860.1364522
-0.007927292,0.02695279,0.99987537,0.0012217305,0.00061086525,0.0033597588,-0.08376804,0.25964224,9.806206,2,1683969860.1518385
-0.008902958,0.025977125,0.9988997,0.0012217305,0.00061086525,0.0033597588,-0.08376804,0.25964224,9.806206,2,1683969860.172331
-0.008902958,0.025977125,0.9988997,0.0012217305,0.00061086525,0.0033597588,-0.08375477,0.25960058,9.806208,2,1683969860.182584
-0.008902958,0.025977125,0.9988997,-0.0,0.00061086525,-0.00030543262,-0.08375477,0.25960058,9.806208,2,1683969860.1877089
-0.008902958,0.025977125,0.9988997,0.0012217305,0.00061086525,0.0009162979,-0.08375477,0.25960058,9.806208,2,1683969860.2082546
-0.0069516255,0.027440626,0.9988997,0.0012217305,0.00061086525,0.0009162979,-0.08375477,0.25960058,9.806208,2,1683969860.2133892
-0.0069516255,0.027440626,0.9988997,0.0012217305,0.00061086525,0.0009162979,-0.083656356,0.2595456,9.80621,2,1683969860.218476
-0.0069516255,0.027440626,0.9988997,-0.0012217305,0.00061086525,-0.0015271631,-0.083656356,0.2595456,9.80621,2,1683969860.2286751
-0.0069516255,0.02695279,0.9984119,-0.0012217305,0.00061086525,-0.0015271631,-0.083656356,0.2595456,9.80621,2,1683969860.2440073
-0.0069516255,0.02695279,0.9984119,-0.0012217305,0.00061086525,-0.0015271631,-0.08350474,0.2595125,9.806212,2,1683969860.25935
-0.00798827,0.025489293,1.0022537,-0.0012217305,0.00061086525,-0.0015271631,-0.08350474,0.2595125,9.806212,2,1683969860.2644837
-0.00798827,0.025489293,1.0022537,-0.0,-0.00061086525,-0.0015271631,-0.08350474,0.2595125,9.806212,2,1683969860.2696135
-0.00798827,0.025489293,1.0022537,-0.0,-0.00061086525,-0.0015271631,-0.08330144,0.25946668,9.806215,2,1683969860.2951846
-0.008415125,0.027440626,0.9993266,-0.0,-0.00061086525,-0.0015271631,-0.08330144,0.25946668,9.806215,2,1683969860.30032
-0.008415125,0.027440626,0.9993266,-0.0,-0.00061086525,-0.0015271631,-0.08333598,0.25958118,9.806211,2,1683969860.3105874
-0.008415125,0.027440626,0.9993266,-0.0012217305,0.0018325958,0.0009162979,-0.08333598,0.25958118,9.806211,2,1683969860.3208065
-0.009451771,0.02695279,0.9998144,-0.0012217305,0.0018325958,0.0009162979,-0.08333598,0.25958118,9.806211,2,1683969860.3412027
-0.009451771,0.02695279,0.9998144,-0.0012217305,0.0018325958,0.0009162979,-0.08295562,0.25982222,9.806209,2,1683969860.3463483
-0.009451771,0.02695279,0.9998144,0.0012217305,0.004276057,0.0009162979,-0.08295562,0.25982222,9.806209,2,1683969860.3566597
-0.009451771,0.02695279,0.9998144,-0.0,-0.0018325958,-0.0015271631,-0.08295562,0.25982222,9.806209,2,1683969860.3771787
-0.010366458,0.027440626,0.9993266,-0.0,-0.0018325958,-0.0015271631,-0.08295562,0.25982222,9.806209,2,1683969860.3823097
-0.010366458,0.027440626,0.9993266,-0.0,-0.0018325958,-0.0015271631,-0.08315691,0.25976455,9.806208,2,1683969860.3874342
-0.010366458,0.027440626,0.9993266,-0.0,-0.0018325958,-0.0015271631,-0.08293205,0.2597781,9.80621,2,1683969860.407964
-0.008415125,0.02646496,0.9964606,-0.0,-0.0018325958,-0.0015271631,-0.08293205,0.2597781,9.80621,2,1683969860.4182262
-0.008415125,0.02646496,0.9964606,-0.0012217305,-0.0018325958,-0.00030543262,-0.08293205,0.2597781,9.80621,2,1683969860.4233327
-0.008902958,0.02646496,0.9974363,-0.0012217305,-0.0018325958,-0.00030543262,-0.08293205,0.2597781,9.80621,2,1683969860.4437578
-0.008902958,0.02646496,0.9974363,-0.0012217305,0.0018325958,-0.00030543262,-0.08293205,0.2597781,9.80621,2,1683969860.4540188
-0.008902958,0.02646496,0.9974363,-0.0012217305,0.0018325958,-0.00030543262,-0.082850434,0.25977862,9.8062105,2,1683969860.4591527
-0.008902958,0.02646496,0.9974363,0.0012217305,-0.00061086525,-0.00030543262,-0.082850434,0.25977862,9.8062105,2,1683969860.4745395
-0.007927292,0.02646496,0.9984119,0.0012217305,-0.00061086525,-0.00030543262,-0.082850434,0.25977862,9.8062105,2,1683969860.4848049
-0.007927292,0.02646496,0.9984119,0.0012217305,-0.00061086525,-0.00030543262,-0.08285992,0.25966457,9.806213,2,1683969860.5001593
-0.007927292,0.02646496,0.9984119,0.0012217305,0.00061086525,-0.00030543262,-0.08285992,0.25966457,9.806213,2,1683969860.5155256
-0.008415125,0.027440626,0.9984119,0.0012217305,0.00061086525,-0.00030543262,-0.08285992,0.25966457,9.806213,2,1683969860.5206723
-0.008415125,0.027440626,0.9984119,0.0012217305,0.00061086525,-0.00030543262,-0.0827107,0.25952733,9.806218,2,1683969860.5257664
-0.008415125,0.027440626,0.9984119,0.0012217305,0.00061086525,-0.00030543262,-0.08268227,0.25955474,9.806218,2,1683969860.5512817
-0.008415125,0.027440626,0.9984119,0.0012217305,0.0018325958,-0.00030543262,-0.08268227,0.25955474,9.806218,2,1683969860.5615454
-0.008415125,0.02792846,0.9974363,0.0012217305,0.0018325958,-0.00030543262,-0.08268227,0.25955474,9.806218,2,1683969860.5666778
-0.008415125,0.02792846,0.9974363,0.002443461,0.00061086525,0.0009162979,-0.08268227,0.25955474,9.806218,2,1683969860.5768974
-0.008415125,0.02792846,0.9974363,0.002443461,0.00061086525,0.0009162979,-0.08274819,0.2596914,9.806213,2,1683969860.5922914
-0.0069516255,0.025977125,0.9959728,0.002443461,0.00061086525,0.0009162979,-0.08274819,0.2596914,9.806213,2,1683969860.597422
-0.0069516255,0.025977125,0.9959728,0.002443461,0.00061086525,0.0009162979,-0.08395107,0.25936866,9.806211,2,1683969860.6128168
-0.008902958,0.02695279,0.9993266,0.002443461,0.00061086525,0.0009162979,-0.08395107,0.25936866,9.806211,2,1683969860.6230752
-0.008902958,0.02695279,0.9993266,-0.0,-0.00061086525,0.0009162979,-0.08395107,0.25936866,9.806211,2,1683969860.633254
-0.008902958,0.025489293,0.9979241,-0.0,-0.00061086525,0.0009162979,-0.08395107,0.25936866,9.806211,2,1683969860.638349
-0.008902958,0.025489293,0.9979241,0.0012217305,-0.0030543262,-0.0027488936,-0.08395107,0.25936866,9.806211,2,1683969860.6485593
-0.008902958,0.025489293,0.9979241,0.0012217305,-0.0030543262,-0.0027488936,-0.08409389,0.25943267,9.806209,2,1683969860.6639485
-0.009390792,0.025977125,0.9984119,0.0012217305,-0.0030543262,-0.0027488936,-0.08409389,0.25943267,9.806209,2,1683969860.684394
-0.009390792,0.025977125,0.9984119,0.0012217305,-0.0030543262,-0.0027488936,-0.084053256,0.25949594,9.806208,2,1683969860.6946614
-0.009390792,0.025977125,0.9984119,-0.0,0.0018325958,-0.0015271631,-0.084053256,0.25949594,9.806208,2,1683969860.6998005
-0.009390792,0.025977125,0.9984119,-0.0012217305,0.00061086525,0.0009162979,-0.084053256,0.25949594,9.806208,2,1683969860.7203276
-0.0075004376,0.02646496,1.0012779,-0.0012217305,0.00061086525,0.0009162979,-0.084053256,0.25949594,9.806208,2,1683969860.7254577
-0.0075004376,0.02646496,1.0012779,-0.0012217305,0.00061086525,0.0009162979,-0.08404505,0.2594671,9.806208,2,1683969860.7356572
-0.0075004376,0.02646496,1.0012779,-0.0036651916,0.00045814895,-0.00030543262,-0.08404505,0.2594671,9.806208,2,1683969860.7560515
-0.0075004376,0.02646496,1.0012779,-0.0036651916,0.00045814895,-0.00030543262,-0.084109865,0.2594307,9.806209,2,1683969860.7663028
-0.009451771,0.02646496,1.0007901,-0.0036651916,0.00045814895,-0.00030543262,-0.084109865,0.2594307,9.806209,2,1683969860.7714324
-0.008902958,0.025977125,0.9974363,-0.0036651916,0.00045814895,-0.00030543262,-0.084109865,0.2594307,9.806209,2,1683969860.7816925
-0.008902958,0.025977125,0.9974363,-0.0,0.00061086525,-0.00030543262,-0.084109865,0.2594307,9.806209,2,1683969860.7868228
-0.008902958,0.025977125,0.9974363,-0.0,0.00061086525,-0.00030543262,-0.08392695,0.25932202,9.806213,2,1683969860.7970836
-0.008902958,0.025977125,0.9974363,-0.0,0.00061086525,-0.00030543262,-0.08388192,0.25933513,9.806213,2,1683969860.827821
-0.008902958,0.025977125,0.9974363,-0.0,-0.00061086525,0.0009162979,-0.08388192,0.25933513,9.806213,2,1683969860.8380435
-0.008415125,0.02786748,0.9954849,-0.0,-0.00061086525,0.0009162979,-0.08388192,0.25933513,9.806213,2,1683969860.8431962
-0.008415125,0.02786748,0.9954849,-0.0036651916,0.0018325958,0.0021380284,-0.08388192,0.25933513,9.806213,2,1683969860.8688107
-0.009390792,0.02695279,0.9978631,-0.0036651916,0.0018325958,0.0021380284,-0.08388192,0.25933513,9.806213,2,1683969860.8739424
-0.009390792,0.02695279,0.9978631,-0.0,-0.004276057,-0.00030543262,-0.08388192,0.25933513,9.806213,2,1683969860.889293
-0.009390792,0.02695279,0.9978631,-0.0,-0.004276057,-0.00030543262,-0.08267,0.25881624,9.806237,2,1683969860.8995214
-0.008415125,0.025489293,0.9969484,-0.0,-0.004276057,-0.00030543262,-0.08267,0.25881624,9.806237,2,1683969860.9097342
-0.008415125,0.025489293,0.9969484,-0.0,-0.004276057,-0.00030543262,-0.082505725,0.25875783,9.80624,2,1683969860.92512
-0.008415125,0.025489293,0.9969484,-0.0,0.0018325958,-0.00030543262,-0.082505725,0.25875783,9.80624,2,1683969860.935303
-0.008415125,0.027440626,0.9979241,-0.0,0.0018325958,-0.00030543262,-0.082505725,0.25875783,9.80624,2,1683969860.9404335
-0.008963938,0.02646496,1.0007901,-0.0,0.0018325958,-0.00030543262,-0.082505725,0.25875783,9.80624,2,1683969860.966094
-0.008963938,0.02646496,1.0007901,-0.0,0.00061086525,0.0009162979,-0.082505725,0.25875783,9.80624,2,1683969860.976303
-0.008963938,0.02646496,1.0007901,-0.0,0.00061086525,0.0009162979,-0.0825877,0.25872925,9.80624,2,1683969860.981434
-0.008963938,0.02646496,1.0007901,-0.0,-0.0018325958,0.0009162979,-0.0825877,0.25872925,9.80624,2,1683969860.9865646
-0.008415125,0.027440626,0.9993266,-0.0,-0.0018325958,0.0009162979,-0.0825877,0.25872925,9.80624,2,1683969860.991696
-0.008415125,0.027440626,0.9993266,-0.0,-0.0018325958,0.0009162979,-0.08252174,0.25881436,9.806238,2,1683969861.0019581
-0.008902958,0.023537958,0.9988388,-0.0,-0.0018325958,0.0009162979,-0.08252174,0.25881436,9.806238,2,1683969861.0276253
-0.008902958,0.023537958,0.9988388,0.0012217305,0.0018325958,-0.0015271631,-0.08252174,0.25881436,9.806238,2,1683969861.04299
-0.008902958,0.023537958,0.9988388,0.0012217305,0.0018325958,-0.0015271631,-0.082503244,0.25874016,9.806241,2,1683969861.0532317
-0.007927292,0.02646496,0.9984119,0.0012217305,0.0018325958,-0.0015271631,-0.082503244,0.25874016,9.806241,2,1683969861.0737398
-0.007927292,0.02646496,0.9984119,-0.0,0.00061086525,0.0009162979,-0.082503244,0.25874016,9.806241,2,1683969861.0788727
-0.007927292,0.02646496,0.9984119,-0.0,0.00061086525,0.0009162979,-0.082468785,0.2586568,9.806243,2,1683969861.084006
-0.007927292,0.02646496,0.9984119,0.0012217305,0.0018325958,0.0021380284,-0.082468785,0.2586568,9.806243,2,1683969861.0993602
-0.007927292,0.02646496,0.9984119,0.0012217305,0.0018325958,0.0021380284,-0.08239374,0.25863504,9.806245,2,1683969861.1147034
-0.008902958,0.025001459,0.9969484,0.0012217305,0.0018325958,0.0021380284,-0.08239374,0.25863504,9.806245,2,1683969861.1197932
-0.008902958,0.025001459,0.9969484,-0.0012217305,-0.00061086525,-0.00030543262,-0.08239374,0.25863504,9.806245,2,1683969861.1402779
-0.009451771,0.025977125,1.0007901,-0.0012217305,-0.00061086525,-0.00030543262,-0.08239374,0.25863504,9.806245,2,1683969861.1453688
-0.008415125,0.02646496,0.9988997,-0.0012217305,-0.00061086525,-0.00030543262,-0.08239374,0.25863504,9.806245,2,1683969861.1555676
-0.008415125,0.02646496,0.9988997,0.002443461,-0.00061086525,0.0021380284,-0.08239374,0.25863504,9.806245,2,1683969861.1760836
-0.008415125,0.024025792,0.99987537,0.002443461,-0.00061086525,0.0021380284,-0.08239374,0.25863504,9.806245,2,1683969861.1914496
-0.008415125,0.024025792,0.99987537,0.002443461,-0.00061086525,0.0021380284,-0.08302697,0.258685,9.806237,2,1683969861.2017097
-0.008415125,0.024025792,0.99987537,0.002443461,-0.00061086525,0.0021380284,-0.08301024,0.25876755,9.806235,2,1683969861.2222085
-0.008415125,0.024025792,0.99987537,-0.002443461,-0.001985312,-0.00030543262,-0.08301024,0.25876755,9.806235,2,1683969861.227301
-0.008902958,0.025977125,0.9988997,-0.002443461,-0.001985312,-0.00030543262,-0.08301024,0.25876755,9.806235,2,1683969861.2375567
-0.008902958,0.025977125,0.9988997,0.0012217305,-0.0030543262,-0.00030543262,-0.08301024,0.25876755,9.806235,2,1683969861.2579198
-0.007927292,0.025977125,0.9969484,0.0012217305,-0.0030543262,-0.00030543262,-0.08301024,0.25876755,9.806235,2,1683969861.2630396
-0.007927292,0.025977125,0.9969484,0.0012217305,-0.0030543262,-0.00030543262,-0.08285588,0.2586914,9.806239,2,1683969861.2732973
-0.009390792,0.02695279,0.998351,0.0012217305,-0.0030543262,-0.00030543262,-0.08285588,0.2586914,9.806239,2,1683969861.293808
-0.009390792,0.02695279,0.998351,0.0012217305,0.005497787,0.0021380284,-0.08285588,0.2586914,9.806239,2,1683969861.2989364
-0.009390792,0.02695279,0.998351,0.0012217305,0.005497787,0.0021380284,-0.082786195,0.25866497,9.80624,2,1683969861.3040621
-0.009390792,0.02695279,0.998351,-0.002443461,-0.00076358154,-0.00030543262,-0.082786195,0.25866497,9.80624,2,1683969861.3194032
-0.008476105,0.025001459,1.0012779,-0.002443461,-0.00076358154,-0.00030543262,-0.082786195,0.25866497,9.80624,2,1683969861.3245358
-0.008476105,0.025001459,1.0012779,-0.002443461,-0.00076358154,-0.00030543262,-0.08282328,0.2587728,9.806237,2,1683969861.345021
-0.00798827,0.02695279,0.9998144,-0.002443461,-0.00076358154,-0.00030543262,-0.08282328,0.2587728,9.806237,2,1683969861.3602939
-0.00798827,0.02695279,0.9998144,-0.002443461,-0.00076358154,-0.00030543262,-0.08283146,0.25872535,9.806238,2,1683969861.365375
-0.00798827,0.02695279,0.9998144,0.0012217305,0.00061086525,-0.0015271631,-0.08283146,0.25872535,9.806238,2,1683969861.3756351
-0.009390792,0.02646496,0.9979241,0.0012217305,0.00061086525,-0.0015271631,-0.08283146,0.25872535,9.806238,2,1683969861.396149
-0.009390792,0.02646496,0.9979241,0.0012217305,0.00061086525,-0.0015271631,-0.082836665,0.25878882,9.806236,2,1683969861.4064143
-0.009390792,0.02646496,0.9979241,-0.0,-0.00061086525,-0.00030543262,-0.082836665,0.25878882,9.806236,2,1683969861.4166846
-0.0064637917,0.02646496,0.9969484,-0.0,-0.00061086525,-0.00030543262,-0.082836665,0.25878882,9.806236,2,1683969861.426904
-0.0064637917,0.02646496,0.9969484,-0.0,-0.00061086525,-0.00030543262,-0.08217902,0.25870872,9.806244,2,1683969861.4371583
-0.007927292,0.02646496,0.9984119,-0.0,-0.00061086525,-0.00030543262,-0.08217902,0.25870872,9.806244,2,1683969861.4524345
-0.007927292,0.02646496,0.9984119,-0.0010690142,0.00061086525,0.0009162979,-0.08217902,0.25870872,9.806244,2,1683969861.4626722
-0.008415125,0.027440626,0.9974363,-0.0010690142,0.00061086525,0.0009162979,-0.08217902,0.25870872,9.806244,2,1683969861.4677892
-0.008415125,0.027440626,0.9974363,-0.0010690142,0.00061086525,0.0009162979,-0.08225238,0.2586973,9.806244,2,1683969861.4728937
-0.008415125,0.027440626,0.9974363,-0.0035124752,0.0030543262,0.0009162979,-0.08225238,0.2586973,9.806244,2,1683969861.478028
-0.008415125,0.027440626,0.9974363,-0.0035124752,0.0030543262,0.0009162979,-0.08223618,0.25872537,9.806244,2,1683969861.5241568
-0.0074394583,0.025001459,0.9979241,-0.0035124752,0.0030543262,0.0009162979,-0.08223618,0.25872537,9.806244,2,1683969861.5292854
-0.0074394583,0.025001459,0.9979241,-0.0010690142,0.00061086525,-0.00030543262,-0.08223618,0.25872537,9.806244,2,1683969861.5344186
-0.0074394583,0.025001459,0.9979241,-0.0010690142,0.00061086525,-0.00030543262,-0.08230071,0.2587021,9.806244,2,1683969861.5446815
-0.0069516255,0.027440626,0.9984119,-0.0010690142,0.00061086525,-0.00030543262,-0.08230071,0.2587021,9.806244,2,1683969861.554896
-0.0069516255,0.027440626,0.9984119,0.00015271631,-0.0030543262,-0.0015271631,-0.08230071,0.2587021,9.806244,2,1683969861.5701737
-0.0069516255,0.027440626,0.9984119,0.00015271631,-0.0030543262,-0.0015271631,-0.08203105,0.25879768,9.806243,2,1683969861.5752487
-0.0069516255,0.027440626,0.9984119,0.0013744468,-0.00061086525,-0.00030543262,-0.08203105,0.25879768,9.806243,2,1683969861.5906286
-0.0069516255,0.027440626,0.9993266,0.0013744468,-0.00061086525,-0.00030543262,-0.08203105,0.25879768,9.806243,2,1683969861.5957575
-0.008415125,0.02646496,0.9988388,0.0013744468,-0.00061086525,-0.00030543262,-0.08203105,0.25879768,9.806243,2,1683969861.6111507
-0.008415125,0.02646496,0.9988388,-0.0022907446,0.0018325958,-0.00030543262,-0.08203105,0.25879768,9.806243,2,1683969861.626542
-0.008415125,0.02646496,0.9988388,-0.0022907446,0.0018325958,-0.00030543262,-0.08197891,0.25884244,9.806242,2,1683969861.6419306
-0.008415125,0.02646496,0.9988388,-0.0022907446,0.0018325958,-0.00030543262,-0.08207439,0.25875065,9.806244,2,1683969861.6470625
-0.009878625,0.027440626,0.9973753,-0.0022907446,0.0018325958,-0.00030543262,-0.08207439,0.25875065,9.806244,2,1683969861.6521952
-0.009878625,0.027440626,0.9973753,0.0025961774,0.004276057,-0.00030543262,-0.08207439,0.25875065,9.806244,2,1683969861.6777034
-0.009878625,0.027440626,0.9973753,0.0025961774,0.004276057,-0.00030543262,-0.082246974,0.25885895,9.806239,2,1683969861.6879494
-0.009878625,0.027440626,0.9973753,0.0013744468,0.00061086525,0.0021380284,-0.082246974,0.25885895,9.806239,2,1683969861.6930788
-0.009390792,0.02646496,0.9969484,0.0013744468,0.00061086525,0.0021380284,-0.082246974,0.25885895,9.806239,2,1683969861.698207
-0.009390792,0.02646496,0.9969484,0.0013744468,0.00061086525,0.0021380284,-0.08288846,0.25862095,9.806241,2,1683969861.7135825
-0.009390792,0.02646496,0.9969484,0.0013744468,0.0030543262,-0.0027488936,-0.08288846,0.25862095,9.806241,2,1683969861.734045
-0.009390792,0.02646496,0.9969484,0.0013744468,0.00061086525,-0.00030543262,-0.08288846,0.25862095,9.806241,2,1683969861.7545366
-0.008902958,0.025489293,0.99938756,0.0013744468,0.00061086525,-0.00030543262,-0.08288846,0.25862095,9.806241,2,1683969861.7596598
-0.008902958,0.025489293,0.99938756,0.0013744468,0.00061086525,-0.00030543262,-0.08307061,0.2587454,9.806235,2,1683969861.7647874
-0.008902958,0.025489293,0.99938756,0.0013744468,0.00061086525,-0.00030543262,-0.08297752,0.258802,9.806234,2,1683969861.7749903
-0.010854292,0.02646496,0.9974363,0.0013744468,0.00061086525,-0.00030543262,-0.08297752,0.258802,9.806234,2,1683969861.7903347
-0.010854292,0.02646496,0.9974363,0.0013744468,-0.0018325958,-0.00030543262,-0.08297752,0.258802,9.806234,2,1683969861.8056927
-0.0074394583,0.025977125,0.9974363,0.0013744468,-0.0018325958,-0.00030543262,-0.08297752,0.258802,9.806234,2,1683969861.810824
-0.0074394583,0.025977125,0.9974363,0.0013744468,-0.0018325958,-0.00030543262,-0.08281921,0.2588825,9.806234,2,1683969861.8363955
-0.0074394583,0.025977125,0.9974363,0.0013744468,-0.0018325958,-0.00030543262,-0.08270104,0.25904563,9.806231,2,1683969861.8568866
-0.0074394583,0.025977125,0.9974363,0.00015271631,-0.0030543262,-0.00030543262,-0.08270104,0.25904563,9.806231,2,1683969861.861983
-0.0064637917,0.02792846,0.99938756,0.00015271631,-0.0030543262,-0.00030543262,-0.08270104,0.25904563,9.806231,2,1683969861.8721468
-0.0064637917,0.02792846,0.99938756,-0.0010690142,-0.004428773,-0.00030543262,-0.08270104,0.25904563,9.806231,2,1683969861.892607
-0.00798827,0.027440626,1.0012779,-0.0010690142,-0.004428773,-0.00030543262,-0.08270104,0.25904563,9.806231,2,1683969861.9079957
-0.00798827,0.027440626,1.0012779,-0.0010690142,-0.004428773,-0.00030543262,-0.082427315,0.25921717,9.806229,2,1683969861.9131272
-0.00798827,0.02646496,1.0007901,-0.0010690142,-0.004428773,-0.00030543262,-0.082427315,0.25921717,9.806229,2,1683969861.9336047
-0.00798827,0.02646496,1.0007901,0.00015271631,0.00061086525,-0.00030543262,-0.082427315,0.25921717,9.806229,2,1683969861.9438653
-0.00798827,0.02646496,1.0007901,0.00015271631,0.00061086525,-0.00030543262,-0.08238721,0.2592565,9.806228,2,1683969861.948991
-0.00798827,0.02646496,1.0007901,0.00015271631,0.00061086525,-0.00030543262,-0.08242177,0.25920907,9.806229,2,1683969861.9745562
-0.008415125,0.027440626,0.9974363,0.00015271631,0.00061086525,-0.00030543262,-0.08242177,0.25920907,9.806229,2,1683969861.9796882
-0.008415125,0.027440626,0.9974363,-0.0010690142,-0.0030543262,0.0009162979,-0.08242177,0.25920907,9.806229,2,1683969861.984818
-0.008415125,0.027440626,0.9974363,-0.0010690142,-0.0030543262,0.0009162979,-0.082288526,0.25884002,9.806239,2,1683969861.9899487
-0.008415125,0.027440626,0.9974363,-0.0022907446,-0.00076358154,-0.00030543262,-0.082288526,0.25884002,9.806239,2,1683969861.9950812
-0.008902958,0.02695279,0.9969484,-0.0022907446,-0.00076358154,-0.00030543262,-0.082288526,0.25884002,9.806239,2,1683969862.020765
-0.008902958,0.02695279,0.9969484,0.0013744468,-0.00061086525,-0.00030543262,-0.082288526,0.25884002,9.806239,2,1683969862.025894
-0.008902958,0.02695279,0.9969484,0.0013744468,-0.00061086525,-0.00030543262,-0.08229067,0.25879648,9.806241,2,1683969862.0310256
-0.008902958,0.02695279,0.9969484,0.0013744468,-0.00061086525,-0.00030543262,-0.08231659,0.25884792,9.806239,2,1683969862.0464048
-0.008902958,0.02695279,0.9969484,0.0025961774,-0.00061086525,0.0009162979,-0.08231659,0.25884792,9.806239,2,1683969862.0617738
-0.008415125,0.02792846,0.9969484,0.0025961774,-0.00061086525,0.0009162979,-0.08231659,0.25884792,9.806239,2,1683969862.066867
-0.008415125,0.02792846,0.9969484,-0.0010690142,0.0030543262,0.0009162979,-0.08231659,0.25884792,9.806239,2,1683969862.087368
-0.008415125,0.02792846,0.9969484,-0.0010690142,0.0030543262,0.0009162979,-0.08233626,0.2589413,9.806237,2,1683969862.0924892
-0.008415125,0.025489293,0.99938756,-0.0010690142,0.0030543262,0.0009162979,-0.08233626,0.2589413,9.806237,2,1683969862.0976229
-0.008415125,0.025489293,0.99938756,-0.0010690142,0.0030543262,0.0009162979,-0.08248784,0.25887555,9.806237,2,1683969862.1283133
-0.00798827,0.02792846,1.0003022,-0.0010690142,0.0030543262,0.0009162979,-0.08248784,0.25887555,9.806237,2,1683969862.1334465
-0.00798827,0.02792846,1.0003022,0.0013744468,-0.00061086525,-0.0015271631,-0.08248784,0.25887555,9.806237,2,1683969862.1437137
-0.00798827,0.02792846,1.0003022,-0.0035124752,0.00045814895,-0.00030543262,-0.08248784,0.25887555,9.806237,2,1683969862.1539881
-0.008902958,0.028843146,0.9964606,-0.0035124752,0.00045814895,-0.00030543262,-0.08248784,0.25887555,9.806237,2,1683969862.1642563
-0.008902958,0.028843146,0.9964606,-0.0035124752,0.00045814895,-0.00030543262,-0.082567625,0.25884926,9.806237,2,1683969862.1693864
-0.009390792,0.02695279,0.9993266,-0.0035124752,0.00045814895,-0.00030543262,-0.082567625,0.25884926,9.806237,2,1683969862.1950526
-0.009390792,0.02695279,0.9993266,-0.0010690142,-0.0018325958,-0.00030543262,-0.082567625,0.25884926,9.806237,2,1683969862.2001836
-0.009390792,0.02695279,0.9993266,-0.0010690142,-0.0018325958,-0.00030543262,-0.08261037,0.25877717,9.806239,2,1683969862.2104566
-0.009390792,0.02695279,0.9993266,-0.0010690142,-0.0018325958,-0.00030543262,-0.08265087,0.25874624,9.806239,2,1683969862.225844
-0.008476105,0.025977125,1.0003022,-0.0010690142,-0.0018325958,-0.00030543262,-0.08265087,0.25874624,9.806239,2,1683969862.236059
-0.008476105,0.025977125,1.0003022,0.00015271631,0.00061086525,-0.003970624,-0.08265087,0.25874624,9.806239,2,1683969862.2411888
-0.008476105,0.025977125,1.0003022,0.00015271631,0.00061086525,-0.003970624,-0.08269243,0.2586307,9.806242,2,1683969862.2668345
-0.008902958,0.025489293,0.9964606,0.00015271631,0.00061086525,-0.003970624,-0.08269243,0.2586307,9.806242,2,1683969862.2822194
-0.008902958,0.025489293,0.9964606,0.0013744468,-0.00061086525,-0.0027488936,-0.08269243,0.2586307,9.806242,2,1683969862.287315
-0.008902958,0.025489293,0.9964606,0.0013744468,-0.00061086525,-0.0027488936,-0.08254617,0.25850686,9.806247,2,1683969862.2924492
-0.008902958,0.025489293,0.9964606,0.0013744468,-0.00061086525,-0.0027488936,-0.08236565,0.2585985,9.806246,2,1683969862.3181083
-0.008902958,0.025001459,0.9969484,0.0013744468,-0.00061086525,-0.0027488936,-0.08236565,0.2585985,9.806246,2,1683969862.3231983
-0.008902958,0.025001459,0.9969484,0.0013744468,-0.0018325958,-0.00030543262,-0.08236565,0.2585985,9.806246,2,1683969862.3334606
-0.008902958,0.025001459,0.9969484,0.0025961774,-0.00061086525,0.0009162979,-0.08236565,0.2585985,9.806246,2,1683969862.3437197
-0.008902958,0.025001459,0.9969484,0.0025961774,-0.00061086525,0.0009162979,-0.08242096,0.25873426,9.806242,2,1683969862.3590724
-0.0074394583,0.027440626,0.99938756,0.0025961774,-0.00061086525,0.0009162979,-0.08242096,0.25873426,9.806242,2,1683969862.3642023
-0.0070126047,0.02646496,1.0003633,0.0025961774,-0.00061086525,0.0009162979,-0.08242096,0.25873426,9.806242,2,1683969862.3847134
-0.0070126047,0.02646496,1.0003633,0.0025961774,-0.00061086525,0.0009162979,-0.08243119,0.25882143,9.806239,2,1683969862.4001005
-0.0070126047,0.02646496,1.0003633,0.00015271631,-0.006872234,0.0009162979,-0.08243119,0.25882143,9.806239,2,1683969862.405231
-0.0070126047,0.02646496,1.0003633,0.00015271631,-0.006872234,0.0009162979,-0.08222958,0.25899386,9.806236,2,1683969862.4206083
-0.0064637917,0.025489293,0.9988997,0.00015271631,-0.006872234,0.0009162979,-0.08222958,0.25899386,9.806236,2,1683969862.4359891
-0.0064637917,0.025489293,0.9988997,0.0013744468,0.00061086525,0.0009162979,-0.08222958,0.25899386,9.806236,2,1683969862.4462461
-0.0064637917,0.025489293,0.9988997,0.0013744468,0.00061086525,0.0009162979,-0.0822825,0.25909442,9.806233,2,1683969862.4513397
-0.0064637917,0.025489293,0.9988997,0.00015271631,0.00061086525,0.0021380284,-0.0822825,0.25909442,9.806233,2,1683969862.4615855
-0.008963938,0.02792846,1.0012779,0.00015271631,0.00061086525,0.0021380284,-0.0822825,0.25909442,9.806233,2,1683969862.4768975
-0.008902958,0.02646496,0.9984119,0.00015271631,0.00061086525,0.0021380284,-0.0822825,0.25909442,9.806233,2,1683969862.4871137
-0.008902958,0.02646496,0.9984119,0.0013744468,0.004276057,-0.0015271631,-0.0822825,0.25909442,9.806233,2,1683969862.4973767
-0.008902958,0.02646496,0.9984119,0.0013744468,0.004276057,-0.0015271631,-0.08221887,0.2591359,9.806232,2,1683969862.512719
-0.008902958,0.02646496,0.9984119,0.0013744468,0.004276057,-0.0015271631,-0.08233682,0.2591937,9.806231,2,1683969862.5332403
-0.008902958,0.02646496,0.9984119,0.0025961774,-0.008093964,-0.0013744468,-0.08233682,0.2591937,9.806231,2,1683969862.543487
