acc_x,acc_y,acc_z,gyr_x,gyr_y,gyr_z,grav_x,grav_y,grav_z,label,timestamp
-0.008963938,0.02646496,0.9998144,-0.0012217305,-0.0018325958,-0.00030543262,-0.07672269,0.27285835,9.805905,2,1683969926.475161
-0.008963938,0.02646496,0.9998144,-0.0012217305,-0.0018325958,-0.00030543262,-0.076507784,0.27296045,9.805903,2,1683969926.4805365
-0.008963938,0.02646496,0.9998144,-0.0012217305,-0.0018325958,-0.00030543262,-0.07653245,0.2729598,9.805903,2,1683969926.4909694
-0.008963938,0.02646496,0.9998144,-0.0012217305,-0.00061086525,-0.00030543262,-0.07653245,0.2729598,9.805903,2,1683969926.4962006
-0.0074394583,0.02792846,0.9978631,-0.0012217305,-0.00061086525,-0.00030543262,-0.07653245,0.2729598,9.805903,2,1683969926.5013466
-0.0074394583,0.02841629,0.9978631,-0.0012217305,-0.00061086525,-0.00030543262,-0.07653245,0.2729598,9.805903,2,1683969926.521753
-0.0074394583,0.02841629,0.9978631,0.0012217305,0.0030543262,-0.00030543262,-0.07653245,0.2729598,9.805903,2,1683969926.526843
-0.0074394583,0.02841629,0.9978631,0.0012217305,0.0030543262,-0.00030543262,-0.076576464,0.27295476,9.805903,2,1683969926.5370028
-0.0074394583,0.02841629,0.9978631,0.0012217305,0.0030543262,-0.00030543262,-0.076533824,0.27306092,9.805901,2,1683969926.5623496
-0.0074394583,0.02841629,0.9978631,0.002443461,-0.0030543262,-0.0013744468,-0.076533824,0.27306092,9.805901,2,1683969926.5674295
-0.0059759584,0.02646496,0.9973753,0.002443461,-0.0030543262,-0.0013744468,-0.076533824,0.27306092,9.805901,2,1683969926.57251
-0.0064637917,0.02792846,0.9988388,0.002443461,-0.0030543262,-0.0013744468,-0.076533824,0.27306092,9.805901,2,1683969926.5775876
-0.0064637917,0.02792846,0.9988388,0.0012217305,-0.00061086525,-0.00030543262,-0.076533824,0.27306092,9.805901,2,1683969926.5928202
-0.0064637917,0.02792846,0.9988388,0.0012217305,-0.00061086525,-0.00030543262,-0.076383755,0.27313712,9.8059,2,1683969926.6080604
-0.007927292,0.025977125,0.9973753,0.0012217305,-0.00061086525,-0.00030543262,-0.076383755,0.27313712,9.8059,2,1683969926.6131413
-0.007927292,0.025977125,0.9973753,-0.0012217305,-0.0030543262,0.0009162979,-0.076383755,0.27313712,9.8059,2,1683969926.638538
-0.007927292,0.025977125,0.9973753,-0.0012217305,-0.0030543262,0.0009162979,-0.07643037,0.27316296,9.805899,2,1683969926.6436143
-0.007927292,0.025977125,0.9973753,0.002443461,-0.005497787,0.0022907446,-0.07643037,0.27316296,9.805899,2,1683969926.6537755
-0.007927292,0.025977125,0.9973753,0.002443461,-0.005497787,0.0022907446,-0.076413274,0.27305558,9.8059025,2,1683969926.6639376
-0.008415125,0.028904125,0.9978021,0.002443461,-0.005497787,0.0022907446,-0.076413274,0.27305558,9.8059025,2,1683969926.6740952
-0.008415125,0.028904125,0.9978021,0.0012217305,0.00061086525,-0.0015271631,-0.076413274,0.27305558,9.8059025,2,1683969926.6893246
-0.008963938,0.02792846,0.9997535,0.0012217305,0.00061086525,-0.0015271631,-0.076413274,0.27305558,9.8059025,2,1683969926.6944003
-0.008963938,0.02792846,0.9997535,0.0012217305,0.00061086525,-0.0015271631,-0.0763975,0.27322513,9.805898,2,1683969926.7147083
-0.008963938,0.02792846,0.9997535,0.002443461,-0.0030543262,0.0009162979,-0.0763975,0.27322513,9.805898,2,1683969926.7197833
-0.008963938,0.02792846,0.9997535,0.002443461,-0.0030543262,0.0009162979,-0.07633627,0.27319854,9.805899,2,1683969926.7350323
-0.0074394583,0.027440626,0.998351,0.002443461,-0.0030543262,0.0009162979,-0.07633627,0.27319854,9.805899,2,1683969926.75028
-0.0074394583,0.027440626,0.998351,-0.0012217305,-0.0018325958,0.0009162979,-0.07633627,0.27319854,9.805899,2,1683969926.7655103
-0.0074394583,0.027440626,0.998351,-0.0012217305,-0.0018325958,0.0009162979,-0.076357745,0.27311945,9.805901,2,1683969926.7706
-0.00798827,0.028904125,0.9997535,-0.0012217305,-0.0018325958,0.0009162979,-0.076357745,0.27311945,9.805901,2,1683969926.7807593
-0.00798827,0.028904125,0.9997535,0.0012217305,0.00061086525,0.0009162979,-0.076357745,0.27311945,9.805901,2,1683969926.7959974
-0.00798827,0.028904125,0.9997535,0.0012217305,0.00061086525,0.0009162979,-0.076315634,0.27304074,9.805903,2,1683969926.806155
-0.009451771,0.025977125,0.9997535,0.0012217305,0.00061086525,0.0009162979,-0.076315634,0.27304074,9.805903,2,1683969926.8213835
-0.010366458,0.027440626,0.9973143,0.0012217305,0.00061086525,0.0009162979,-0.076315634,0.27304074,9.805903,2,1683969926.8264565
-0.010366458,0.027440626,0.9973143,-0.0012217305,-0.00061086525,0.0009162979,-0.076315634,0.27304074,9.805903,2,1683969926.831548
-0.010366458,0.027440626,0.9973143,-0.0012217305,-0.00061086525,0.0009162979,-0.07630927,0.27307466,9.8059025,2,1683969926.8518622
-0.010366458,0.027440626,0.9973143,0.0012217305,0.00061086525,-0.00030543262,-0.07630927,0.27307466,9.8059025,2,1683969926.8620203
-0.010366458,0.027440626,0.9973143,0.0012217305,0.00061086525,-0.00030543262,-0.07627991,0.2730418,9.805903,2,1683969926.8671017
-0.009451771,0.02646496,0.9997535,0.0012217305,0.00061086525,-0.00030543262,-0.07627991,0.2730418,9.805903,2,1683969926.8772578
-0.007927292,0.027440626,0.9992657,0.0012217305,0.00061086525,-0.00030543262,-0.07627991,0.2730418,9.805903,2,1683969926.9077504
-0.007927292,0.027440626,0.9992657,0.0012217305,0.00061086525,-0.00030543262,-0.07637188,0.27305204,9.8059025,2,1683969926.9230063
-0.007927292,0.027440626,0.9992657,0.0012217305,-0.005497787,-0.00015271631,-0.07637188,0.27305204,9.8059025,2,1683969926.9280875
-0.008476105,0.02792846,1.0002413,0.0012217305,-0.005497787,-0.00015271631,-0.07637188,0.27305204,9.8059025,2,1683969926.9382427
-0.008476105,0.02792846,1.0002413,-0.0012217305,0.004276057,0.0021380284,-0.07637188,0.27305204,9.8059025,2,1683969926.948404
-0.008476105,0.02792846,1.0002413,-0.0012217305,0.004276057,0.0021380284,-0.07615342,0.2731424,9.805902,2,1683969926.963633
-0.00798827,0.02695279,1.0002413,-0.0012217305,0.004276057,0.0021380284,-0.07615342,0.2731424,9.805902,2,1683969926.9687104
-0.00798827,0.02695279,1.0002413,-0.0012217305,0.004276057,0.0021380284,-0.0762636,0.2730488,9.805903,2,1683969926.983941
-0.00798827,0.02695279,1.0002413,-0.0012217305,-0.0018325958,-0.00030543262,-0.0762636,0.2730488,9.805903,2,1683969926.999184
-0.00798827,0.028904125,0.99829,-0.0012217305,-0.0018325958,-0.00030543262,-0.0762636,0.2730488,9.805903,2,1683969927.0093386
-0.00798827,0.028904125,0.99829,-0.0012217305,-0.0018325958,-0.00030543262,-0.076305054,0.2729602,9.805905,2,1683969927.0296547
-0.00798827,0.028904125,0.99829,-0.0012217305,-0.00061086525,-0.00030543262,-0.076305054,0.2729602,9.805905,2,1683969927.0347338
-0.00798827,0.028904125,0.99829,-0.0012217305,-0.00061086525,-0.00030543262,-0.07637096,0.27296624,9.805904,2,1683969927.0448923
-0.00798827,0.028904125,0.99829,0.0012217305,-0.0018325958,0.0021380284,-0.07637096,0.27296624,9.805904,2,1683969927.05505
-0.0074394583,0.028904125,0.9992657,0.0012217305,-0.0018325958,0.0021380284,-0.07637096,0.27296624,9.805904,2,1683969927.0702822
-0.0074394583,0.028904125,0.9992657,0.0012217305,-0.00061086525,0.0009162979,-0.07637096,0.27296624,9.805904,2,1683969927.0804536
-0.0074394583,0.028904125,0.9992657,0.0012217305,-0.00061086525,0.0009162979,-0.076148495,0.2730772,9.805903,2,1683969927.0855436
-0.007927292,0.02792846,0.99829,0.0012217305,-0.00061086525,0.0009162979,-0.076148495,0.2730772,9.805903,2,1683969927.1007798
-0.007927292,0.02792846,0.99829,0.002443461,0.00061086525,-0.00030543262,-0.076148495,0.2730772,9.805903,2,1683969927.1160126
-0.0074394583,0.029391957,0.9978631,0.002443461,0.00061086525,-0.00030543262,-0.076148495,0.2730772,9.805903,2,1683969927.1312542
-0.0074394583,0.029391957,0.9978631,0.002443461,0.00061086525,-0.00030543262,-0.07604561,0.27311906,9.805903,2,1683969927.1363318
-0.0070126047,0.02792846,0.9997535,0.002443461,0.00061086525,-0.00030543262,-0.07604561,0.27311906,9.805903,2,1683969927.1464894
-0.0070126047,0.02792846,0.9997535,0.002443461,-0.005497787,-0.0013744468,-0.07604561,0.27311906,9.805903,2,1683969927.1515656
-0.0070126047,0.02792846,0.9997535,0.002443461,-0.005497787,-0.0013744468,-0.07599745,0.27321225,9.805901,2,1683969927.1566412
-0.0070126047,0.02792846,0.9997535,0.002443461,-0.005497787,-0.0013744468,-0.07588844,0.27330145,9.805899,2,1683969927.1922004
-0.0070126047,0.029391957,0.9992657,0.002443461,-0.005497787,-0.0013744468,-0.07588844,0.27330145,9.805899,2,1683969927.2023547
-0.0070126047,0.029391957,0.9992657,0.0012217305,-0.0018325958,0.0009162979,-0.07588844,0.27330145,9.805899,2,1683969927.2125075
-0.0070126047,0.029391957,0.9992657,0.0,0.00061086525,-0.0015271631,-0.07588844,0.27330145,9.805899,2,1683969927.2226603
-0.0070126047,0.029391957,0.9992657,0.0,0.00061086525,-0.0015271631,-0.07586851,0.2733316,9.805899,2,1683969927.232822
-0.008902958,0.027440626,0.9987778,0.0,0.00061086525,-0.0015271631,-0.07586851,0.2733316,9.805899,2,1683969927.2480762
-0.008476105,0.02841629,1.0017048,0.0,0.00061086525,-0.0015271631,-0.07586851,0.2733316,9.805899,2,1683969927.2531528
-0.008476105,0.02841629,1.0017048,-0.0036651916,0.0030543262,0.0009162979,-0.07586851,0.2733316,9.805899,2,1683969927.258231
-0.008476105,0.02841629,1.0017048,-0.0036651916,0.0030543262,0.0009162979,-0.07592511,0.27313408,9.805903,2,1683969927.2633166
-0.007927292,0.025977125,0.9973753,-0.0036651916,0.0030543262,0.0009162979,-0.07592511,0.27313408,9.805903,2,1683969927.3039663
-0.007927292,0.025977125,0.9973753,-0.0036651916,0.0030543262,0.0009162979,-0.07588206,0.27298564,9.805908,2,1683969927.3090456
-0.007927292,0.025977125,0.9973753,0.0012217305,-0.00061086525,0.0009162979,-0.07588206,0.27298564,9.805908,2,1683969927.3141246
-0.008902958,0.027440626,0.9968874,0.0012217305,-0.00061086525,0.0009162979,-0.07588206,0.27298564,9.805908,2,1683969927.324283
-0.008902958,0.027440626,0.9968874,-0.002443461,0.00061086525,-0.0015271631,-0.07588206,0.27298564,9.805908,2,1683969927.3395183
-0.008902958,0.027440626,0.9968874,-0.002443461,0.00061086525,-0.0015271631,-0.0759105,0.27289706,9.80591,2,1683969927.354752
-0.008902958,0.027440626,0.9968874,-0.0012217305,0.00061086525,-0.00030543262,-0.0759105,0.27289706,9.80591,2,1683969927.3699884
-0.008902958,0.027440626,0.9968874,-0.0012217305,0.00061086525,-0.00030543262,-0.07602114,0.27281937,9.805911,2,1683969927.3852131
-0.005000292,0.02646496,0.998351,-0.0012217305,0.00061086525,-0.00030543262,-0.07602114,0.27281937,9.805911,2,1683969927.3953757
-0.005000292,0.02646496,0.998351,-0.0012217305,0.00061086525,-0.00030543262,-0.07601209,0.27286726,9.80591,2,1683969927.4157672
-0.005000292,0.02646496,0.998351,-0.0012217305,-0.0018325958,0.0009162979,-0.07601209,0.27286726,9.80591,2,1683969927.420847
-0.0074394583,0.02695279,0.9992657,-0.0012217305,-0.0018325958,0.0009162979,-0.07601209,0.27286726,9.80591,2,1683969927.4462268
-0.0074394583,0.02695279,0.9992657,0.0036651916,-0.00061086525,0.0009162979,-0.07601209,0.27286726,9.80591,2,1683969927.4513068
-0.0074394583,0.02695279,0.9992657,0.0036651916,-0.00061086525,0.0009162979,-0.07583146,0.27272877,9.805916,2,1683969927.4563859
-0.009390792,0.02695279,0.9959117,0.0036651916,-0.00061086525,0.0009162979,-0.07583146,0.27272877,9.805916,2,1683969927.4614694
-0.009390792,0.02695279,0.9959117,0.0036651916,-0.00061086525,0.0009162979,-0.07580915,0.27278897,9.805914,2,1683969927.4868543
-0.009390792,0.02695279,0.9959117,0.0012217305,0.00061086525,0.0009162979,-0.07580915,0.27278897,9.805914,2,1683969927.4919384
-0.009390792,0.02695279,0.9959117,0.0,-0.00061086525,0.0009162979,-0.07580915,0.27278897,9.805914,2,1683969927.497016
-0.009390792,0.02695279,0.9959117,0.0,-0.00061086525,0.0009162979,-0.075862505,0.2728008,9.805913,2,1683969927.5020983
-0.0069516255,0.02695279,0.9992657,0.0,-0.00061086525,0.0009162979,-0.075862505,0.2728008,9.805913,2,1683969927.5274985
-0.0069516255,0.02695279,0.9992657,0.0,-0.00061086525,0.0009162979,-0.075886734,0.27282074,9.805913,2,1683969927.5376673
-0.0069516255,0.02695279,0.9992657,-0.0012217305,0.0030543262,-0.0015271631,-0.075886734,0.27282074,9.805913,2,1683969927.5579853
-0.0069516255,0.02695279,0.9992657,-0.0012217305,0.0030543262,-0.0015271631,-0.07606067,0.27282754,9.805911,2,1683969927.578299
-0.00798827,0.028904125,0.9997535,-0.0012217305,0.0030543262,-0.0015271631,-0.07606067,0.27282754,9.805911,2,1683969927.5833821
-0.00798827,0.028904125,0.9997535,0.0,-0.0030543262,0.0009162979,-0.07606067,0.27282754,9.805911,2,1683969927.593538
-0.007927292,0.02841629,0.9992657,0.0,-0.0030543262,0.0009162979,-0.07606067,0.27282754,9.805911,2,1683969927.6087692
-0.007927292,0.02841629,0.9992657,0.0,-0.0030543262,0.0009162979,-0.07591103,0.27288234,9.80591,2,1683969927.6189346
-0.007927292,0.02841629,0.9992657,-0.0012217305,-0.00061086525,0.0021380284,-0.07591103,0.27288234,9.80591,2,1683969927.6290944
-0.0069516255,0.027440626,0.9987778,-0.0012217305,-0.00061086525,0.0021380284,-0.07591103,0.27288234,9.80591,2,1683969927.649399
-0.0069516255,0.027440626,0.9987778,0.0,-0.00061086525,0.0009162979,-0.07591103,0.27288234,9.80591,2,1683969927.6544816
-0.0069516255,0.027440626,0.9987778,0.0,-0.00061086525,0.0009162979,-0.07586711,0.27294424,9.805909,2,1683969927.6646516
-0.0069516255,0.027440626,0.9987778,0.0012217305,-0.0018325958,0.0021380284,-0.07586711,0.27294424,9.805909,2,1683969927.6748095
-0.0069516255,0.027440626,0.9987778,0.0012217305,-0.0018325958,0.0021380284,-0.075948,0.27292013,9.805909,2,1683969927.690041
-0.008476105,0.02792846,1.0012169,0.0012217305,-0.0018325958,0.0021380284,-0.075948,0.27292013,9.805909,2,1683969927.6951218
-0.007927292,0.02695279,0.9973143,0.0012217305,-0.0018325958,0.0021380284,-0.075948,0.27292013,9.805909,2,1683969927.7154398
-0.007927292,0.02695279,0.9973143,0.0012217305,-0.0018325958,0.0021380284,-0.075849034,0.27305692,9.805906,2,1683969927.7255907
-0.007927292,0.02695279,0.9973143,0.0,-0.0030543262,0.0009162979,-0.075849034,0.27305692,9.805906,2,1683969927.7306774
-0.0069516255,0.029391957,0.9987778,0.0,-0.0030543262,0.0009162979,-0.075849034,0.27305692,9.805906,2,1683969927.7509944
-0.0069516255,0.029391957,0.9987778,0.0,-0.0030543262,0.0009162979,-0.07573583,0.27307427,9.805907,2,1683969927.7560744
-0.0069516255,0.029391957,0.9987778,0.0012217305,-0.0018325958,-0.0027488936,-0.07573583,0.27307427,9.805907,2,1683969927.7662308
-0.008415125,0.025977125,0.9987778,0.0012217305,-0.0018325958,-0.0027488936,-0.07573583,0.27307427,9.805907,2,1683969927.7713048
-0.008415125,0.025977125,0.9987778,-0.0012217305,0.0018325958,-0.0015271631,-0.07573583,0.27307427,9.805907,2,1683969927.7966943
-0.008415125,0.025977125,0.9987778,-0.0012217305,0.0018325958,-0.0015271631,-0.07567369,0.2730513,9.805907,2,1683969927.8017766
-0.0060369377,0.027440626,1.0002413,-0.0012217305,0.0018325958,-0.0015271631,-0.07567369,0.2730513,9.805907,2,1683969927.8271239
-0.0060369377,0.027440626,1.0002413,-0.0012217305,0.0018325958,-0.0015271631,-0.075701304,0.27297717,9.805909,2,1683969927.8322122
-0.0064637917,0.027440626,0.9973143,-0.0012217305,0.0018325958,-0.0015271631,-0.075701304,0.27297717,9.805909,2,1683969927.8576112
-0.0064637917,0.027440626,0.9973143,-0.0012217305,0.0018325958,-0.0015271631,-0.0748864,0.2733056,9.805907,2,1683969927.8728428
-0.0064637917,0.027440626,0.9973143,0.002443461,0.004276057,-0.0015271631,-0.0748864,0.2733056,9.805907,2,1683969927.888076
-0.0064637917,0.02841629,0.9992657,0.002443461,0.004276057,-0.0015271631,-0.0748864,0.2733056,9.805907,2,1683969927.8982248
-0.0064637917,0.02841629,0.9992657,0.002443461,0.004276057,-0.0015271631,-0.07511829,0.27339295,9.8059025,2,1683969927.9185684
-0.0064637917,0.02841629,0.9992657,0.0,-0.00061086525,0.0021380284,-0.07511829,0.27339295,9.8059025,2,1683969927.923653
-0.006524771,0.027440626,1.0002413,0.0,-0.00061086525,0.0021380284,-0.07511829,0.27339295,9.8059025,2,1683969927.9490347
-0.006524771,0.027440626,1.0002413,0.0,-0.00061086525,0.0021380284,-0.07505531,0.2734028,9.8059025,2,1683969927.9642694
-0.006524771,0.027440626,1.0002413,0.0,-0.00061086525,0.0009162979,-0.07505531,0.2734028,9.8059025,2,1683969927.9744282
-0.007927292,0.027440626,0.9992657,0.0,-0.00061086525,0.0009162979,-0.07505531,0.2734028,9.8059025,2,1683969927.984584
-0.007927292,0.027440626,0.9987778,0.0,-0.00061086525,0.0009162979,-0.07505531,0.2734028,9.8059025,2,1683969927.9896674
-0.007927292,0.027440626,0.9987778,0.0,-0.00061086525,0.0009162979,-0.07510804,0.27328798,9.805905,2,1683969928.0099847
-0.007927292,0.027440626,0.9987778,-0.002443461,-0.0032070426,-0.00030543262,-0.07510804,0.27328798,9.805905,2,1683969928.0150628
-0.007927292,0.027440626,0.9987778,-0.002443461,-0.0032070426,-0.00030543262,-0.07497425,0.27316576,9.80591,2,1683969928.0252285
-0.007927292,0.027440626,0.9987778,0.002443461,0.0018325958,0.0021380284,-0.07497425,0.27316576,9.80591,2,1683969928.050613
-0.0074394583,0.025977125,0.998351,0.002443461,0.0018325958,0.0021380284,-0.07497425,0.27316576,9.80591,2,1683969928.0557199
-0.0074394583,0.025977125,0.998351,0.002443461,0.0018325958,0.0021380284,-0.07509248,0.2731507,9.805909,2,1683969928.0608478
-0.0074394583,0.025977125,0.998351,-0.004886922,-0.0032070426,-0.0027488936,-0.07509248,0.2731507,9.805909,2,1683969928.0812614
-0.007927292,0.027440626,0.9978631,-0.004886922,-0.0032070426,-0.0027488936,-0.07509248,0.2731507,9.805909,2,1683969928.086385
-0.0074394583,0.027440626,0.9992657,-0.004886922,-0.0032070426,-0.0027488936,-0.07509248,0.2731507,9.805909,2,1683969928.1017334
-0.0074394583,0.027440626,0.9992657,-0.004886922,-0.0032070426,-0.0027488936,-0.07504491,0.273063,9.805912,2,1683969928.1119573
-0.0074394583,0.027440626,0.9992657,-0.0012217305,0.0030543262,0.0009162979,-0.07504491,0.273063,9.805912,2,1683969928.1221607
-0.00798827,0.029879792,1.0012169,-0.0012217305,0.0030543262,0.0009162979,-0.07504491,0.273063,9.805912,2,1683969928.142499
-0.00798827,0.029879792,1.0012169,-0.0012217305,0.0030543262,0.0009162979,-0.0748139,0.27250335,9.805929,2,1683969928.1527572
-0.00798827,0.029879792,1.0012169,0.002443461,0.0030543262,0.0009162979,-0.0748139,0.27250335,9.805929,2,1683969928.1630175
-0.00798827,0.029879792,1.0012169,0.002443461,0.0030543262,0.0009162979,-0.074775,0.2726633,9.805925,2,1683969928.1886597
-0.00798827,0.029879792,1.0012169,-0.0012217305,-0.00061086525,-0.0015271631,-0.074775,0.2726633,9.805925,2,1683969928.1989264
-0.009390792,0.02695279,0.9987778,-0.0012217305,-0.00061086525,-0.0015271631,-0.074775,0.2726633,9.805925,2,1683969928.204055
-0.009390792,0.02695279,0.9987778,0.0,0.0018325958,-0.00030543262,-0.074775,0.2726633,9.805925,2,1683969928.224447
-0.009390792,0.02695279,0.9987778,0.0,0.0018325958,-0.00030543262,-0.07474272,0.2726092,9.805927,2,1683969928.2295508
-0.008415125,0.027440626,0.9993266,0.0,0.0018325958,-0.00030543262,-0.07474272,0.2726092,9.805927,2,1683969928.2346697
-0.007927292,0.027440626,0.9963996,0.0,0.0018325958,-0.00030543262,-0.07474272,0.2726092,9.805927,2,1683969928.2654483
-0.007927292,0.027440626,0.9963996,0.0,0.0018325958,-0.00030543262,-0.07482775,0.27255493,9.805928,2,1683969928.2705824
-0.007927292,0.027440626,0.9963996,0.0,0.0030543262,-0.00030543262,-0.07482775,0.27255493,9.805928,2,1683969928.2757123
-0.007927292,0.027440626,0.9963996,0.0,0.0030543262,-0.00030543262,-0.07497711,0.27256286,9.805926,2,1683969928.3013706
-0.007927292,0.027440626,0.9963996,0.0012217305,0.00061086525,-0.00030543262,-0.07497711,0.27256286,9.805926,2,1683969928.306509
-0.009390792,0.02792846,0.9992657,0.0012217305,0.00061086525,-0.00030543262,-0.07497711,0.27256286,9.805926,2,1683969928.311639
-0.009390792,0.02792846,0.9992657,-0.0012217305,-0.0056505036,0.0009162979,-0.07497711,0.27256286,9.805926,2,1683969928.3218324
-0.009390792,0.02792846,0.9992657,-0.0012217305,-0.0056505036,0.0009162979,-0.0749566,0.27254242,9.805927,2,1683969928.342253
-0.008963938,0.027440626,1.0002413,-0.0012217305,-0.0056505036,0.0009162979,-0.0749566,0.27254242,9.805927,2,1683969928.3473496
-0.007927292,0.025489293,0.99829,-0.0012217305,-0.0056505036,0.0009162979,-0.0749566,0.27254242,9.805927,2,1683969928.3627367
-0.007927292,0.025489293,0.99829,-0.0012217305,-0.0056505036,0.0009162979,-0.07474023,0.27251333,9.805929,2,1683969928.3678706
-0.007927292,0.025489293,0.99829,0.0,-0.00061086525,-0.00030543262,-0.07474023,0.27251333,9.805929,2,1683969928.383186
-0.009878625,0.02792846,0.99536294,0.0,-0.00061086525,-0.00030543262,-0.07474023,0.27251333,9.805929,2,1683969928.4037147
-0.009878625,0.02792846,0.99536294,0.0,-0.00061086525,-0.00030543262,-0.07484319,0.2724951,9.805929,2,1683969928.4088295
-0.008415125,0.028904125,0.9987778,0.0,-0.00061086525,-0.00030543262,-0.07484319,0.2724951,9.805929,2,1683969928.4190612
-0.008415125,0.028904125,0.9987778,0.0,0.0018325958,-0.0027488936,-0.07484319,0.2724951,9.805929,2,1683969928.4241638
-0.008415125,0.028904125,0.9987778,0.0,0.0018325958,-0.0027488936,-0.07506822,0.2714355,9.805957,2,1683969928.4292552
-0.008415125,0.028904125,0.9987778,0.002443461,0.0018325958,-0.00030543262,-0.07506822,0.2714355,9.805957,2,1683969928.4497128
-0.00798827,0.028904125,0.9992657,0.002443461,0.0018325958,-0.00030543262,-0.07506822,0.2714355,9.805957,2,1683969928.465101
-0.00798827,0.028904125,0.9992657,0.002443461,0.0018325958,-0.00030543262,-0.075290315,0.27159968,9.805951,2,1683969928.4855857
-0.007927292,0.027440626,0.9987778,0.002443461,0.0018325958,-0.00030543262,-0.075290315,0.27159968,9.805951,2,1683969928.495859
-0.007927292,0.027440626,0.9987778,0.0012217305,0.0067195175,0.0009162979,-0.075290315,0.27159968,9.805951,2,1683969928.5009906
-0.0070126047,0.029391957,0.9997535,0.0012217305,0.0067195175,0.0009162979,-0.075290315,0.27159968,9.805951,2,1683969928.5214813
-0.0070126047,0.029391957,0.9997535,-0.0012217305,-0.004276057,0.0021380284,-0.075290315,0.27159968,9.805951,2,1683969928.5266128
-0.0070126047,0.029391957,0.9997535,-0.0012217305,-0.004276057,0.0021380284,-0.07542047,0.27158007,9.80595,2,1683969928.5317059
-0.006524771,0.030367626,0.9992657,-0.0012217305,-0.004276057,0.0021380284,-0.07542047,0.27158007,9.80595,2,1683969928.5573614
-0.006524771,0.030367626,0.9992657,-0.0012217305,-0.004276057,0.0021380284,-0.07549128,0.27150577,9.805952,2,1683969928.5624533
-0.006524771,0.030367626,0.9992657,0.0,-0.0018325958,-0.00030543262,-0.07549128,0.27150577,9.805952,2,1683969928.5727198
-0.006524771,0.030367626,0.9992657,0.0012217305,-0.0030543262,0.0009162979,-0.07549128,0.27150577,9.805952,2,1683969928.5932448
-0.006524771,0.030367626,0.9992657,0.0012217305,-0.0030543262,0.0009162979,-0.07552081,0.27153558,9.80595,2,1683969928.6035051
-0.00798827,0.027440626,0.9997535,0.0012217305,-0.0030543262,0.0009162979,-0.07552081,0.27153558,9.80595,2,1683969928.608638
-0.008963938,0.02646496,0.9997535,0.0012217305,-0.0030543262,0.0009162979,-0.07552081,0.27153558,9.80595,2,1683969928.6240377
-0.008963938,0.02646496,0.9997535,0.0012217305,-0.0030543262,0.0009162979,-0.075339824,0.27153128,9.805952,2,1683969928.634301
-0.008963938,0.02646496,0.9997535,0.0012217305,0.0018325958,-0.00030543262,-0.075339824,0.27153128,9.805952,2,1683969928.639431
-0.007927292,0.027440626,0.9987778,0.0012217305,0.0018325958,-0.00030543262,-0.075339824,0.27153128,9.805952,2,1683969928.6702309
-0.007927292,0.027440626,0.9987778,0.0,-0.00290161,0.0010690142,-0.075339824,0.27153128,9.805952,2,1683969928.6753244
-0.007927292,0.027440626,0.9987778,0.0,-0.00290161,0.0010690142,-0.07520593,0.27149925,9.805955,2,1683969928.6804545
-0.0074394583,0.02792846,0.9993266,0.0,-0.00290161,0.0010690142,-0.07520593,0.27149925,9.805955,2,1683969928.7214684
-0.0074394583,0.02792846,0.9993266,-0.0012217305,0.001985312,-0.00015271631,-0.07520593,0.27149925,9.805955,2,1683969928.7265985
-0.0074394583,0.02792846,0.9993266,-0.0012217305,0.001985312,-0.00015271631,-0.07655949,0.27133968,9.805948,2,1683969928.7317932
-0.007927292,0.02792846,0.998351,-0.0012217305,0.0032070426,0.0022907446,-0.076815,0.2712344,9.805949,2,1683969928.736951
-0.007927292,0.02841629,0.9978631,-0.002443461,0.001985312,0.0035124752,-0.076738924,0.27106756,9.805954,2,1683969928.74212
-0.008902958,0.025977125,0.9988388,-0.002443461,0.001985312,0.0035124752,-0.076738924,0.27106756,9.805954,2,1683969928.7471986
-0.008902958,0.025977125,0.9988388,-0.002443461,0.001985312,0.0035124752,-0.07693424,0.2710027,9.805955,2,1683969928.762537
-0.008902958,0.025977125,0.9988388,-0.0012217305,0.0032070426,-0.0013744468,-0.07693424,0.2710027,9.805955,2,1683969928.767665
-0.008902958,0.025977125,0.9988388,-0.0012217305,0.0032070426,-0.0013744468,-0.07724437,0.27089915,9.805955,2,1683969928.7933123
-0.008902958,0.025977125,0.9988388,-0.0012217305,0.001985312,-0.00015271631,-0.07724437,0.27089915,9.805955,2,1683969928.7984416
-0.0074394583,0.025977125,0.9993266,-0.0012217305,0.001985312,-0.00015271631,-0.07724437,0.27089915,9.805955,2,1683969928.803575
-0.0074394583,0.025977125,0.9993266,0.0012217305,0.001985312,-0.00015271631,-0.07724437,0.27089915,9.805955,2,1683969928.824075
-0.0074394583,0.025977125,0.9993266,0.0012217305,0.001985312,-0.00015271631,-0.077316254,0.27086905,9.805955,2,1683969928.8343391
-0.0069516255,0.027440626,0.9968874,0.0012217305,0.001985312,-0.00015271631,-0.077316254,0.27086905,9.805955,2,1683969928.8394651
-0.0074394583,0.02646496,0.9968874,0.0012217305,0.001985312,-0.00015271631,-0.077316254,0.27086905,9.805955,2,1683969928.8599782
-0.0074394583,0.02646496,0.9968874,0.0012217305,0.001985312,-0.00015271631,-0.0772618,0.27086517,9.805956,2,1683969928.8651102
-0.0074394583,0.02646496,0.9968874,0.0012217305,0.001985312,-0.0013744468,-0.0772618,0.27086517,9.805956,2,1683969928.8855698
-0.00798827,0.027440626,1.0007291,0.0012217305,0.001985312,-0.0013744468,-0.0772618,0.27086517,9.805956,2,1683969928.8907
-0.00798827,0.027440626,1.0007291,0.0,0.001985312,0.0010690142,-0.0772618,0.27086517,9.805956,2,1683969928.9009554
-0.00798827,0.027440626,1.0007291,0.0,0.001985312,0.0010690142,-0.07718752,0.27082875,9.805958,2,1683969928.9060986
-0.00798827,0.027440626,1.0007291,0.0,0.001985312,0.0010690142,-0.07713224,0.2710905,9.80595,2,1683969928.9214578
-0.00798827,0.027440626,1.0007291,0.0012217305,0.0056505036,0.0010690142,-0.07713224,0.2710905,9.80595,2,1683969928.9265883
-0.007927292,0.02695279,0.9992657,0.0012217305,0.0056505036,0.0010690142,-0.07713224,0.2710905,9.80595,2,1683969928.9522576
-0.007927292,0.02695279,0.9992657,0.0012217305,0.004428773,0.0010690142,-0.07713224,0.2710905,9.80595,2,1683969928.957396
-0.007927292,0.02695279,0.9992657,0.0012217305,0.004428773,0.0010690142,-0.07730195,0.27116153,9.805947,2,1683969928.9624865
-0.007927292,0.02695279,0.9992657,-0.0036651916,0.001985312,-0.0013744468,-0.07730195,0.27116153,9.805947,2,1683969928.9727502
-0.007927292,0.02695279,0.9992657,-0.0036651916,0.001985312,-0.0013744468,-0.07732036,0.27102163,9.805951,2,1683969928.9932275
-0.008902958,0.025977125,0.9992657,-0.0036651916,0.001985312,-0.0013744468,-0.07732036,0.27102163,9.805951,2,1683969929.0034819
-0.008902958,0.025977125,0.9992657,0.0012217305,0.001985312,-0.00015271631,-0.07732036,0.27102163,9.805951,2,1683969929.0086048
-0.008902958,0.025977125,0.9992657,0.0012217305,0.001985312,-0.00015271631,-0.077282816,0.2709083,9.805954,2,1683969929.0188692
-0.008415125,0.025489293,0.9997535,0.0012217305,0.001985312,-0.00015271631,-0.077282816,0.2709083,9.805954,2,1683969929.0342655
-0.008415125,0.025489293,0.9997535,0.002443461,-0.00045814895,-0.0013744468,-0.077282816,0.2709083,9.805954,2,1683969929.0496988
-0.0074394583,0.02695279,0.99829,0.002443461,-0.00045814895,-0.0013744468,-0.077282816,0.2709083,9.805954,2,1683969929.0650892
-0.0074394583,0.02695279,0.99829,0.002443461,-0.00045814895,-0.0013744468,-0.077380285,0.27076232,9.805958,2,1683969929.0702186
-0.0074394583,0.02695279,0.99829,0.002443461,-0.00045814895,-0.0013744468,-0.077325135,0.27074042,9.805959,2,1683969929.095847
-0.0074394583,0.02695279,0.99829,0.0,-0.00045814895,-0.0025961774,-0.077325135,0.27074042,9.805959,2,1683969929.100973
-0.009390792,0.025489293,0.9992657,0.0,-0.00045814895,-0.0025961774,-0.077325135,0.27074042,9.805959,2,1683969929.1111736
-0.009390792,0.025489293,0.9992657,0.0,0.001985312,-0.00015271631,-0.077325135,0.27074042,9.805959,2,1683969929.1163054
-0.0075004376,0.02792846,1.0002413,0.0,0.001985312,-0.00015271631,-0.077325135,0.27074042,9.805959,2,1683969929.126557
-0.0075004376,0.02792846,1.0002413,0.0,0.001985312,-0.00015271631,-0.07730639,0.27074483,9.805959,2,1683969929.131693
-0.0075004376,0.02792846,1.0002413,0.0,0.001985312,-0.00015271631,-0.07741308,0.27084795,9.805955,2,1683969929.1574142
-0.0075004376,0.028904125,0.9997535,0.0,0.001985312,-0.00015271631,-0.07741308,0.27084795,9.805955,2,1683969929.1625168
-0.0075004376,0.028904125,0.9997535,0.0,0.001985312,-0.00015271631,-0.077427104,0.27094278,9.805952,2,1683969929.2035134
-0.0075004376,0.028904125,0.9997535,0.0012217305,0.0032070426,-0.00015271631,-0.077427104,0.27094278,9.805952,2,1683969929.2189066
-0.0070126047,0.02792846,1.0012169,0.0012217305,0.0032070426,-0.00015271631,-0.077427104,0.27094278,9.805952,2,1683969929.2240386
-0.0075004376,0.028904125,0.9997535,0.0012217305,0.0032070426,-0.00015271631,-0.077427104,0.27094278,9.805952,2,1683969929.2393913
-0.0075004376,0.028904125,0.9997535,0.0012217305,0.0032070426,-0.00015271631,-0.07766684,0.2709218,9.805951,2,1683969929.24966
-0.0075004376,0.028904125,0.9997535,-0.0012217305,-0.005497787,-0.0013744468,-0.07766684,0.2709218,9.805951,2,1683969929.2547896
-0.0069516255,0.02695279,0.998351,-0.0012217305,-0.005497787,-0.0013744468,-0.07766684,0.2709218,9.805951,2,1683969929.2752705
-0.0069516255,0.02695279,0.998351,-0.002443461,-0.00045814895,-0.00015271631,-0.07766684,0.2709218,9.805951,2,1683969929.2855277
-0.0069516255,0.02695279,0.998351,-0.002443461,-0.00045814895,-0.00015271631,-0.077533066,0.27091148,9.805952,2,1683969929.2906592
-0.008476105,0.02646496,0.9997535,-0.002443461,-0.00045814895,-0.00015271631,-0.077533066,0.27091148,9.805952,2,1683969929.3060527
-0.008476105,0.02646496,0.9997535,0.0,0.001985312,-0.00015271631,-0.077533066,0.27091148,9.805952,2,1683969929.3265963
-0.008476105,0.02646496,0.9997535,0.0,0.001985312,-0.00015271631,-0.077792995,0.27082607,9.805953,2,1683969929.3368647
-0.008476105,0.02646496,0.9997535,0.0012217305,0.004428773,-0.00015271631,-0.077792995,0.27082607,9.805953,2,1683969929.3470817
-0.0074394583,0.02792846,0.9988388,0.0012217305,0.004428773,-0.00015271631,-0.077792995,0.27082607,9.805953,2,1683969929.3624737
-0.0074394583,0.02792846,0.9988388,0.0012217305,-0.00045814895,-0.0013744468,-0.077792995,0.27082607,9.805953,2,1683969929.3829463
-0.0074394583,0.02792846,0.9988388,0.0012217305,-0.00045814895,-0.0013744468,-0.07787782,0.270718,9.805955,2,1683969929.388077
-0.008902958,0.027440626,0.9987778,0.0012217305,-0.00045814895,-0.0013744468,-0.07787782,0.270718,9.805955,2,1683969929.3932111
-0.008902958,0.027440626,0.9987778,0.0,-0.00045814895,-0.00015271631,-0.07787782,0.270718,9.805955,2,1683969929.41369
-0.008415125,0.02695279,0.9973753,0.0,-0.00045814895,-0.00015271631,-0.07787782,0.270718,9.805955,2,1683969929.4188187
-0.008415125,0.02695279,0.9973753,0.0,-0.00045814895,-0.00015271631,-0.07794252,0.27064958,9.805957,2,1683969929.4239078
-0.008415125,0.02695279,0.9973753,0.0,-0.00045814895,-0.00015271631,-0.07802078,0.270503,9.80596,2,1683969929.449516
-0.008415125,0.02695279,0.9973753,-0.002443461,-0.0016798794,0.0010690142,-0.07802078,0.270503,9.80596,2,1683969929.4598327
-0.0069516255,0.025977125,0.9978631,-0.002443461,-0.0016798794,0.0010690142,-0.07802078,0.270503,9.80596,2,1683969929.4803374
-0.0069516255,0.025977125,0.9978631,-0.002443461,-0.0016798794,0.0010690142,-0.077906094,0.2704417,9.805963,2,1683969929.4905987
-0.0069516255,0.025977125,0.9978631,0.0,0.00076358154,-0.00015271631,-0.077906094,0.2704417,9.805963,2,1683969929.4957232
-0.0069516255,0.025977125,0.9978631,-0.0012217305,-0.00045814895,-0.00015271631,-0.077906094,0.2704417,9.805963,2,1683969929.5111187
-0.0069516255,0.025977125,0.9978631,-0.0012217305,-0.00045814895,-0.00015271631,-0.077862605,0.27034593,9.805965,2,1683969929.5265098
-0.0074394583,0.02646496,0.9978631,-0.0012217305,-0.00045814895,-0.00015271631,-0.077862605,0.27034593,9.805965,2,1683969929.5367613
-0.0069516255,0.025977125,0.9973753,0.0,0.00076358154,-0.00015271631,-0.07784755,0.2702623,9.805968,2,1683969929.5522428
-0.0069516255,0.025977125,0.9973753,0.0,-0.00045814895,0.0010690142,-0.07784755,0.2702623,9.805968,2,1683969929.5573678
-0.008902958,0.027440626,0.9987778,0.0,-0.00045814895,0.0010690142,-0.07784755,0.2702623,9.805968,2,1683969929.5624995
-0.008902958,0.027440626,0.9987778,0.0,-0.00045814895,0.0010690142,-0.0779687,0.27029657,9.805965,2,1683969929.577886
-0.0074394583,0.02841629,0.99829,0.0,-0.00045814895,0.0010690142,-0.0779687,0.27029657,9.805965,2,1683969929.6035264
-0.0074394583,0.02841629,0.99829,0.0,-0.00045814895,0.0010690142,-0.07800629,0.2703161,9.805965,2,1683969929.6086566
-0.0074394583,0.02841629,0.99829,0.0012217305,-0.0016798794,-0.0013744468,-0.07800629,0.2703161,9.805965,2,1683969929.6189206
-0.0069516255,0.02646496,0.998351,0.0012217305,-0.0016798794,-0.0013744468,-0.07800629,0.2703161,9.805965,2,1683969929.6445916
-0.0069516255,0.02646496,0.998351,-0.0012217305,-0.0016798794,-0.00015271631,-0.07800629,0.2703161,9.805965,2,1683969929.6497254
-0.0069516255,0.02646496,0.998351,-0.0012217305,-0.0016798794,-0.00015271631,-0.07793017,0.2702763,9.805967,2,1683969929.6548548
-0.0069516255,0.02646496,0.998351,-0.0012217305,-0.00045814895,-0.0013744468,-0.07793017,0.2702763,9.805967,2,1683969929.675337
-0.0069516255,0.02646496,0.998351,-0.0012217305,-0.00045814895,-0.0013744468,-0.077768736,0.27023482,9.805969,2,1683969929.6855927
-0.008902958,0.02792846,0.9992657,-0.0012217305,-0.00045814895,-0.0013744468,-0.077768736,0.27023482,9.805969,2,1683969929.6907225
-0.008902958,0.02792846,0.9992657,-0.0012217305,-0.0016798794,-0.0013744468,-0.077768736,0.27023482,9.805969,2,1683969929.7061112
-0.008902958,0.02792846,0.9992657,-0.0012217305,-0.0016798794,-0.0013744468,-0.07767892,0.27028912,9.805968,2,1683969929.716328
-0.008902958,0.02792846,0.9992657,0.0012217305,-0.00290161,-0.0013744468,-0.07767892,0.27028912,9.805968,2,1683969929.7214556
-0.007927292,0.02792846,0.998351,0.0012217305,-0.00290161,-0.0013744468,-0.07767892,0.27028912,9.805968,2,1683969929.731718
-0.007927292,0.02792846,0.998351,0.0012217305,-0.00290161,-0.0013744468,-0.07766465,0.26987413,9.805981,2,1683969929.7419784
-0.007927292,0.02792846,0.998351,0.0012217305,-0.00290161,-0.0013744468,-0.07745064,0.2699413,9.80598,2,1683969929.7624974
-0.007927292,0.02792846,0.998351,-0.002443461,0.0032070426,0.0010690142,-0.07745064,0.2699413,9.80598,2,1683969929.767626
-0.008963938,0.028904125,1.0007291,-0.002443461,0.0032070426,0.0010690142,-0.07745064,0.2699413,9.80598,2,1683969929.777888
-0.008476105,0.02841629,0.9997535,-0.002443461,0.0032070426,0.0010690142,-0.07745064,0.2699413,9.80598,2,1683969929.798399
-0.008476105,0.02841629,0.9997535,-0.0010690142,-0.0018325958,0.0009162979,-0.07745064,0.2699413,9.80598,2,1683969929.8035243
-0.008476105,0.02841629,0.9997535,-0.0010690142,-0.0018325958,0.0009162979,-0.07779532,0.26987475,9.80598,2,1683969929.8086503
-0.008476105,0.02841629,0.9997535,-0.0010690142,-0.0018325958,0.0009162979,-0.077756576,0.2699039,9.805979,2,1683969929.8291671
-0.0074394583,0.028904125,0.998351,-0.0010690142,-0.0018325958,0.0009162979,-0.077756576,0.2699039,9.805979,2,1683969929.8394246
-0.0074394583,0.028904125,0.998351,0.0013744468,0.00061086525,0.0009162979,-0.077756576,0.2699039,9.805979,2,1683969929.849674
-0.0074394583,0.028904125,0.998351,0.0013744468,0.00061086525,0.0009162979,-0.077581905,0.26991436,9.80598,2,1683969929.8650594
-0.008476105,0.02695279,1.0007291,0.0013744468,0.00061086525,0.0009162979,-0.077581905,0.26991436,9.80598,2,1683969929.8804128
-0.008476105,0.02695279,1.0007291,-0.0010690142,-0.00061086525,-0.0015271631,-0.077581905,0.26991436,9.80598,2,1683969929.8855417
-0.0070126047,0.025062438,1.0012169,-0.0010690142,-0.00061086525,-0.0015271631,-0.07751043,0.2699436,9.80598,2,1683969929.9060926
-0.0070126047,0.025062438,1.0012169,0.00015271631,-0.00061086525,-0.00030543262,-0.07751043,0.2699436,9.80598,2,1683969929.9162567
-0.008415125,0.025489293,0.998351,0.00015271631,-0.00061086525,-0.00030543262,-0.07751043,0.2699436,9.80598,2,1683969929.9367633
-0.008415125,0.025489293,0.998351,0.00015271631,-0.00061086525,-0.00030543262,-0.077512145,0.2699594,9.80598,2,1683969929.9418933
-0.008415125,0.025489293,0.998351,-0.0010690142,-0.0030543262,0.0009162979,-0.077512145,0.2699594,9.80598,2,1683969929.947022
-0.0069516255,0.02695279,0.9968874,-0.0010690142,-0.0030543262,0.0009162979,-0.077512145,0.2699594,9.80598,2,1683969929.9726622
-0.0069516255,0.02695279,0.9968874,-0.0010690142,-0.0030543262,0.0009162979,-0.0773892,0.26978937,9.8059845,2,1683969929.9777932
-0.0069516255,0.02695279,0.9968874,-0.0010690142,0.00061086525,0.0009162979,-0.0773892,0.26978937,9.8059845,2,1683969929.98292
-0.0069516255,0.02695279,0.9968874,0.0013744468,-0.004276057,0.0009162979,-0.0773892,0.26978937,9.8059845,2,1683969929.9983072
-0.0074394583,0.027440626,0.9968874,0.0013744468,-0.004276057,0.0009162979,-0.0773892,0.26978937,9.8059845,2,1683969930.008523
-0.0074394583,0.027440626,0.9968874,0.0013744468,-0.004276057,0.0009162979,-0.077012636,0.2701538,9.805978,2,1683969930.0239332
-0.0074394583,0.027440626,0.9968874,0.00015271631,0.0018325958,-0.0027488936,-0.077012636,0.2701538,9.805978,2,1683969930.034199
-0.005549104,0.02695279,1.0002413,0.00015271631,0.0018325958,-0.0027488936,-0.077012636,0.2701538,9.805978,2,1683969930.054674
-0.005549104,0.02695279,1.0002413,0.00015271631,0.0018325958,-0.0027488936,-0.07686082,0.27022827,9.805976,2,1683969930.0598037
-0.0075004376,0.02792846,0.9997535,0.00015271631,0.0018325958,-0.0027488936,-0.07686082,0.27022827,9.805976,2,1683969930.0649498
-0.0075004376,0.02792846,0.9997535,0.00015271631,0.0018325958,-0.0027488936,-0.07694655,0.27011615,9.80598,2,1683969930.075209
-0.0075004376,0.02792846,0.9997535,-0.0010690142,-0.00061086525,0.0009162979,-0.07694655,0.27011615,9.80598,2,1683969930.0854647
-0.0075004376,0.02792846,0.9997535,-0.0010690142,-0.00061086525,0.0009162979,-0.07687952,0.27024576,9.805976,2,1683969930.111113
-0.007927292,0.02841629,0.9992657,-0.0010690142,-0.00061086525,0.0009162979,-0.07687952,0.27024576,9.805976,2,1683969930.1162422
-0.007927292,0.02841629,0.9992657,0.0025961774,0.00061086525,0.0021380284,-0.07687952,0.27024576,9.805976,2,1683969930.121373
-0.007927292,0.02841629,0.9992657,0.00015271631,0.0030543262,-0.00030543262,-0.07687952,0.27024576,9.805976,2,1683969930.1316233
-0.007927292,0.02841629,0.9992657,0.00015271631,0.0030543262,-0.00030543262,-0.07671131,0.27031636,9.805975,2,1683969930.1470084
-0.008415125,0.02646496,0.9973753,0.00015271631,0.0030543262,-0.00030543262,-0.07671131,0.27031636,9.805975,2,1683969930.1572654
-0.0074394583,0.025977125,0.9973753,0.00015271631,0.0030543262,-0.00030543262,-0.07671131,0.27031636,9.805975,2,1683969930.1828685
-0.0074394583,0.025977125,0.9973753,0.0013744468,0.00061086525,-0.00030543262,-0.07671131,0.27031636,9.805975,2,1683969930.187998
-0.0074394583,0.025977125,0.9973753,0.0013744468,0.00061086525,-0.00030543262,-0.07678805,0.27034268,9.805974,2,1683969930.1931295
-0.009878625,0.02646496,0.9992657,0.0013744468,0.00061086525,-0.00030543262,-0.07678805,0.27034268,9.805974,2,1683969930.203374
-0.009878625,0.02646496,0.9992657,0.00015271631,-0.00061086525,-0.00030543262,-0.07678805,0.27034268,9.805974,2,1683969930.2136412
-0.009878625,0.02646496,0.9992657,0.00015271631,-0.00061086525,-0.00030543262,-0.076689586,0.27048555,9.805971,2,1683969930.2290297
-0.008902958,0.02646496,0.9993266,0.00015271631,-0.00061086525,-0.00030543262,-0.076689586,0.27048555,9.805971,2,1683969930.2443943
-0.008902958,0.02646496,0.9993266,-0.0010690142,-0.00061086525,0.0021380284,-0.076689586,0.27048555,9.805971,2,1683969930.2495232
-0.008902958,0.02646496,0.9993266,-0.0010690142,-0.00061086525,0.0021380284,-0.076485775,0.27052915,9.805971,2,1683969930.2597837
-0.008902958,0.025977125,0.9973753,-0.0010690142,-0.00061086525,0.0021380284,-0.076485775,0.27052915,9.805971,2,1683969930.2649152
-0.008902958,0.025977125,0.9973753,-0.0010690142,-0.00061086525,0.0021380284,-0.07643731,0.2703717,9.805976,2,1683969930.2802973
-0.008902958,0.025977125,0.9973753,0.00015271631,0.00061086525,0.0021380284,-0.07643731,0.2703717,9.805976,2,1683969930.2854264
-0.0059759584,0.025489293,0.9998144,0.00015271631,0.00061086525,0.0021380284,-0.07643731,0.2703717,9.805976,2,1683969930.3161442
-0.0059759584,0.025489293,0.9998144,0.00015271631,0.00061086525,-0.00030543262,-0.07643731,0.2703717,9.805976,2,1683969930.3212736
-0.0059759584,0.025489293,0.9998144,0.00015271631,0.00061086525,-0.00030543262,-0.0764208,0.27029026,9.805978,2,1683969930.3315306
-0.0059759584,0.025489293,0.9998144,0.00015271631,0.00061086525,-0.00030543262,-0.07641969,0.2702949,9.805978,2,1683969930.3520494
-0.0059759584,0.025489293,0.9998144,0.00015271631,-0.0018325958,-0.00030543262,-0.07641969,0.2702949,9.805978,2,1683969930.3623185
-0.008415125,0.025489293,0.9987778,0.00015271631,-0.0018325958,-0.00030543262,-0.07641969,0.2702949,9.805978,2,1683969930.3674448
-0.008415125,0.025489293,0.9987778,-0.0010690142,0.00061086525,0.0021380284,-0.07641969,0.2702949,9.805978,2,1683969930.3879743
-0.008415125,0.025489293,0.9987778,-0.0010690142,0.00061086525,0.0021380284,-0.07632605,0.2703166,9.805978,2,1683969930.3982317
-0.0074394583,0.02695279,0.99829,-0.0010690142,0.00061086525,0.0021380284,-0.07632605,0.2703166,9.805978,2,1683969930.4033237
-0.0074394583,0.02695279,0.99829,-0.0010690142,0.00061086525,-0.00030543262,-0.07632605,0.2703166,9.805978,2,1683969930.418707
-0.0074394583,0.02792846,0.9978021,-0.0010690142,0.00061086525,-0.00030543262,-0.07632605,0.2703166,9.805978,2,1683969930.4238408
-0.0074394583,0.02792846,0.9978021,-0.0010690142,0.00061086525,-0.00030543262,-0.07663442,0.27036363,9.805975,2,1683969930.4391913
-0.0074394583,0.02792846,0.9978021,0.0013744468,0.00061086525,0.0021380284,-0.07663442,0.27036363,9.805975,2,1683969930.4494545
-0.009390792,0.02841629,0.9973143,0.0013744468,0.00061086525,0.0021380284,-0.07663442,0.27036363,9.805975,2,1683969930.459715
-0.009390792,0.02841629,0.9973143,0.0013744468,0.00061086525,0.0021380284,-0.07681432,0.27033913,9.805974,2,1683969930.4700286
-0.009390792,0.02841629,0.9973143,0.00015271631,0.00061086525,0.0021380284,-0.07681432,0.27033913,9.805974,2,1683969930.485347
-0.0070126047,0.029391957,0.9997535,0.00015271631,0.00061086525,0.0021380284,-0.07681432,0.27033913,9.805974,2,1683969930.4956062
-0.0070126047,0.029391957,0.9997535,0.00015271631,0.00061086525,0.0021380284,-0.07696687,0.27034107,9.805972,2,1683969930.5007043
-0.0070126047,0.029391957,0.9997535,-0.0010690142,0.00061086525,-0.00030543262,-0.07696687,0.27034107,9.805972,2,1683969930.5212197
-0.0069516255,0.027440626,0.9992657,-0.0010690142,0.00061086525,-0.00030543262,-0.07696687,0.27034107,9.805972,2,1683969930.5314763
-0.0069516255,0.027440626,0.9992657,-0.0010690142,0.00061086525,-0.00030543262,-0.07691279,0.27024782,9.805976,2,1683969930.5366075
-0.008415125,0.02841629,0.99829,-0.0010690142,0.00061086525,-0.00030543262,-0.07691279,0.27024782,9.805976,2,1683969930.5417428
-0.008415125,0.02841629,0.99829,-0.0022907446,-0.00061086525,-0.00030543262,-0.07691279,0.27024782,9.805976,2,1683969930.562264
-0.008415125,0.02841629,0.99829,-0.0022907446,-0.00061086525,-0.00030543262,-0.07686822,0.27010107,9.805981,2,1683969930.5776482
-0.0070126047,0.02695279,0.9997535,-0.0022907446,-0.00061086525,-0.00030543262,-0.07686822,0.27010107,9.805981,2,1683969930.582782
-0.0070126047,0.02695279,0.9997535,0.00015271631,0.00061086525,-0.00030543262,-0.07686822,0.27010107,9.805981,2,1683969930.5879147
-0.0070126047,0.02695279,0.9997535,-0.0022907446,0.0018325958,-0.00030543262,-0.07686822,0.27010107,9.805981,2,1683969930.603264
-0.0070126047,0.02695279,0.9997535,-0.0022907446,0.0018325958,-0.00030543262,-0.07691816,0.27005962,9.805981,2,1683969930.6083977
-0.006524771,0.02695279,0.9997535,-0.0022907446,0.0018325958,-0.00030543262,-0.07691816,0.27005962,9.805981,2,1683969930.6186585
-0.006524771,0.02695279,0.9997535,0.00015271631,-0.004428773,-0.0027488936,-0.07691816,0.27005962,9.805981,2,1683969930.6494315
-0.0060369377,0.029879792,1.0002413,0.00015271631,-0.004428773,-0.0027488936,-0.07691816,0.27005962,9.805981,2,1683969930.6596932
-0.0060369377,0.029879792,1.0002413,0.00015271631,-0.004428773,-0.0027488936,-0.07714264,0.27005348,9.80598,2,1683969930.6648233
-0.0060369377,0.029879792,1.0002413,-0.0010690142,-0.004428773,-0.0027488936,-0.07714264,0.27005348,9.80598,2,1683969930.6852963
-0.0064637917,0.027440626,0.9987778,-0.0010690142,-0.004428773,-0.0027488936,-0.07714264,0.27005348,9.80598,2,1683969930.695561
-0.0064637917,0.027440626,0.9987778,-0.0010690142,-0.004428773,-0.0027488936,-0.076739125,0.26990607,9.805986,2,1683969930.7006962
-0.008415125,0.02695279,0.9992657,-0.0010690142,-0.004428773,-0.0027488936,-0.076739125,0.26990607,9.805986,2,1683969930.716085
-0.008415125,0.02695279,0.9992657,-0.0010690142,-0.004428773,-0.0027488936,-0.07649315,0.26985878,9.80599,2,1683969930.7212222
-0.0069516255,0.02792846,0.9992657,-0.0010690142,-0.004428773,-0.0027488936,-0.07649315,0.26985878,9.80599,2,1683969930.7467456
-0.0069516255,0.02792846,0.9992657,-0.0010690142,-0.004428773,-0.0027488936,-0.07642074,0.26989034,9.805989,2,1683969930.7621293
-0.0069516255,0.02792846,0.9992657,0.00015271631,-0.0018325958,0.0009162979,-0.07642074,0.26989034,9.805989,2,1683969930.7671854
-0.009451771,0.027440626,1.0007291,0.00015271631,-0.0018325958,0.0009162979,-0.07642074,0.26989034,9.805989,2,1683969930.7774649
-0.009451771,0.027440626,1.0007291,-0.0010690142,0.00061086525,-0.00030543262,-0.07642074,0.26989034,9.805989,2,1683969930.7826438
-0.009451771,0.027440626,1.0007291,-0.0010690142,0.00061086525,-0.00030543262,-0.07643084,0.2699033,9.805988,2,1683969930.7877762
-0.009451771,0.027440626,1.0007291,0.00015271631,0.00061086525,-0.00030543262,-0.07643084,0.2699033,9.805988,2,1683969930.8184834
-0.009451771,0.027440626,1.0007291,0.00015271631,0.00061086525,-0.00030543262,-0.076153114,0.26984307,9.805993,2,1683969930.8236153
-0.0059759584,0.02841629,0.9988388,0.00015271631,0.00061086525,-0.00030543262,-0.076153114,0.26984307,9.805993,2,1683969930.828709
-0.0059759584,0.02841629,0.9988388,0.00015271631,0.00061086525,-0.00030543262,-0.07617135,0.2698075,9.805994,2,1683969930.838969
-0.0059759584,0.02841629,0.9988388,0.0025961774,0.00061086525,-0.0027488936,-0.07617135,0.2698075,9.805994,2,1683969930.8492227
-0.006524771,0.027440626,0.9997535,0.0025961774,0.00061086525,-0.0027488936,-0.07617135,0.2698075,9.805994,2,1683969930.8646395
-0.007927292,0.028904125,0.9978021,0.0025961774,0.00061086525,-0.0027488936,-0.07617135,0.2698075,9.805994,2,1683969930.8697689
-0.007927292,0.028904125,0.9978021,0.0025961774,0.00061086525,-0.0027488936,-0.0763198,0.26990882,9.80599,2,1683969930.8902392
-0.007927292,0.028904125,0.9978021,0.0013744468,0.00061086525,0.0009162979,-0.0763198,0.26990882,9.80599,2,1683969930.8953311
-0.009390792,0.027440626,0.99829,0.0013744468,0.00061086525,0.0009162979,-0.0763198,0.26990882,9.80599,2,1683969930.9209473
-0.009390792,0.027440626,0.99829,0.0013744468,0.00061086525,0.0009162979,-0.07657126,0.26982236,9.80599,2,1683969930.9260783
-0.009390792,0.027440626,0.99829,-0.0010690142,0.0018325958,0.0009162979,-0.07657126,0.26982236,9.80599,2,1683969930.9312034
-0.009390792,0.029879792,0.9978021,-0.0010690142,0.0018325958,0.0009162979,-0.07657126,0.26982236,9.80599,2,1683969930.9517255
-0.009390792,0.029879792,0.9978021,0.00015271631,-0.004276057,-0.00030543262,-0.07657126,0.26982236,9.80599,2,1683969930.967129
-0.009390792,0.029879792,0.9978021,0.00015271631,-0.004276057,-0.00030543262,-0.076701574,0.26995978,9.805985,2,1683969930.972217
-0.008476105,0.02841629,1.0002413,0.00015271631,-0.004276057,-0.00030543262,-0.076701574,0.26995978,9.805985,2,1683969930.9773638
-0.008476105,0.02841629,1.0002413,0.00015271631,-0.004276057,-0.00030543262,-0.07662509,0.26984268,9.805989,2,1683969930.9876719
-0.008476105,0.02841629,1.0002413,0.0025961774,-0.00061086525,0.0009162979,-0.07662509,0.26984268,9.805989,2,1683969930.997896
-0.008476105,0.02841629,1.0002413,0.0025961774,-0.00061086525,0.0009162979,-0.07662528,0.26992548,9.805987,2,1683969931.023532
-0.008476105,0.02841629,1.0002413,-0.0022907446,0.0030543262,-0.0015271631,-0.07662528,0.26992548,9.805987,2,1683969931.0286586
-0.0064637917,0.027440626,0.9978631,-0.0022907446,0.0030543262,-0.0015271631,-0.07662528,0.26992548,9.805987,2,1683969931.0337894
-0.0064637917,0.027440626,0.9978631,-0.0010690142,0.00061086525,-0.00030543262,-0.07662528,0.26992548,9.805987,2,1683969931.0440493
-0.0064637917,0.027440626,0.9978631,-0.0010690142,0.00061086525,-0.00030543262,-0.07652627,0.2700236,9.8059845,2,1683969931.0645711
-0.008476105,0.02695279,0.9997535,-0.0010690142,0.00061086525,-0.00030543262,-0.07652627,0.2700236,9.8059845,2,1683969931.0748312
-0.008415125,0.02841629,0.9987778,-0.0010690142,0.00061086525,-0.00030543262,-0.07652627,0.2700236,9.8059845,2,1683969931.0902464
-0.008415125,0.02841629,0.9987778,0.00015271631,0.005497787,0.0009162979,-0.07652627,0.2700236,9.8059845,2,1683969931.0953045
-0.008415125,0.02841629,0.9987778,0.00015271631,0.0018325958,-0.00030543262,-0.07652627,0.2700236,9.8059845,2,1683969931.1055267
-0.008415125,0.02841629,0.9987778,0.00015271631,0.0018325958,-0.00030543262,-0.077318564,0.27007762,9.805977,2,1683969931.1208637
-0.0074394583,0.02841629,0.99829,0.00015271631,0.0018325958,-0.00030543262,-0.077318564,0.27007762,9.805977,2,1683969931.131125
-0.0074394583,0.02841629,0.99829,0.00015271631,0.0018325958,-0.00030543262,-0.07736951,0.26994768,9.80598,2,1683969931.1567218
-0.0074394583,0.02841629,0.99829,0.0025961774,0.00061086525,0.0009162979,-0.07736951,0.26994768,9.80598,2,1683969931.1618574
-0.0069516255,0.025977125,0.9978631,0.0025961774,0.00061086525,0.0009162979,-0.07736951,0.26994768,9.80598,2,1683969931.1669903
-0.0069516255,0.025977125,0.9978631,0.0025961774,0.00061086525,0.0009162979,-0.077311054,0.27003613,9.805979,2,1683969931.1772513
-0.006524771,0.02792846,1.0002413,0.0025961774,0.00061086525,0.0009162979,-0.077311054,0.27003613,9.805979,2,1683969931.1823795
-0.006524771,0.02792846,1.0002413,0.00015271631,-0.00061086525,-0.0015271631,-0.077311054,0.27003613,9.805979,2,1683969931.1926408
-0.006524771,0.02792846,1.0002413,-0.0010690142,-0.00061086525,-0.00030543262,-0.077311054,0.27003613,9.805979,2,1683969931.228477
-0.007927292,0.02695279,0.9968264,-0.0010690142,-0.00061086525,-0.00030543262,-0.077311054,0.27003613,9.805979,2,1683969931.233624
-0.007927292,0.02695279,0.9968264,-0.0010690142,-0.00061086525,-0.00030543262,-0.07715159,0.2700342,9.80598,2,1683969931.2438786
-0.007927292,0.02695279,0.9968264,-0.0010690142,-0.00061086525,-0.00030543262,-0.07713954,0.27007702,9.805979,2,1683969931.259227
-0.007927292,0.027440626,0.9973143,-0.0010690142,-0.00061086525,-0.00030543262,-0.07713954,0.27007702,9.805979,2,1683969931.269478
-0.007927292,0.027440626,0.9973143,0.0013744468,-0.0018325958,-0.00030543262,-0.07713954,0.27007702,9.805979,2,1683969931.2745705
-0.007927292,0.027440626,0.9973143,0.00015271631,0.0030543262,0.0009162979,-0.07713954,0.27007702,9.805979,2,1683969931.2950134
-0.007927292,0.027440626,0.9973143,0.00015271631,0.0030543262,0.0009162979,-0.077082716,0.27007517,9.80598,2,1683969931.300131
-0.0069516255,0.02792846,0.99829,0.00015271631,0.0030543262,0.0009162979,-0.077082716,0.27007517,9.80598,2,1683969931.3052616
-0.0069516255,0.02792846,0.99829,0.00015271631,0.0030543262,0.0009162979,-0.07725882,0.27011526,9.805976,2,1683969931.3206518
-0.006524771,0.02841629,1.0012169,0.00015271631,0.0030543262,0.0009162979,-0.07725882,0.27011526,9.805976,2,1683969931.3308642
-0.006524771,0.02841629,1.0012169,0.00015271631,-0.0030543262,-0.00030543262,-0.07725882,0.27011526,9.805976,2,1683969931.351342
-0.006524771,0.02841629,1.0012169,0.00015271631,-0.0030543262,-0.00030543262,-0.07841774,0.2692065,9.805993,2,1683969931.376992
-0.006524771,0.02841629,1.0012169,0.0013744468,0.00061086525,-0.0015271631,-0.07841774,0.2692065,9.805993,2,1683969931.3821268
-0.008963938,0.02792846,1.0012169,0.0013744468,0.00061086525,-0.0015271631,-0.07841774,0.2692065,9.805993,2,1683969931.3923771
-0.008963938,0.02792846,1.0012169,0.00015271631,0.0018325958,0.0009162979,-0.07841774,0.2692065,9.805993,2,1683969931.4128993
-0.009451771,0.027440626,1.0012169,0.00015271631,0.0018325958,0.0009162979,-0.07841774,0.2692065,9.805993,2,1683969931.4180303
-0.009451771,0.027440626,1.0012169,0.00015271631,0.0018325958,0.0009162979,-0.07853386,0.26927623,9.80599,2,1683969931.423165
-0.009451771,0.027440626,1.0012169,0.0013744468,-0.004276057,-0.0013744468,-0.07853386,0.26927623,9.80599,2,1683969931.4487765
-0.008963938,0.030367626,1.0002413,0.0013744468,-0.004276057,-0.0013744468,-0.07853386,0.26927623,9.80599,2,1683969931.4539084
-0.008963938,0.030367626,1.0002413,0.0013744468,-0.004276057,-0.0013744468,-0.07863487,0.26932576,9.805987,2,1683969931.4590375
-0.0059759584,0.02792846,0.9978631,0.0013744468,-0.004276057,-0.0013744468,-0.07863487,0.26932576,9.805987,2,1683969931.4744248
-0.0059759584,0.02792846,0.9978631,0.00015271631,0.00061086525,-0.00030543262,-0.07863487,0.26932576,9.805987,2,1683969931.489805
-0.0059759584,0.02792846,0.9978631,0.00015271631,0.00061086525,-0.00030543262,-0.07853964,0.26937085,9.805987,2,1683969931.5052185
-0.0069516255,0.02646496,0.9988388,0.00015271631,0.00061086525,-0.00030543262,-0.07853964,0.26937085,9.805987,2,1683969931.5359888
-0.0069516255,0.02646496,0.9988388,0.00015271631,0.00061086525,-0.00030543262,-0.07863942,0.26942617,9.8059845,2,1683969931.5411203
-0.0074394583,0.02695279,0.9973753,0.00015271631,0.00061086525,-0.00030543262,-0.07863942,0.26942617,9.8059845,2,1683969931.5462484
-0.0074394583,0.02695279,0.9973753,0.00015271631,0.00061086525,-0.00030543262,-0.078600585,0.2694136,9.805985,2,1683969931.5615916
-0.0074394583,0.02695279,0.9973753,-0.0022907446,-0.004428773,0.0021380284,-0.078600585,0.2694136,9.805985,2,1683969931.5666811
-0.0074394583,0.027440626,0.9987778,-0.0022907446,-0.004428773,0.0021380284,-0.078600585,0.2694136,9.805985,2,1683969931.5871284
-0.0074394583,0.027440626,0.9987778,0.00015271631,-0.0018325958,-0.0015271631,-0.078600585,0.2694136,9.805985,2,1683969931.6025193
-0.0074394583,0.027440626,0.9987778,0.00015271631,-0.0018325958,-0.0015271631,-0.07835396,0.2693213,9.80599,2,1683969931.6076443
-0.0074394583,0.027440626,0.9987778,0.00015271631,-0.0018325958,-0.0015271631,-0.07829078,0.26932055,9.80599,2,1683969931.628162
-0.0074394583,0.027440626,0.9987778,0.00015271631,-0.006872234,-0.00015271631,-0.07829078,0.26932055,9.80599,2,1683969931.6332932
-0.0070126047,0.027440626,1.0002413,0.00015271631,-0.006872234,-0.00015271631,-0.07829078,0.26932055,9.80599,2,1683969931.6538064
-0.0070126047,0.027440626,1.0002413,0.00015271631,-0.0018325958,0.0009162979,-0.07829078,0.26932055,9.80599,2,1683969931.664062
-0.0070126047,0.027440626,1.0002413,0.00015271631,-0.0018325958,0.0009162979,-0.077838086,0.26941407,9.805991,2,1683969931.6691926
-0.0070126047,0.027440626,1.0002413,-0.0010690142,-0.0056505036,-0.00030543262,-0.077838086,0.26941407,9.805991,2,1683969931.6794128
-0.008476105,0.02841629,0.9997535,-0.0010690142,-0.0056505036,-0.00030543262,-0.077838086,0.26941407,9.805991,2,1683969931.6845462
-0.008476105,0.02841629,0.9997535,-0.0010690142,-0.0056505036,-0.00030543262,-0.07780366,0.26948902,9.80599,2,1683969931.699934
-0.008476105,0.02841629,0.9997535,-0.0010690142,-0.0056505036,-0.00030543262,-0.07768774,0.26944736,9.805992,2,1683969931.7203898
-0.008902958,0.02695279,0.9978631,-0.0010690142,-0.0056505036,-0.00030543262,-0.07768774,0.26944736,9.805992,2,1683969931.7356374
-0.008902958,0.02695279,0.9978631,0.0025961774,0.00061086525,-0.00030543262,-0.07768774,0.26944736,9.805992,2,1683969931.7407167
-0.008902958,0.02841629,0.9978021,0.0025961774,0.00061086525,-0.00030543262,-0.07768774,0.26944736,9.805992,2,1683969931.7610462
-0.008902958,0.02841629,0.9978021,0.0025961774,0.00061086525,-0.00030543262,-0.077609524,0.26961398,9.805988,2,1683969931.7661328
-0.008902958,0.02841629,0.9978021,-0.0010690142,-0.00061086525,-0.0027488936,-0.077609524,0.26961398,9.805988,2,1683969931.7762911
-0.007927292,0.027440626,0.9949361,-0.0010690142,-0.00061086525,-0.0027488936,-0.077609524,0.26961398,9.805988,2,1683969931.801694
-0.007927292,0.027440626,0.9949361,-0.0010690142,-0.00061086525,-0.0027488936,-0.07764426,0.26962915,9.805987,2,1683969931.8067725
-0.007927292,0.027440626,0.9949361,-0.0010690142,-0.004428773,-0.00030543262,-0.07764426,0.26962915,9.805987,2,1683969931.8118732
-0.007927292,0.027440626,0.9949361,-0.0010690142,-0.004428773,-0.00030543262,-0.07691211,0.26966363,9.805991,2,1683969931.8220255
-0.007927292,0.027440626,0.9949361,0.0027488936,-0.00076358154,-0.0015271631,-0.07691211,0.26966363,9.805991,2,1683969931.8322003
-0.0069516255,0.027440626,0.9993266,0.0027488936,-0.00076358154,-0.0015271631,-0.07691211,0.26966363,9.805991,2,1683969931.8372784
-0.0069516255,0.027440626,0.9993266,-0.0009162979,0.0016798794,-0.0027488936,-0.07691211,0.26966363,9.805991,2,1683969931.8626792
-0.0069516255,0.027440626,0.9993266,-0.0009162979,0.0016798794,-0.0027488936,-0.07679669,0.26979223,9.805989,2,1683969931.8829923
-0.0069516255,0.027440626,0.9993266,-0.0009162979,-0.00076358154,0.0009162979,-0.07679669,0.26979223,9.805989,2,1683969931.893167
-0.0074394583,0.02646496,0.998351,-0.0009162979,-0.00076358154,0.0009162979,-0.07679669,0.26979223,9.805989,2,1683969931.8982463
-0.007927292,0.02646496,0.9954239,-0.0009162979,-0.00076358154,0.0009162979,-0.07679669,0.26979223,9.805989,2,1683969931.918633
-0.007927292,0.02646496,0.9954239,0.0015271631,-0.001985312,-0.00030543262,-0.07679669,0.26979223,9.805989,2,1683969931.9287906
-0.007927292,0.02646496,0.9954239,0.0015271631,-0.001985312,-0.00030543262,-0.0766161,0.2691344,9.806009,2,1683969931.9389572
-0.007927292,0.02646496,0.9954239,-0.0009162979,-0.00076358154,-0.00030543262,-0.0766161,0.2691344,9.806009,2,1683969931.9592762
-0.007927292,0.02646496,0.9954239,-0.0009162979,-0.00076358154,-0.00030543262,-0.07650644,0.26923177,9.806006,2,1683969931.9643583
-0.0064637917,0.02695279,0.99444824,-0.0009162979,-0.00076358154,-0.00030543262,-0.07650644,0.26923177,9.806006,2,1683969931.9745173
-0.0064637917,0.02695279,0.99444824,-0.0009162979,-0.00076358154,-0.00030543262,-0.07650426,0.26925153,9.806006,2,1683969931.9999244
-0.0064637917,0.02695279,0.99444824,0.0027488936,-0.0032070426,-0.0013744468,-0.07650426,0.26925153,9.806006,2,1683969932.0050035
-0.0069516255,0.02792846,0.9963996,0.0027488936,-0.0032070426,-0.0013744468,-0.07650426,0.26925153,9.806006,2,1683969932.0101027
-0.0069516255,0.02792846,0.9963996,-0.0009162979,0.00045814895,-0.0015271631,-0.07650426,0.26925153,9.806006,2,1683969932.0202932
-0.008902958,0.02646496,0.9968874,-0.0009162979,0.00045814895,-0.0015271631,-0.07650426,0.26925153,9.806006,2,1683969932.0253687
-0.008902958,0.02646496,0.9968874,-0.0009162979,0.00045814895,-0.0015271631,-0.07647925,0.26947787,9.806001,2,1683969932.0406084
-0.008902958,0.02646496,0.9968874,-0.0009162979,0.00045814895,-0.0015271631,-0.076377116,0.26951846,9.806001,2,1683969932.060932
-0.0070126047,0.02841629,1.0002413,-0.0009162979,0.00045814895,-0.0015271631,-0.076377116,0.26951846,9.806001,2,1683969932.0660167
-0.0070126047,0.02841629,1.0002413,0.00030543262,-0.001985312,-0.00030543262,-0.076377116,0.26951846,9.806001,2,1683969932.0711055
-0.008963938,0.029391957,1.0031683,0.00030543262,-0.001985312,-0.00030543262,-0.076377116,0.26951846,9.806001,2,1683969932.0864885
-0.008963938,0.029391957,1.0031683,0.003970624,0.0041233404,-0.00030543262,-0.076377116,0.26951846,9.806001,2,1683969932.0967486
-0.008963938,0.029391957,1.0031683,0.003970624,0.0041233404,-0.00030543262,-0.07626822,0.2696309,9.805998,2,1683969932.1019268
-0.006524771,0.02841629,1.0017048,0.003970624,0.0041233404,-0.00030543262,-0.07626822,0.2696309,9.805998,2,1683969932.1173124
-0.006524771,0.02841629,1.0017048,0.003970624,0.0041233404,-0.00030543262,-0.07630079,0.2698826,9.80599,2,1683969932.132685
-0.006524771,0.02841629,1.0017048,0.00030543262,0.0016798794,-0.00030543262,-0.07630079,0.2698826,9.80599,2,1683969932.1428995
-0.006524771,0.02841629,1.0017048,0.00030543262,0.0016798794,-0.00030543262,-0.07637811,0.26987582,9.80599,2,1683969932.1684964
-0.006524771,0.02841629,1.0017048,0.0015271631,0.00290161,-0.00030543262,-0.07637811,0.26987582,9.80599,2,1683969932.1736286
-0.006524771,0.02841629,1.0017048,0.0015271631,0.00290161,-0.00030543262,-0.075942345,0.2693012,9.806009,2,1683969932.1941497
-0.0069516255,0.028904125,0.9992657,0.0015271631,0.00290161,-0.00030543262,-0.075942345,0.2693012,9.806009,2,1683969932.1992407
-0.0069516255,0.028904125,0.9992657,-0.0009162979,0.0016798794,0.0009162979,-0.075942345,0.2693012,9.806009,2,1683969932.2145476
-0.0069516255,0.028904125,0.9992657,-0.0009162979,0.0016798794,0.0009162979,-0.07598992,0.269307,9.806008,2,1683969932.2248044
-0.0069516255,0.028904125,0.9992657,-0.0009162979,0.00290161,-0.00030543262,-0.07598992,0.269307,9.806008,2,1683969932.2401996
-0.007927292,0.028904125,0.9973143,-0.0009162979,0.00290161,-0.00030543262,-0.07598992,0.269307,9.806008,2,1683969932.245331
-0.007927292,0.028904125,0.9973143,0.00030543262,-0.0032070426,0.0021380284,-0.07598992,0.269307,9.806008,2,1683969932.2709734
-0.0069516255,0.028904125,0.9968874,0.00030543262,-0.0032070426,0.0021380284,-0.07598992,0.269307,9.806008,2,1683969932.2760692
-0.0069516255,0.028904125,0.9968874,0.00030543262,-0.0032070426,0.0021380284,-0.07604267,0.26917747,9.806012,2,1683969932.2812002
-0.0059759584,0.02841629,0.9973753,0.00030543262,-0.0032070426,0.0021380284,-0.07604267,0.26917747,9.806012,2,1683969932.2914484
-0.0059759584,0.02841629,0.9973753,0.00030543262,-0.0032070426,0.0021380284,-0.07612997,0.26917985,9.806011,2,1683969932.3119197
-0.0059759584,0.02841629,0.9973753,0.00030543262,-0.001985312,-0.00030543262,-0.07612997,0.26917985,9.806011,2,1683969932.3221862
-0.0059759584,0.02841629,0.9973753,0.00030543262,0.0016798794,0.0009162979,-0.07612997,0.26917985,9.806011,2,1683969932.3272734
-0.0059759584,0.02841629,0.9973753,0.00030543262,0.0016798794,0.0009162979,-0.07627897,0.26915357,9.80601,2,1683969932.3324182
-0.00798827,0.027440626,0.9997535,0.00030543262,0.0016798794,0.0009162979,-0.07627897,0.26915357,9.80601,2,1683969932.3478122
-0.00798827,0.027440626,0.9997535,0.00030543262,-0.001985312,0.0009162979,-0.07627897,0.26915357,9.80601,2,1683969932.3580751
-0.007927292,0.027440626,0.9987778,0.00030543262,-0.001985312,0.0009162979,-0.07627897,0.26915357,9.80601,2,1683969932.373464
-0.007927292,0.027440626,0.9987778,0.00030543262,-0.001985312,0.0009162979,-0.07634668,0.2691901,9.806009,2,1683969932.383726
-0.007927292,0.027440626,0.9987778,0.0015271631,0.0016798794,0.0009162979,-0.07634668,0.2691901,9.806009,2,1683969932.4042492
-0.007927292,0.027440626,0.9987778,0.0015271631,0.0016798794,0.0009162979,-0.07641442,0.26919222,9.806008,2,1683969932.4093566
-0.008902958,0.02695279,0.99829,0.0015271631,0.0016798794,0.0009162979,-0.07641442,0.26919222,9.806008,2,1683969932.4144914
-0.008902958,0.02695279,0.99829,0.0015271631,0.0016798794,0.0009162979,-0.076459,0.26919878,9.806008,2,1683969932.440048
-0.008902958,0.02695279,0.99829,-0.0009162979,-0.00076358154,0.0009162979,-0.076459,0.26919878,9.806008,2,1683969932.4451716
-0.008902958,0.02695279,0.99829,-0.0009162979,0.00045814895,-0.0027488936,-0.076459,0.26919878,9.806008,2,1683969932.4554203
-0.008902958,0.02695279,0.99829,-0.0009162979,0.00045814895,-0.0027488936,-0.07578631,0.26993588,9.805993,2,1683969932.465646
-0.0069516255,0.029879792,0.99829,-0.0009162979,0.00045814895,-0.0027488936,-0.07578631,0.26993588,9.805993,2,1683969932.4707787
-0.0069516255,0.029879792,0.99829,0.00030543262,-0.001985312,0.0009162979,-0.07578631,0.26993588,9.805993,2,1683969932.506637
-0.0069516255,0.029879792,0.99829,0.00030543262,-0.001985312,0.0009162979,-0.075523786,0.2699207,9.805996,2,1683969932.5117686
-0.005488125,0.027440626,0.9988388,0.00030543262,-0.001985312,0.0009162979,-0.075523786,0.2699207,9.805996,2,1683969932.5169044
-0.005488125,0.027440626,0.9988388,0.0015271631,0.00045814895,-0.00030543262,-0.075523786,0.2699207,9.805996,2,1683969932.5271583
-0.0075004376,0.02646496,1.0002413,0.0015271631,0.00045814895,-0.00030543262,-0.075523786,0.2699207,9.805996,2,1683969932.537417
-0.0075004376,0.02646496,1.0002413,0.0015271631,0.00045814895,-0.00030543262,-0.07528666,0.26988652,9.805999,2,1683969932.5527625
-0.0075004376,0.02646496,1.0002413,-0.0009162979,-0.001985312,-0.00030543262,-0.07528666,0.26988652,9.805999,2,1683969932.55789
-0.008415125,0.025977125,0.9987778,-0.0009162979,-0.001985312,-0.00030543262,-0.07528666,0.26988652,9.805999,2,1683969932.5630326
-0.008415125,0.025977125,0.9987778,-0.0009162979,-0.001985312,-0.00030543262,-0.0755326,0.26989883,9.805996,2,1683969932.5835376
-0.008476105,0.028904125,0.9992657,-0.0009162979,-0.001985312,-0.00030543262,-0.0755326,0.26989883,9.805996,2,1683969932.6040523
-0.008476105,0.028904125,0.9992657,-0.0009162979,-0.001985312,-0.00030543262,-0.075667,0.2698981,9.805995,2,1683969932.609144
-0.008476105,0.028904125,0.9992657,0.0015271631,-0.00076358154,-0.0015271631,-0.075667,0.2698981,9.805995,2,1683969932.6194024
-0.006524771,0.027440626,1.0002413,0.0015271631,-0.00076358154,-0.0015271631,-0.075667,0.2698981,9.805995,2,1683969932.63991
-0.006524771,0.027440626,1.0002413,-0.0009162979,0.0016798794,-0.0027488936,-0.075667,0.2698981,9.805995,2,1683969932.6450434
-0.006524771,0.027440626,1.0002413,-0.0009162979,0.0016798794,-0.0027488936,-0.07565772,0.2699787,9.805993,2,1683969932.6552637
-0.006524771,0.027440626,1.0002413,-0.0009162979,0.0016798794,-0.0027488936,-0.07575276,0.26999047,9.805991,2,1683969932.6808765
-0.007927292,0.027440626,0.998351,-0.0009162979,0.0016798794,-0.0027488936,-0.07575276,0.26999047,9.805991,2,1683969932.6911025
-0.007927292,0.027440626,0.998351,-0.0021380284,-0.004581489,-0.00030543262,-0.07575276,0.26999047,9.805991,2,1683969932.696233
-0.007927292,0.027440626,0.998351,0.00030543262,-0.004428773,0.0021380284,-0.07575276,0.26999047,9.805991,2,1683969932.7013643
-0.007927292,0.027440626,0.998351,0.00030543262,-0.004428773,0.0021380284,-0.0757011,0.2699807,9.805993,2,1683969932.7064936
-0.007927292,0.02646496,0.9968874,0.00030543262,-0.004428773,0.0021380284,-0.0757011,0.2699807,9.805993,2,1683969932.7116244
-0.007927292,0.02646496,0.9968874,0.0015271631,-0.00076358154,0.0021380284,-0.0757011,0.2699807,9.805993,2,1683969932.7371926
-0.007927292,0.02646496,0.9968874,0.0015271631,-0.00076358154,0.0021380284,-0.07555812,0.27093065,9.805967,2,1683969932.7525735
-0.009390792,0.02695279,0.99829,0.0015271631,-0.00076358154,0.0021380284,-0.07555812,0.27093065,9.805967,2,1683969932.757704
-0.009390792,0.02695279,0.99829,0.00030543262,-0.004428773,-0.00030543262,-0.07555812,0.27093065,9.805967,2,1683969932.788435
-0.0059759584,0.02646496,0.9992657,0.00030543262,-0.004428773,-0.00030543262,-0.07555812,0.27093065,9.805967,2,1683969932.7935653
-0.0059759584,0.02646496,0.9992657,0.00030543262,-0.004428773,-0.00030543262,-0.07557897,0.27097604,9.805965,2,1683969932.798696
-0.008902958,0.02646496,0.9963386,0.00030543262,-0.004428773,-0.00030543262,-0.07557897,0.27097604,9.805965,2,1683969932.8191788
-0.008902958,0.02646496,0.9963386,-0.0009162979,-0.001985312,-0.0015271631,-0.07557897,0.27097604,9.805965,2,1683969932.8243144
-0.008902958,0.02646496,0.9963386,-0.0009162979,-0.001985312,-0.0015271631,-0.07537601,0.27100325,9.805967,2,1683969932.8294497
-0.008902958,0.02646496,0.9963386,-0.0009162979,-0.001985312,-0.0015271631,-0.07550142,0.27102128,9.805965,2,1683969932.839708
-0.008902958,0.02646496,0.9963386,0.0015271631,0.00045814895,-0.0015271631,-0.07550142,0.27102128,9.805965,2,1683969932.8602412
-0.008963938,0.028904125,1.0002413,0.0015271631,0.00045814895,-0.0015271631,-0.07550142,0.27102128,9.805965,2,1683969932.870503
-0.006524771,0.028904125,0.9997535,0.0015271631,0.00045814895,-0.0015271631,-0.07550142,0.27102128,9.805965,2,1683969932.8858986
-0.006524771,0.028904125,0.9997535,0.00030543262,-0.004428773,0.0009162979,-0.07550142,0.27102128,9.805965,2,1683969932.891029
-0.006524771,0.028904125,0.9997535,0.00030543262,-0.004428773,0.0009162979,-0.07545161,0.27109846,9.8059635,2,1683969932.8961606
-0.006524771,0.028904125,0.9997535,0.0015271631,-0.001985312,0.0009162979,-0.07545161,0.27109846,9.8059635,2,1683969932.9166715
-0.0069516255,0.02841629,0.9978631,0.0015271631,-0.001985312,0.0009162979,-0.07545161,0.27109846,9.8059635,2,1683969932.9321134
-0.0069516255,0.02841629,0.9978631,0.0015271631,-0.001985312,0.0009162979,-0.07543981,0.27111754,9.8059635,2,1683969932.9423618
-0.008476105,0.02792846,1.0007291,0.0015271631,-0.001985312,0.0009162979,-0.07543981,0.27111754,9.8059635,2,1683969932.9628813
-0.008476105,0.02792846,1.0007291,0.0015271631,-0.001985312,0.0009162979,-0.0752918,0.27126172,9.805961,2,1683969932.968011
-0.008476105,0.02792846,1.0007291,-0.0009162979,0.0016798794,-0.0015271631,-0.0752918,0.27126172,9.805961,2,1683969932.973143
-0.008476105,0.02792846,1.0007291,-0.0009162979,0.00045814895,-0.0027488936,-0.0752918,0.27126172,9.805961,2,1683969932.9987125
-0.0069516255,0.02646496,0.9987778,-0.0009162979,0.00045814895,-0.0027488936,-0.0752918,0.27126172,9.805961,2,1683969933.0038495
-0.0069516255,0.02646496,0.9987778,0.00030543262,0.00045814895,0.0009162979,-0.0752918,0.27126172,9.805961,2,1683969933.014116
-0.0069516255,0.02646496,0.9987778,0.00030543262,0.00045814895,0.0009162979,-0.074717276,0.27191225,9.805947,2,1683969933.0243218
-0.007927292,0.02695279,0.9992657,0.00030543262,0.00045814895,0.0009162979,-0.074717276,0.27191225,9.805947,2,1683969933.049958
-0.007927292,0.02695279,0.9992657,-0.0009162979,0.0016798794,-0.0015271631,-0.074717276,0.27191225,9.805947,2,1683969933.0550978
-0.007927292,0.02695279,0.9992657,-0.0009162979,0.0016798794,-0.0015271631,-0.07481985,0.27191994,9.805945,2,1683969933.065358
-0.007927292,0.02695279,0.9992657,-0.0009162979,-0.00076358154,-0.00030543262,-0.07481985,0.27191994,9.805945,2,1683969933.0858722
-0.007927292,0.02695279,0.9992657,-0.0009162979,-0.00076358154,-0.00030543262,-0.07488605,0.27184266,9.805947,2,1683969933.0910048
-0.009878625,0.02792846,0.99829,-0.0009162979,-0.00076358154,-0.00030543262,-0.07488605,0.27184266,9.805947,2,1683969933.0961356
-0.009878625,0.02792846,0.99829,0.0015271631,0.00045814895,0.0009162979,-0.07488605,0.27184266,9.805947,2,1683969933.116594
-0.009878625,0.02792846,0.99829,0.0015271631,0.00045814895,0.0009162979,-0.074932754,0.27181768,9.805947,2,1683969933.1268544
-0.0059759584,0.02792846,0.9978631,0.0015271631,0.00045814895,0.0009162979,-0.074932754,0.27181768,9.805947,2,1683969933.142266
-0.0059759584,0.02792846,0.9978631,0.0015271631,0.00045814895,0.0009162979,-0.07496896,0.2718972,9.805944,2,1683969933.1627252
-0.0069516255,0.027440626,0.9992657,0.0015271631,0.00045814895,0.0009162979,-0.07496896,0.2718972,9.805944,2,1683969933.1678643
-0.0069516255,0.027440626,0.9992657,0.00030543262,0.00045814895,-0.00030543262,-0.07496896,0.2718972,9.805944,2,1683969933.178125
-0.0069516255,0.027440626,0.9992657,0.0015271631,-0.004428773,-0.0013744468,-0.07496896,0.2718972,9.805944,2,1683969933.1934526
-0.0069516255,0.027440626,0.9992657,0.0015271631,-0.004428773,-0.0013744468,-0.07507823,0.2720727,9.80594,2,1683969933.1985846
-0.0075004376,0.027440626,1.0007291,0.0015271631,-0.004428773,-0.0013744468,-0.07507823,0.2720727,9.80594,2,1683969933.2037141
-0.0075004376,0.027440626,1.0007291,0.0027488936,-0.00076358154,-0.0015271631,-0.07507823,0.2720727,9.80594,2,1683969933.2241967
-0.007927292,0.02695279,0.9968874,0.0027488936,-0.00076358154,-0.0015271631,-0.07507823,0.2720727,9.80594,2,1683969933.2293277
-0.007927292,0.02695279,0.9968874,0.0027488936,-0.00076358154,-0.0015271631,-0.07508947,0.27202925,9.805941,2,1683969933.239548
-0.007927292,0.02695279,0.9968874,-0.0009162979,-0.00076358154,-0.0015271631,-0.07508947,0.27202925,9.805941,2,1683969933.2651703
-0.007927292,0.02695279,0.9968874,-0.0009162979,-0.00076358154,-0.0015271631,-0.07510802,0.27196723,9.805943,2,1683969933.2703032
-0.007927292,0.02695279,0.9968874,-0.0009162979,-0.00076358154,-0.0015271631,-0.07516172,0.2726415,9.805923,2,1683969933.2959476
-0.007927292,0.02695279,0.9968874,0.0015271631,-0.00076358154,0.0009162979,-0.07516172,0.2726415,9.805923,2,1683969933.3010778
-0.007927292,0.02841629,0.9978021,0.0015271631,-0.00076358154,0.0009162979,-0.07516172,0.2726415,9.805923,2,1683969933.3112972
-0.007927292,0.02841629,0.9978021,0.0015271631,-0.00076358154,0.0009162979,-0.07513866,0.27263752,9.805923,2,1683969933.3164287
-0.007927292,0.02841629,0.9978021,0.0015271631,-0.00076358154,-0.0015271631,-0.07513866,0.27263752,9.805923,2,1683969933.326647
-0.0074394583,0.027440626,0.9973753,0.0015271631,-0.00076358154,-0.0015271631,-0.07513866,0.27263752,9.805923,2,1683969933.3369286
-0.0069516255,0.02646496,0.9992657,0.0015271631,-0.00076358154,-0.0015271631,-0.07513866,0.27263752,9.805923,2,1683969933.3522663
-0.0069516255,0.02646496,0.9992657,0.0015271631,-0.00076358154,-0.00030543262,-0.07513866,0.27263752,9.805923,2,1683969933.362527
-0.0069516255,0.02646496,0.9992657,0.0015271631,-0.00076358154,-0.00030543262,-0.07502231,0.27274004,9.805922,2,1683969933.3779047
-0.0069516255,0.02646496,0.9992657,0.00030543262,0.0016798794,0.0021380284,-0.07502231,0.27274004,9.805922,2,1683969933.3932986
-0.007927292,0.02695279,0.99829,0.00030543262,0.0016798794,0.0021380284,-0.07502231,0.27274004,9.805922,2,1683969933.3984232
-0.007927292,0.02695279,0.99829,0.00030543262,0.0016798794,0.0021380284,-0.07515454,0.27281296,9.805918,2,1683969933.4035594
-0.007927292,0.02695279,0.99829,0.0027488936,-0.0032070426,-0.0013744468,-0.07515454,0.27281296,9.805918,2,1683969933.418965
-0.007927292,0.02695279,0.99829,0.0027488936,-0.0032070426,-0.0013744468,-0.07514042,0.27277407,9.80592,2,1683969933.4343617
-0.007927292,0.02646496,0.998351,0.0027488936,-0.0032070426,-0.0013744468,-0.07514042,0.27277407,9.80592,2,1683969933.4446175
-0.007927292,0.02646496,0.998351,0.0027488936,-0.0032070426,-0.0013744468,-0.074997164,0.27268776,9.805923,2,1683969933.4548743
-0.007927292,0.02695279,0.9987778,0.0027488936,-0.0032070426,-0.0013744468,-0.074997164,0.27268776,9.805923,2,1683969933.4600046
-0.007927292,0.02695279,0.9987778,0.0015271631,0.00290161,-0.00030543262,-0.074997164,0.27268776,9.805923,2,1683969933.4855678
-0.0074394583,0.025001459,0.9993266,0.0015271631,0.00290161,-0.00030543262,-0.074997164,0.27268776,9.805923,2,1683969933.490696
-0.0074394583,0.025001459,0.9993266,-0.0009162979,0.00290161,-0.00030543262,-0.074997164,0.27268776,9.805923,2,1683969933.5060525
-0.0074394583,0.025001459,0.9993266,-0.0009162979,0.00290161,-0.00030543262,-0.07514094,0.2726508,9.8059225,2,1683969933.5214431
-0.007927292,0.025001459,0.9988388,-0.0009162979,0.00290161,-0.00030543262,-0.07514094,0.2726508,9.8059225,2,1683969933.5265763
-0.007927292,0.025001459,0.9988388,0.0015271631,-0.00076358154,-0.00030543262,-0.07514094,0.2726508,9.8059225,2,1683969933.5317116
-0.007927292,0.025001459,0.9988388,0.0015271631,-0.00076358154,-0.00030543262,-0.075293295,0.27259177,9.805923,2,1683969933.5420198
-0.007927292,0.025001459,0.9988388,0.0,-0.00061086525,-0.00015271631,-0.075293295,0.27259177,9.805923,2,1683969933.5574079
-0.007927292,0.025001459,0.9988388,0.0,-0.00061086525,-0.00015271631,-0.07503581,0.2724154,9.80593,2,1683969933.5625427
-0.009451771,0.025489293,1.0002413,0.0,-0.00061086525,-0.00015271631,-0.07503581,0.2724154,9.80593,2,1683969933.567678
-0.008415125,0.02695279,0.9987778,0.0,-0.00061086525,-0.00015271631,-0.07503581,0.2724154,9.80593,2,1683969933.5830214
-0.008415125,0.02695279,0.9987778,0.002443461,0.00061086525,-0.00015271631,-0.07503581,0.2724154,9.80593,2,1683969933.608667
-0.008415125,0.02695279,0.9987778,0.002443461,0.00061086525,-0.00015271631,-0.074960954,0.27244857,9.80593,2,1683969933.613802
-0.008415125,0.02695279,0.9987778,0.0,0.00061086525,0.0010690142,-0.074960954,0.27244857,9.80593,2,1683969933.618939
-0.008415125,0.027440626,0.9973753,0.0,0.00061086525,0.0010690142,-0.074960954,0.27244857,9.80593,2,1683969933.6240697
-0.008415125,0.027440626,0.9973753,0.0,0.00061086525,0.0010690142,-0.075030774,0.2725803,9.805925,2,1683969933.6445806
-0.0069516255,0.02695279,0.9978631,0.0,0.00061086525,0.0010690142,-0.075030774,0.2725803,9.805925,2,1683969933.6548462
-0.0069516255,0.02695279,0.9978631,0.0,-0.0030543262,0.0022907446,-0.075030774,0.2725803,9.805925,2,1683969933.6599762
-0.0069516255,0.02695279,0.9978631,0.0,-0.0030543262,0.0022907446,-0.07473945,0.27276292,9.805923,2,1683969933.6651058
-0.0069516255,0.02695279,0.9978631,0.0,-0.0018325958,-0.00015271631,-0.07473945,0.27276292,9.805923,2,1683969933.7060251
-0.0069516255,0.027440626,0.9959117,0.0,-0.0018325958,-0.00015271631,-0.07473945,0.27276292,9.805923,2,1683969933.7111592
-0.0069516255,0.027440626,0.9959117,0.0,-0.0018325958,-0.00015271631,-0.07465899,0.2726999,9.805925,2,1683969933.7162883
-0.0069516255,0.027440626,0.9959117,0.0012217305,-0.0018325958,-0.0013744468,-0.07465899,0.2726999,9.805925,2,1683969933.7367747
-0.00798827,0.028904125,1.0002413,0.0012217305,-0.0018325958,-0.0013744468,-0.07465899,0.2726999,9.805925,2,1683969933.7419152
-0.00798827,0.028904125,1.0002413,0.0012217305,-0.0018325958,-0.0013744468,-0.074620135,0.2727341,9.805924,2,1683969933.7573488
-0.00798827,0.028904125,1.0002413,0.0,-0.0018325958,-0.0013744468,-0.074620135,0.2727341,9.805924,2,1683969933.7675936
-0.00798827,0.028904125,1.0002413,0.0,-0.0018325958,-0.0013744468,-0.07447282,0.27277014,9.805925,2,1683969933.7726839
-0.00798827,0.028904125,1.0012169,0.0,-0.0018325958,-0.0013744468,-0.07447282,0.27277014,9.805925,2,1683969933.7829401
-0.00798827,0.028904125,1.0012169,0.0,-0.0018325958,-0.0013744468,-0.07443156,0.27284518,9.8059225,2,1683969933.81883
-0.009390792,0.028904125,0.9968264,0.0,-0.0018325958,-0.0013744468,-0.07443156,0.27284518,9.8059225,2,1683969933.8239625
-0.009390792,0.028904125,0.9968264,0.0,-0.0018325958,0.0010690142,-0.07443156,0.27284518,9.8059225,2,1683969933.8291135
-0.009390792,0.028904125,0.9968264,0.0,-0.0018325958,0.0010690142,-0.07407964,0.27298638,9.805922,2,1683969933.834286
-0.0069516255,0.028904125,0.9978021,0.0,-0.0018325958,0.0010690142,-0.07407964,0.27298638,9.805922,2,1683969933.8496606
-0.0069516255,0.028904125,0.9978021,0.0,-0.0018325958,0.0010690142,-0.07400022,0.2729283,9.805923,2,1683969933.8752728
-0.0069516255,0.028904125,0.9978021,0.0,0.00061086525,-0.00015271631,-0.07400022,0.2729283,9.805923,2,1683969933.8855345
-0.0069516255,0.02841629,0.9978021,0.0,0.00061086525,-0.00015271631,-0.07400022,0.2729283,9.805923,2,1683969933.8957942
-0.007927292,0.02695279,0.9968264,0.0,0.00061086525,-0.00015271631,-0.07400022,0.2729283,9.805923,2,1683969933.9111502
-0.007927292,0.02695279,0.9968264,-0.0012217305,0.0030543262,-0.00015271631,-0.07400022,0.2729283,9.805923,2,1683969933.9162867
-0.007927292,0.02695279,0.9968264,-0.0012217305,0.0030543262,-0.00015271631,-0.07394578,0.27301773,9.805922,2,1683969933.9214272
-0.0075004376,0.028904125,0.9997535,-0.0012217305,0.0030543262,-0.00015271631,-0.07394578,0.27301773,9.805922,2,1683969933.9367821
-0.0075004376,0.028904125,0.9997535,-0.0012217305,0.0030543262,-0.00015271631,-0.07426172,0.27308375,9.805918,2,1683969933.941916
-0.0075004376,0.028904125,0.9997535,-0.002443461,0.0018325958,-0.00015271631,-0.07426172,0.27308375,9.805918,2,1683969933.9624383
-0.0075004376,0.028904125,0.9997535,0.0012217305,0.00061086525,-0.00015271631,-0.07426172,0.27308375,9.805918,2,1683969933.9726987
-0.0075004376,0.028904125,0.9997535,0.0012217305,0.00061086525,-0.00015271631,-0.07432859,0.27303872,9.805919,2,1683969933.9778285
-0.005488125,0.027440626,0.9988388,0.0012217305,0.00061086525,-0.00015271631,-0.07432859,0.27303872,9.805919,2,1683969934.0034683
-0.005488125,0.027440626,0.9988388,0.0012217305,0.00061086525,-0.00015271631,-0.07437136,0.27306435,9.805918,2,1683969934.0188346
-0.005488125,0.027440626,0.9988388,-0.0036651916,-0.00076358154,-0.00015271631,-0.07437136,0.27306435,9.805918,2,1683969934.0239668
-0.0059759584,0.02841629,0.9988388,-0.0036651916,-0.00076358154,-0.00015271631,-0.07437136,0.27306435,9.805918,2,1683969934.029101
-0.0059759584,0.02841629,0.9988388,-0.0036651916,-0.00076358154,-0.00015271631,-0.07429812,0.27292493,9.805922,2,1683969934.044452
-0.0059759584,0.02841629,0.9988388,-0.0012217305,0.0018325958,0.0010690142,-0.07429812,0.27292493,9.805922,2,1683969934.064958
-0.0064637917,0.02841629,0.9973753,-0.0012217305,0.0018325958,0.0010690142,-0.07429812,0.27292493,9.805922,2,1683969934.070091
-0.008415125,0.02792846,0.9987778,-0.0012217305,0.0018325958,0.0010690142,-0.07429812,0.27292493,9.805922,2,1683969934.1008391
-0.008415125,0.02792846,0.9987778,0.0012217305,-0.0018325958,-0.0013744468,-0.07429812,0.27292493,9.805922,2,1683969934.1059701
-0.00798827,0.029879792,0.9992657,0.0012217305,-0.0018325958,-0.0013744468,-0.07429812,0.27292493,9.805922,2,1683969934.1162395
-0.00798827,0.029879792,0.9992657,0.0012217305,-0.0018325958,-0.0013744468,-0.07477704,0.27295527,9.805917,2,1683969934.1213708
-0.00798827,0.029879792,0.9992657,0.0,0.00061086525,-0.00015271631,-0.07477704,0.27295527,9.805917,2,1683969934.126505
-0.00798827,0.029879792,0.9992657,-0.0012217305,-0.0056505036,-0.00015271631,-0.07477704,0.27295527,9.805917,2,1683969934.1572793
-0.008415125,0.02695279,0.9978021,-0.0012217305,-0.0056505036,-0.00015271631,-0.07477704,0.27295527,9.805917,2,1683969934.1726594
-0.008415125,0.02695279,0.9978021,-0.0012217305,-0.0056505036,-0.00015271631,-0.07479248,0.27293584,9.805918,2,1683969934.17779
-0.008415125,0.02695279,0.9978021,-0.0012217305,-0.0056505036,-0.00015271631,-0.074820586,0.2728934,9.805919,2,1683969934.2033536
-0.007927292,0.02646496,0.9973143,-0.0012217305,-0.0056505036,-0.00015271631,-0.074820586,0.2728934,9.805919,2,1683969934.2085083
-0.007927292,0.02646496,0.9973143,0.0012217305,0.00061086525,0.0010690142,-0.074820586,0.2728934,9.805919,2,1683969934.2136343
-0.007927292,0.02646496,0.9973143,-0.0012217305,0.004276057,0.0010690142,-0.074820586,0.2728934,9.805919,2,1683969934.2391958
-0.007927292,0.02646496,0.9973143,-0.0012217305,0.004276057,0.0010690142,-0.07496162,0.27291763,9.805918,2,1683969934.2443354
-0.0075004376,0.027440626,1.0017048,-0.0012217305,0.004276057,0.0010690142,-0.07496162,0.27291763,9.805918,2,1683969934.2494664
-0.009390792,0.027440626,0.9987778,0.002443461,-0.00061086525,0.0010690142,-0.07496162,0.27291763,9.805918,2,1683969934.264837
-0.009390792,0.027440626,0.9987778,0.002443461,-0.00061086525,0.0010690142,-0.07509157,0.27285755,9.805918,2,1683969934.2699697
-0.007927292,0.025001459,0.99829,0.002443461,-0.00061086525,0.0010690142,-0.07509157,0.27285755,9.805918,2,1683969934.2905123
-0.007927292,0.025001459,0.99829,-0.002443461,-0.0056505036,-0.00015271631,-0.07509157,0.27285755,9.805918,2,1683969934.3059046
-0.007927292,0.025001459,0.99829,-0.002443461,-0.0056505036,-0.00015271631,-0.07498508,0.27287152,9.805918,2,1683969934.311035
-0.007927292,0.025001459,0.99829,-0.002443461,-0.0056505036,-0.00015271631,-0.07477381,0.27279758,9.805922,2,1683969934.3315036
-0.0074394583,0.025977125,0.99829,-0.002443461,-0.0056505036,-0.00015271631,-0.07477381,0.27279758,9.805922,2,1683969934.3417237
-0.0074394583,0.025977125,0.99829,-0.0012217305,-0.0018325958,0.0010690142,-0.07477381,0.27279758,9.805922,2,1683969934.346856
-0.0064637917,0.02792846,0.9978631,-0.0012217305,-0.0018325958,0.0010690142,-0.07477381,0.27279758,9.805922,2,1683969934.3673265
-0.0064637917,0.02792846,0.9978631,0.0,-0.005497787,-0.0,-0.07477381,0.27279758,9.805922,2,1683969934.3775897
-0.0064637917,0.02792846,0.9978631,0.0,-0.005497787,-0.0,-0.074458666,0.2728075,9.805923,2,1683969934.382724
-0.009878625,0.02841629,0.9987778,0.0,-0.005497787,-0.0,-0.074458666,0.2728075,9.805923,2,1683969934.387853
-0.0074394583,0.02841629,0.9968264,0.0,-0.005497787,-0.0,-0.074458666,0.2728075,9.805923,2,1683969934.4083014
-0.0074394583,0.02841629,0.9968264,-0.0012217305,-0.006872234,-0.0012217305,-0.074458666,0.2728075,9.805923,2,1683969934.413431
-0.0074394583,0.02841629,0.9968264,-0.0012217305,-0.006872234,-0.0012217305,-0.07425263,0.2728074,9.805925,2,1683969934.4185593
-0.0074394583,0.02841629,0.9968264,-0.0012217305,-0.00061086525,-0.0013744468,-0.07425263,0.2728074,9.805925,2,1683969934.4288182
-0.0074394583,0.02646496,0.9987778,-0.0012217305,-0.00061086525,-0.0013744468,-0.07425263,0.2728074,9.805925,2,1683969934.433961
-0.0074394583,0.02646496,0.9987778,-0.0012217305,-0.00061086525,-0.0013744468,-0.073993064,0.27274257,9.805929,2,1683969934.4442222
-0.007927292,0.02792846,0.9992657,-0.0012217305,-0.00061086525,-0.0013744468,-0.073993064,0.27274257,9.805929,2,1683969934.4647274
-0.007927292,0.02792846,0.9992657,0.0,0.00061086525,-0.00015271631,-0.073993064,0.27274257,9.805929,2,1683969934.4698143
-0.007927292,0.02792846,0.9992657,0.0,0.00061086525,-0.00015271631,-0.07384664,0.2726839,9.805932,2,1683969934.495402
-0.0069516255,0.02792846,0.9987778,0.0,0.00061086525,-0.00015271631,-0.07384664,0.2726839,9.805932,2,1683969934.5159163
-0.0069516255,0.02792846,0.9987778,0.0,0.00061086525,-0.00015271631,-0.073909245,0.2726544,9.805932,2,1683969934.5210433
-0.0069516255,0.02792846,0.9987778,0.0,0.0067195175,-0.0013744468,-0.073909245,0.2726544,9.805932,2,1683969934.5312662
-0.00798827,0.027440626,0.9997535,0.0,0.0067195175,-0.0013744468,-0.073909245,0.2726544,9.805932,2,1683969934.5517836
-0.00798827,0.027440626,0.9997535,-0.0012217305,0.0018325958,-0.00015271631,-0.073909245,0.2726544,9.805932,2,1683969934.562038
-0.00798827,0.027440626,0.9997535,-0.0012217305,0.0018325958,-0.00015271631,-0.07399904,0.27257204,9.805934,2,1683969934.5671668
-0.00798827,0.027440626,0.9997535,-0.002443461,0.0018325958,-0.00015271631,-0.07399904,0.27257204,9.805934,2,1683969934.5877311
-0.0059759584,0.02792846,0.9968874,-0.002443461,0.0018325958,-0.00015271631,-0.07399904,0.27257204,9.805934,2,1683969934.592863
-0.0059759584,0.02792846,0.9968874,-0.002443461,0.0018325958,-0.00015271631,-0.07398581,0.27255812,9.805934,2,1683969934.6031206
-0.0060369377,0.02792846,0.9997535,-0.002443461,0.0018325958,-0.00015271631,-0.07398581,0.27255812,9.805934,2,1683969934.613379
-0.0060369377,0.02792846,0.9997535,-0.0012217305,0.0030543262,-0.00015271631,-0.07398581,0.27255812,9.805934,2,1683969934.6236386
-0.0060369377,0.02792846,0.9997535,-0.0012217305,0.0030543262,-0.00015271631,-0.07416113,0.27243787,9.805936,2,1683969934.6287673
-0.0060369377,0.02792846,0.9997535,-0.0012217305,0.0030543262,-0.00015271631,-0.07443197,0.27239448,9.805936,2,1683969934.6441526
-0.0060369377,0.02792846,0.9997535,-0.0012217305,0.0030543262,-0.00015271631,-0.07487307,0.27188423,9.805946,2,1683969934.6595373
-0.0074394583,0.027440626,0.9973753,-0.0012217305,0.0030543262,-0.00015271631,-0.07487307,0.27188423,9.805946,2,1683969934.6697881
-0.0074394583,0.027440626,0.9973753,0.0012217305,0.0018325958,-0.00015271631,-0.07487307,0.27188423,9.805946,2,1683969934.6749225
-0.0074394583,0.027440626,0.9973753,0.0,0.00061086525,-0.00015271631,-0.07487307,0.27188423,9.805946,2,1683969934.7056937
-0.0074394583,0.027440626,0.9973753,0.0,0.00061086525,-0.00015271631,-0.07502714,0.27190095,9.805944,2,1683969934.710822
-0.0074394583,0.02841629,0.9954239,0.0,0.00061086525,-0.00015271631,-0.07502714,0.27190095,9.805944,2,1683969934.7159555
-0.0074394583,0.02841629,0.9954239,0.0,0.00061086525,-0.00015271631,-0.07516454,0.2718851,9.805944,2,1683969934.7415683
-0.009451771,0.027440626,1.0012169,0.0,0.00061086525,-0.00015271631,-0.07516454,0.2718851,9.805944,2,1683969934.7466993
-0.009451771,0.027440626,1.0012169,-0.0012217305,0.00061086525,-0.00015271631,-0.07516454,0.2718851,9.805944,2,1683969934.7518432
-0.0069516255,0.027440626,0.99829,-0.0012217305,0.00061086525,-0.00015271631,-0.07516454,0.2718851,9.805944,2,1683969934.7723427
-0.0069516255,0.027440626,0.99829,-0.0012217305,0.00061086525,-0.00015271631,-0.07518406,0.27183637,9.805945,2,1683969934.777479
-0.0069516255,0.027440626,0.99829,0.0,-0.0018325958,-0.00015271631,-0.07518406,0.27183637,9.805945,2,1683969934.7877302
-0.0069516255,0.02695279,0.99829,0.0,-0.0018325958,-0.00015271631,-0.07518406,0.27183637,9.805945,2,1683969934.7928624
-0.0069516255,0.02695279,0.99829,0.0,-0.0018325958,-0.00015271631,-0.07521176,0.27182564,9.805944,2,1683969934.813338
-0.0069516255,0.02695279,0.99829,0.0,0.0030543262,0.0022907446,-0.07521176,0.27182564,9.805944,2,1683969934.8235953
-0.0069516255,0.02695279,0.99829,-0.002443461,-0.0018325958,0.0010690142,-0.07521176,0.27182564,9.805944,2,1683969934.8338583
-0.0075004376,0.02792846,0.9997535,-0.002443461,-0.0018325958,0.0010690142,-0.07521176,0.27182564,9.805944,2,1683969934.8389883
-0.0075004376,0.02792846,0.9997535,-0.002443461,-0.0018325958,0.0010690142,-0.075328775,0.27180418,9.805944,2,1683969934.8543825
-0.0069516255,0.02792846,0.9973143,-0.002443461,-0.0018325958,0.0010690142,-0.075328775,0.27180418,9.805944,2,1683969934.8646374
-0.0069516255,0.02792846,0.9973143,-0.002443461,0.0018325958,0.0010690142,-0.075328775,0.27180418,9.805944,2,1683969934.8800747
-0.0069516255,0.02792846,0.9973143,-0.002443461,0.0018325958,0.0010690142,-0.07506358,0.27167073,9.80595,2,1683969934.8903303
-0.007927292,0.02646496,0.9987778,-0.002443461,0.0018325958,0.0010690142,-0.07506358,0.27167073,9.80595,2,1683969934.900582
-0.007927292,0.02646496,0.9987778,-0.0012217305,0.00061086525,-0.0025961774,-0.07506358,0.27167073,9.80595,2,1683969934.9159024
-0.007927292,0.02646496,0.9987778,-0.0012217305,0.00061086525,-0.0025961774,-0.07585341,0.27188835,9.805939,2,1683969934.9414973
-0.006524771,0.031831127,0.9997535,-0.0012217305,0.00061086525,-0.0025961774,-0.07585341,0.27188835,9.805939,2,1683969934.9466283
-0.006524771,0.031831127,0.9997535,-0.0012217305,0.0030543262,-0.00030543262,-0.07585341,0.27188835,9.805939,2,1683969934.9517624
-0.006524771,0.031831127,0.9997535,0.0,-0.008093964,-0.0013744468,-0.07585341,0.27188835,9.805939,2,1683969934.9825895
-0.00798827,0.028904125,0.9992657,0.0,-0.008093964,-0.0013744468,-0.07585341,0.27188835,9.805939,2,1683969934.9877176
-0.00798827,0.028904125,0.9992657,0.0,-0.008093964,-0.0013744468,-0.07584888,0.27189702,9.805939,2,1683969934.9928458
-0.00798827,0.028904125,0.9992657,0.0,-0.0018325958,0.0009162979,-0.07584888,0.27189702,9.805939,2,1683969935.0031214
-0.00798827,0.028904125,0.9992657,0.0,-0.0018325958,0.0009162979,-0.075451404,0.272087,9.805936,2,1683969935.0184944
-0.00798827,0.028904125,1.0031683,0.0,-0.0018325958,0.0009162979,-0.075451404,0.272087,9.805936,2,1683969935.0287542
-0.00798827,0.02646496,1.0007291,0.0,-0.0018325958,0.0009162979,-0.075451404,0.272087,9.805936,2,1683969935.0390124
-0.00798827,0.02646496,1.0007291,0.0,-0.0018325958,0.0009162979,-0.07532155,0.27213517,9.805936,2,1683969935.0492692
-0.00798827,0.02646496,1.0007291,0.0,-0.0018325958,-0.00030543262,-0.07532155,0.27213517,9.805936,2,1683969935.0646129
-0.00798827,0.02646496,1.0007291,0.0,-0.006872234,-0.00015271631,-0.07532155,0.27213517,9.805936,2,1683969935.0799577
-0.008476105,0.027440626,1.0002413,0.0,-0.006872234,-0.00015271631,-0.07532155,0.27213517,9.805936,2,1683969935.0850868
-0.008476105,0.027440626,1.0002413,0.0,-0.006872234,-0.00015271631,-0.07531984,0.27215704,9.805935,2,1683969935.090208
-0.008476105,0.027440626,1.0002413,0.0,-0.0018325958,-0.00030543262,-0.07531984,0.27215704,9.805935,2,1683969935.1055596
-0.0074394583,0.02646496,0.9978631,0.0,-0.0018325958,-0.00030543262,-0.07531984,0.27215704,9.805935,2,1683969935.110689
-0.0074394583,0.02646496,0.9978631,0.0,-0.0018325958,-0.00030543262,-0.07522341,0.27214146,9.805937,2,1683969935.1209505
-0.0074394583,0.02646496,0.9978631,0.0,-0.0018325958,-0.00030543262,-0.075286396,0.2721688,9.805936,2,1683969935.1568415
-0.0074394583,0.02646496,0.9978631,-0.002443461,0.0018325958,-0.00030543262,-0.075286396,0.2721688,9.805936,2,1683969935.1619716
-0.0074394583,0.025001459,0.9988388,-0.002443461,0.0018325958,-0.00030543262,-0.075286396,0.2721688,9.805936,2,1683969935.1671107
-0.0074394583,0.025001459,0.9988388,-0.002443461,0.0018325958,-0.00030543262,-0.07540827,0.27209443,9.805936,2,1683969935.1927686
-0.0074394583,0.025001459,0.9988388,0.0,-0.00061086525,0.0009162979,-0.07540827,0.27209443,9.805936,2,1683969935.197899
-0.008902958,0.027440626,0.9973753,0.0,-0.00061086525,0.0009162979,-0.07540827,0.27209443,9.805936,2,1683969935.213286
-0.008902958,0.027440626,0.9973753,0.0012217305,0.0018325958,-0.00030543262,-0.07540827,0.27209443,9.805936,2,1683969935.2286756
-0.008902958,0.027440626,0.9973753,0.0012217305,0.0018325958,-0.00030543262,-0.07535497,0.27121788,9.805962,2,1683969935.2338042
-0.008902958,0.027440626,0.9973753,0.0,-0.00061086525,0.0009162979,-0.07535497,0.27121788,9.805962,2,1683969935.2492096
-0.008963938,0.02792846,0.9997535,0.0,-0.00061086525,0.0009162979,-0.07535497,0.27121788,9.805962,2,1683969935.2594736
-0.008963938,0.02792846,0.9997535,0.0,-0.00061086525,0.0009162979,-0.07527627,0.27126303,9.805961,2,1683969935.2645993
-0.008963938,0.02792846,0.9997535,-0.0012217305,-0.00061086525,-0.0015271631,-0.07527627,0.27126303,9.805961,2,1683969935.2799911
-0.008415125,0.02792846,0.99829,-0.0012217305,-0.00061086525,-0.0015271631,-0.07527627,0.27126303,9.805961,2,1683969935.3004694
-0.008415125,0.02792846,0.99829,-0.0012217305,-0.00061086525,-0.0015271631,-0.0752529,0.2711621,9.8059635,2,1683969935.310729
-0.0069516255,0.027440626,0.998351,-0.0012217305,-0.00061086525,-0.0015271631,-0.0752529,0.2711621,9.8059635,2,1683969935.315858
-0.0069516255,0.027440626,0.998351,0.002443461,0.0018325958,0.0009162979,-0.0752529,0.2711621,9.8059635,2,1683969935.336332
-0.0069516255,0.027440626,0.998351,0.002443461,0.0018325958,0.0009162979,-0.075302996,0.27117136,9.805963,2,1683969935.3414552
-0.0074394583,0.02792846,0.9978631,0.002443461,0.0018325958,0.0009162979,-0.075302996,0.27117136,9.805963,2,1683969935.3619702
-0.0074394583,0.02792846,0.9978631,0.002443461,0.0018325958,0.0009162979,-0.07547194,0.27124318,9.80596,2,1683969935.3670537
-0.0074394583,0.02792846,0.9978631,-0.0012217305,0.00061086525,-0.00030543262,-0.07547194,0.27124318,9.80596,2,1683969935.3824453
-0.0064637917,0.02646496,0.9978631,-0.0012217305,0.00061086525,-0.00030543262,-0.07547194,0.27124318,9.80596,2,1683969935.3978302
-0.0064637917,0.02646496,0.9978631,-0.0012217305,0.00061086525,-0.00030543262,-0.07535587,0.2711282,9.8059635,2,1683969935.4029284
-0.0064637917,0.02646496,0.9978631,0.0,-0.00061086525,-0.0015271631,-0.07535587,0.2711282,9.8059635,2,1683969935.4080687
-0.0064637917,0.02792846,0.9978631,0.0,-0.00061086525,-0.0015271631,-0.07535587,0.2711282,9.8059635,2,1683969935.438845
-0.0064637917,0.02792846,0.9978631,-0.0012217305,-0.00061086525,0.0021380284,-0.07535587,0.2711282,9.8059635,2,1683969935.4439795
-0.0064637917,0.02792846,0.9978631,-0.0012217305,-0.00061086525,0.0021380284,-0.075257726,0.27117696,9.805963,2,1683969935.4542367
-0.0064637917,0.02792846,0.9978631,0.0012217305,0.00061086525,-0.0015271631,-0.075257726,0.27117696,9.805963,2,1683969935.47471
-0.0064637917,0.02792846,0.9978631,0.0012217305,0.00061086525,-0.0015271631,-0.07503072,0.27116367,9.805964,2,1683969935.47984
-0.007927292,0.02646496,0.9987778,0.0012217305,0.00061086525,-0.0015271631,-0.07503072,0.27116367,9.805964,2,1683969935.4849284
-0.009451771,0.025977125,1.0002413,0.0012217305,0.00061086525,-0.0015271631,-0.07503072,0.27116367,9.805964,2,1683969935.5054054
-0.009451771,0.025977125,1.0002413,0.0012217305,0.00061086525,-0.0015271631,-0.075779185,0.2707616,9.80597,2,1683969935.5156643
-0.009451771,0.025977125,1.0002413,0.0012217305,0.0018325958,-0.00030543262,-0.075779185,0.2707616,9.80597,2,1683969935.5207953
-0.0070126047,0.028904125,0.9997535,0.0012217305,0.0018325958,-0.00030543262,-0.075779185,0.2707616,9.80597,2,1683969935.5361872
-0.0070126047,0.028904125,0.9997535,0.0012217305,0.0018325958,-0.00030543262,-0.07590241,0.2707474,9.80597,2,1683969935.5413268
-0.0070126047,0.028904125,0.9997535,0.0012217305,-0.00061086525,0.0009162979,-0.07590241,0.2707474,9.80597,2,1683969935.5464544
-0.0070126047,0.028904125,0.9997535,0.0012217305,-0.00061086525,0.0009162979,-0.075688384,0.27078187,9.80597,2,1683969935.5772421
-0.0074394583,0.02792846,0.99829,0.0012217305,-0.00061086525,0.0009162979,-0.075688384,0.27078187,9.80597,2,1683969935.5875065
-0.0074394583,0.02792846,0.99829,0.0,-0.0018325958,-0.00030543262,-0.075688384,0.27078187,9.80597,2,1683969935.5926368
-0.00798827,0.02695279,1.0002413,0.0,-0.0018325958,-0.00030543262,-0.075688384,0.27078187,9.80597,2,1683969935.6131492
-0.00798827,0.02695279,1.0002413,-0.002443461,0.00061086525,-0.00030543262,-0.075688384,0.27078187,9.80597,2,1683969935.618282
-0.00798827,0.02695279,1.0002413,-0.002443461,0.00061086525,-0.00030543262,-0.0756188,0.27078414,9.805971,2,1683969935.6285365
-0.009878625,0.029391957,0.9963386,-0.002443461,0.00061086525,-0.00030543262,-0.0756188,0.27078414,9.805971,2,1683969935.643846
-0.009878625,0.029391957,0.9963386,-0.002443461,0.00061086525,-0.00030543262,-0.07563186,0.27066106,9.805974,2,1683969935.6489766
-0.009878625,0.029391957,0.9963386,-0.0012217305,0.0030543262,-0.00030543262,-0.07563186,0.27066106,9.805974,2,1683969935.6591887
-0.009878625,0.029391957,0.9963386,-0.0012217305,0.0030543262,-0.00030543262,-0.0756792,0.27063859,9.805975,2,1683969935.6694493
-0.007927292,0.02646496,0.99829,-0.0012217305,0.0030543262,-0.00030543262,-0.0756792,0.27063859,9.805975,2,1683969935.690019
-0.007927292,0.02646496,0.99829,-0.0012217305,-0.0018325958,0.0021380284,-0.0756792,0.27063859,9.805975,2,1683969935.7002833
-0.007927292,0.02646496,0.99829,0.0012217305,-0.0030543262,0.0009162979,-0.0756792,0.27063859,9.805975,2,1683969935.7156644
-0.007927292,0.02646496,0.99829,0.0012217305,-0.0030543262,0.0009162979,-0.07558309,0.27055272,9.805978,2,1683969935.7259223
-0.0059759584,0.02841629,0.9987778,0.0012217305,-0.0030543262,0.0009162979,-0.07558309,0.27055272,9.805978,2,1683969935.7360744
-0.0075004376,0.02646496,1.0007291,0.0012217305,-0.0030543262,0.0009162979,-0.07558309,0.27055272,9.805978,2,1683969935.7412236
-0.0075004376,0.02646496,1.0007291,0.0,0.00061086525,0.0009162979,-0.07558309,0.27055272,9.805978,2,1683969935.7514749
-0.0075004376,0.02646496,1.0007291,0.0,0.00061086525,0.0009162979,-0.07543281,0.27063975,9.805976,2,1683969935.7566047
-0.0075004376,0.02646496,1.0007291,0.0,0.00061086525,0.0009162979,-0.0754973,0.27024487,9.805987,2,1683969935.7771213
-0.008963938,0.02646496,0.9997535,0.0,0.00061086525,0.0009162979,-0.0754973,0.27024487,9.805987,2,1683969935.7822535
-0.008963938,0.02646496,0.9997535,-0.002443461,0.00061086525,-0.0027488936,-0.0754973,0.27024487,9.805987,2,1683969935.7924757
-0.008963938,0.02646496,0.9997535,-0.002443461,0.00061086525,-0.0027488936,-0.07553246,0.27020693,9.805987,2,1683969935.8129914
-0.008963938,0.02646496,0.9997535,0.0012217305,-0.0018325958,0.0009162979,-0.07553246,0.27020693,9.805987,2,1683969935.8181245
-0.0064637917,0.02646496,0.9987778,0.0012217305,-0.0018325958,0.0009162979,-0.07553246,0.27020693,9.805987,2,1683969935.828322
-0.0064637917,0.02646496,0.9987778,0.0012217305,-0.0018325958,0.0009162979,-0.07553534,0.27018252,9.805988,2,1683969935.8538675
-0.008476105,0.02695279,1.0012169,0.0012217305,-0.0018325958,0.0009162979,-0.07553534,0.27018252,9.805988,2,1683969935.8589985
-0.008476105,0.02695279,1.0012169,-0.0012217305,-0.0018325958,0.0021380284,-0.07553534,0.27018252,9.805988,2,1683969935.864129
-0.008476105,0.02695279,1.0012169,-0.0012217305,-0.0018325958,-0.00030543262,-0.07553534,0.27018252,9.805988,2,1683969935.874389
-0.0074394583,0.02695279,0.9973753,-0.0012217305,-0.0018325958,-0.00030543262,-0.07553534,0.27018252,9.805988,2,1683969935.8846436
-0.0074394583,0.02695279,0.9973753,-0.0012217305,-0.0018325958,-0.00030543262,-0.07564806,0.27007923,9.80599,2,1683969935.8948991
-0.007927292,0.02646496,0.9978021,-0.0012217305,-0.0018325958,-0.00030543262,-0.07564806,0.27007923,9.80599,2,1683969935.910311
-0.007927292,0.02646496,0.9978021,-0.0012217305,-0.0018325958,-0.00030543262,-0.07556605,0.27000642,9.805993,2,1683969935.9154363
-0.007927292,0.02646496,0.9978021,-0.0012217305,0.00061086525,-0.0015271631,-0.07556605,0.27000642,9.805993,2,1683969935.9256916
-0.007927292,0.02646496,0.9978021,-0.0012217305,0.00061086525,-0.0015271631,-0.07565771,0.2698063,9.805998,2,1683969935.9461982
-0.0074394583,0.027440626,0.9992657,-0.0012217305,0.00061086525,-0.0015271631,-0.07565771,0.2698063,9.805998,2,1683969935.9564164
-0.0074394583,0.027440626,0.9992657,0.0012217305,0.0018325958,-0.00030543262,-0.07565771,0.2698063,9.805998,2,1683969935.971803
-0.0074394583,0.027440626,0.9992657,0.0,0.0030543262,0.0009162979,-0.07565771,0.2698063,9.805998,2,1683969935.9923167
-0.0074394583,0.027440626,0.9992657,0.0,0.0030543262,0.0009162979,-0.07594114,0.26983306,9.805994,2,1683969935.9974487
-0.0075004376,0.02792846,1.0002413,0.0,0.0030543262,0.0009162979,-0.07594114,0.26983306,9.805994,2,1683969936.002582
-0.0074394583,0.02792846,0.9978631,0.0,0.0030543262,0.0009162979,-0.07594114,0.26983306,9.805994,2,1683969936.0231254
-0.0074394583,0.02792846,0.9978631,0.0012217305,0.00061086525,-0.0027488936,-0.07594114,0.26983306,9.805994,2,1683969936.0282578
-0.0074394583,0.02792846,0.9978631,0.0012217305,0.00061086525,-0.0027488936,-0.07606367,0.26981428,9.805994,2,1683969936.033387
-0.0074394583,0.028904125,0.9978021,0.0012217305,0.00061086525,-0.0027488936,-0.07606367,0.26981428,9.805994,2,1683969936.0385232
-0.0074394583,0.028904125,0.9978021,-0.0012217305,-0.00061086525,-0.0027488936,-0.07606367,0.26981428,9.805994,2,1683969936.0487926
-0.0074394583,0.028904125,0.9978021,-0.0012217305,-0.00061086525,-0.0027488936,-0.07611905,0.27055556,9.805973,2,1683969936.0641804
-0.0074394583,0.028904125,0.9978021,-0.0012217305,-0.00061086525,-0.0027488936,-0.07625762,0.27041048,9.805976,2,1683969936.079604
-0.0075004376,0.02646496,0.9997535,-0.0012217305,-0.00061086525,-0.0027488936,-0.07625762,0.27041048,9.805976,2,1683969936.0898747
-0.0075004376,0.02646496,0.9997535,0.0,-0.0018325958,-0.00030543262,-0.07625762,0.27041048,9.805976,2,1683969936.0950022
-0.0075004376,0.02646496,0.9997535,0.0012217305,0.0018325958,-0.00030543262,-0.07625762,0.27041048,9.805976,2,1683969936.1257796
-0.0075004376,0.02646496,0.9997535,0.0012217305,0.0018325958,-0.00030543262,-0.076248296,0.27041587,9.805976,2,1683969936.1309118
-0.00798827,0.029879792,0.9997535,0.0012217305,0.0018325958,-0.00030543262,-0.076248296,0.27041587,9.805976,2,1683969936.1360433
-0.00798827,0.029879792,0.9997535,-0.0012217305,0.004276057,-0.0015271631,-0.076248296,0.27041587,9.805976,2,1683969936.1667664
-0.00798827,0.029879792,0.9997535,-0.0012217305,0.004276057,-0.0015271631,-0.07641939,0.27058157,9.80597,2,1683969936.1719015
-0.0064637917,0.02792846,0.9992657,-0.0012217305,0.004276057,-0.0015271631,-0.07641939,0.27058157,9.80597,2,1683969936.1770341
-0.007927292,0.02792846,0.9988388,-0.0012217305,0.004276057,-0.0015271631,-0.07641939,0.27058157,9.80597,2,1683969936.1923833
-0.007927292,0.02792846,0.9988388,0.0012217305,-0.00061086525,0.0009162979,-0.0764762,0.27057788,9.80597,2,1683969936.2026503
-0.008415125,0.02695279,0.9992657,0.0012217305,-0.00061086525,0.0009162979,-0.0764762,0.27057788,9.80597,2,1683969936.2282586
-0.008415125,0.02695279,0.9992657,0.0012217305,0.00061086525,-0.00030543262,-0.0764762,0.27057788,9.80597,2,1683969936.2333934
-0.008415125,0.02695279,0.9992657,0.0012217305,0.00061086525,-0.00030543262,-0.07640996,0.27063447,9.805969,2,1683969936.2385268
-0.008415125,0.02695279,0.9992657,0.0,0.0030543262,-0.00030543262,-0.07640996,0.27063447,9.805969,2,1683969936.248808
-0.0074394583,0.027440626,0.9993266,0.0,0.0030543262,-0.00030543262,-0.07640996,0.27063447,9.805969,2,1683969936.259074
-0.0074394583,0.027440626,0.9993266,0.0,0.0030543262,-0.00030543262,-0.07643081,0.27054098,9.805971,2,1683969936.2744212
-0.00798827,0.02841629,1.0007291,0.0,0.0030543262,-0.00030543262,-0.07643081,0.27054098,9.805971,2,1683969936.2949474
-0.00798827,0.02841629,1.0007291,0.0,0.0030543262,-0.00030543262,-0.07647837,0.27051136,9.805972,2,1683969936.300077
-0.00798827,0.02841629,1.0007291,-0.0012217305,-0.0018325958,-0.00030543262,-0.07647837,0.27051136,9.805972,2,1683969936.3154638
-0.0064637917,0.02695279,0.9992657,-0.0012217305,-0.0018325958,-0.00030543262,-0.07647837,0.27051136,9.805972,2,1683969936.3205543
-0.0064637917,0.02695279,0.9992657,-0.0012217305,-0.0018325958,-0.00030543262,-0.07661962,0.27039284,9.805973,2,1683969936.3256848
-0.0064637917,0.02695279,0.9992657,0.0,-0.0018325958,-0.00030543262,-0.07661962,0.27039284,9.805973,2,1683969936.356387
-0.007927292,0.025489293,0.9973143,0.0,-0.0018325958,-0.00030543262,-0.07661962,0.27039284,9.805973,2,1683969936.3666492
-0.007927292,0.025489293,0.9973143,0.0,-0.0018325958,-0.00030543262,-0.076454945,0.27045223,9.805973,2,1683969936.3769093
-0.008415125,0.027440626,0.9968264,0.0,-0.0018325958,-0.00030543262,-0.076454945,0.27045223,9.805973,2,1683969936.3923104
-0.008415125,0.027440626,0.9968264,0.002443461,-0.0030543262,-0.0013744468,-0.076454945,0.27045223,9.805973,2,1683969936.4025688
-0.008415125,0.027440626,0.9968264,0.0012217305,0.00061086525,0.0009162979,-0.07637328,0.27049354,9.805973,2,1683969936.4128468
-0.007927292,0.029391957,0.9978021,0.0012217305,0.00061086525,0.0009162979,-0.07637328,0.27049354,9.805973,2,1683969936.4179313
-0.007927292,0.029391957,0.9978021,0.0012217305,0.00061086525,0.0009162979,-0.07635538,0.27063796,9.805969,2,1683969936.433308
-0.007927292,0.029391957,0.9978021,0.0,-0.0018325958,0.0021380284,-0.07635538,0.27063796,9.805969,2,1683969936.4435647
-0.0069516255,0.02792846,0.9992657,0.0,-0.0018325958,0.0021380284,-0.07635538,0.27063796,9.805969,2,1683969936.4538224
-0.0075004376,0.02695279,0.9997535,0.0,-0.0018325958,0.0021380284,-0.07635538,0.27063796,9.805969,2,1683969936.4692097
-0.0075004376,0.02695279,0.9997535,0.0,-0.0018325958,0.0021380284,-0.07637536,0.27067962,9.805968,2,1683969936.4794328
-0.0075004376,0.02695279,0.9997535,0.002443461,0.0018325958,0.0009162979,-0.07637536,0.27067962,9.805968,2,1683969936.4845712
-0.0075004376,0.02695279,0.9997535,0.002443461,0.0018325958,0.0009162979,-0.07656257,0.2707432,9.805964,2,1683969936.5101726
-0.0074394583,0.029391957,0.99829,0.002443461,0.0018325958,0.0009162979,-0.07656257,0.2707432,9.805964,2,1683969936.5152647
-0.0074394583,0.029391957,0.99829,-0.002443461,0.00061086525,0.0009162979,-0.07656257,0.2707432,9.805964,2,1683969936.5255196
-0.0074394583,0.027440626,0.9987778,0.002443461,0.0018325958,-0.0015271631,-0.07664629,0.27136347,9.805947,2,1683969936.546086
-0.0074394583,0.027440626,0.9987778,0.002443461,0.0018325958,-0.0015271631,-0.07676543,0.27136728,9.805945,2,1683969936.5512302
-0.008415125,0.02792846,0.99829,0.0013744468,0.0030543262,-0.0015271631,-0.07676543,0.27136728,9.805945,2,1683969936.5512395
-0.007927292,0.030367626,0.9987778,0.0013744468,0.0030543262,-0.0015271631,-0.07676543,0.27136728,9.805945,2,1683969936.556359
-0.007927292,0.030367626,0.9987778,0.00015271631,0.00061086525,-0.00030543262,-0.07676543,0.27136728,9.805945,2,1683969936.5666165
-0.008902958,0.02646496,0.99829,0.00015271631,0.00061086525,-0.00030543262,-0.07676543,0.27136728,9.805945,2,1683969936.5820055
-0.008902958,0.02646496,0.99829,0.00015271631,0.00061086525,-0.00030543262,-0.07679182,0.2712714,9.805948,2,1683969936.5871048
-0.008902958,0.02646496,0.99829,0.00015271631,-0.00061086525,-0.00030543262,-0.07679182,0.2712714,9.805948,2,1683969936.5921977
-0.007927292,0.02646496,0.9973753,0.00015271631,-0.00061086525,-0.00030543262,-0.07679182,0.2712714,9.805948,2,1683969936.617802
-0.007927292,0.02646496,0.9973753,0.00015271631,-0.00061086525,-0.00030543262,-0.07683691,0.27119586,9.80595,2,1683969936.6229377
-0.007927292,0.02646496,0.9973753,0.00015271631,-0.0018325958,-0.0015271631,-0.07683691,0.27119586,9.80595,2,1683969936.6332023
-0.007927292,0.02646496,0.9973753,0.00015271631,-0.0018325958,-0.0015271631,-0.07690658,0.27120322,9.805949,2,1683969936.6485858
-0.007927292,0.02841629,0.9978021,0.00015271631,-0.0018325958,-0.0015271631,-0.07690658,0.27120322,9.805949,2,1683969936.6588042
-0.007927292,0.02841629,0.9978021,0.00015271631,-0.0030543262,-0.0015271631,-0.07690658,0.27120322,9.805949,2,1683969936.6690636
-0.008963938,0.02792846,0.9997535,0.00015271631,-0.0030543262,-0.0015271631,-0.07690658,0.27120322,9.805949,2,1683969936.6895351
-0.008963938,0.02792846,0.9997535,-0.0010690142,0.0018325958,-0.0015271631,-0.07690658,0.27120322,9.805949,2,1683969936.694664
-0.008963938,0.02792846,0.9997535,-0.0010690142,0.0018325958,-0.0015271631,-0.07666876,0.27123332,9.80595,2,1683969936.7049272
-0.008963938,0.02792846,0.9997535,-0.0010690142,0.0018325958,-0.0015271631,-0.07668,0.271237,9.80595,2,1683969936.7356465
-0.008963938,0.02792846,0.9997535,0.00015271631,0.00061086525,0.0009162979,-0.07668,0.271237,9.80595,2,1683969936.7407947
-0.008902958,0.02841629,0.9987778,0.00015271631,0.00061086525,0.0009162979,-0.07668,0.271237,9.80595,2,1683969936.7459323
-0.008902958,0.02792846,0.9973143,0.00015271631,0.00061086525,0.0009162979,-0.07668,0.271237,9.80595,2,1683969936.7510629
-0.008902958,0.02792846,0.9973143,0.00015271631,0.0018325958,0.0009162979,-0.07668,0.271237,9.80595,2,1683969936.7613146
