acc_x,acc_y,acc_z,gyr_x,gyr_y,gyr_z,grav_x,grav_y,grav_z,label,timestamp
-0.057704587,-0.017955907,0.98254,-0.0010681152,0.0012016296,-0.00093460083,-0.5556782,-0.15137912,9.789724,2,1683807369.25143
-0.05574824,-0.01674267,0.9805988,-0.0010681152,0.0001335144,0.0012016296,-0.55569583,-0.15155652,9.78972,2,1683807369.2670565
-0.055990886,-0.020154899,0.9742445,0.0032043457,-0.004005432,0.0001335144,-0.5555785,-0.151631,9.789725,2,1683807369.3295557
-0.055990886,-0.020154899,0.9742445,0.0,0.0001335144,-0.002002716,-0.5555785,-0.151631,9.789725,2,1683807369.3451803
-0.055990886,-0.020154899,0.9742445,0.0,0.0001335144,-0.002002716,-0.55546004,-0.15191269,9.789728,2,1683807369.3608081
-0.056233536,-0.011374097,0.98181206,-0.0010681152,0.0001335144,0.0001335144,-0.55546004,-0.15191269,9.789728,2,1683807369.3608081
-0.057461936,-0.018699015,0.98132676,0.0010681152,0.0022697449,-0.00093460083,-0.5552593,-0.15227786,9.789733,2,1683807369.3920557
-0.059645765,-0.015999563,0.9774141,0.0010681152,0.0022697449,-0.00093460083,-0.5552593,-0.15227786,9.789733,2,1683807369.40768
-0.054777652,-0.016257375,0.9788851,0.0010681152,0.0012016296,-0.00093460083,-0.55537254,-0.15229402,9.789727,2,1683807369.43893
-0.056233536,-0.018198555,0.9805988,-0.0010681152,-0.0018692017,-0.00093460083,-0.5556791,-0.15265249,9.789703,2,1683807369.454556
-0.056233536,-0.018198555,0.9805988,0.0010681152,0.0001335144,0.0001335144,-0.5556192,-0.15303378,9.789701,2,1683807369.4701798
-0.054777652,-0.013315276,0.9793704,0.0010681152,0.0001335144,0.0001335144,-0.5556192,-0.15303378,9.789701,2,1683807369.4858053
-0.05574824,-0.016257375,0.9832831,0.0010681152,-0.00093460083,0.0001335144,-0.5556192,-0.15303378,9.789701,2,1683807369.5014307
-0.05574824,-0.016257375,0.9832831,0.0010681152,-0.00093460083,0.0001335144,-0.5556314,-0.1526743,9.789705,2,1683807369.5326803
-0.05671883,-0.017955907,0.9779145,-0.0010681152,-0.00093460083,0.0001335144,-0.5554025,-0.15328224,9.78971,2,1683807369.548306
-0.05671883,-0.017955907,0.9779145,0.0,0.0001335144,-0.00093460083,-0.55585086,-0.15324692,9.789685,2,1683807369.5639312
-0.05574824,-0.011616744,0.9810841,0.0,0.0001335144,-0.00093460083,-0.5559311,-0.15309967,9.789682,2,1683807369.5795553
-0.05574824,-0.011616744,0.9810841,0.0,-0.00093460083,0.0001335144,-0.5559311,-0.15309967,9.789682,2,1683807369.5951803
-0.05354925,-0.015028973,0.98009837,0.0,-0.00093460083,0.0001335144,-0.555767,-0.15306963,9.789692,2,1683807369.62643
-0.05721929,-0.017227964,0.9820547,0.0,-0.00093460083,0.0012016296,-0.5564729,-0.15290122,9.789656,2,1683807369.6420553
-0.05721929,-0.017227964,0.9820547,0.0,-0.00093460083,0.0012016296,-0.5565046,-0.15299487,9.789652,2,1683807369.658109
-0.054519836,-0.011616744,0.98401105,-0.0010681152,0.0012016296,0.0001335144,-0.55634964,-0.15270293,9.789665,2,1683807369.6736555
-0.052821305,-0.015514269,0.98229736,0.0,-0.00093460083,0.0001335144,-0.55600035,-0.15269348,9.789685,2,1683807369.704861
-0.05671883,-0.017470613,0.98084146,0.0,-0.00093460083,0.0012016296,-0.556012,-0.1527286,9.789683,2,1683807369.7201936
-0.05671883,-0.017470613,0.98084146,0.0,-0.00093460083,0.0012016296,-0.5561066,-0.15291542,9.789676,2,1683807369.7360833
-0.05671883,-0.017470613,0.98084146,0.0,-0.00093460083,-0.00093460083,-0.5561066,-0.15291542,9.789676,2,1683807369.7514436
-0.058432527,-0.014786326,0.9820547,0.0,-0.00093460083,-0.00093460083,-0.5562732,-0.1530872,9.789663,2,1683807369.7674077
-0.054034542,-0.016500022,0.9793704,-0.0010681152,0.0001335144,0.0001335144,-0.55624336,-0.15356393,9.789658,2,1683807369.7983193
-0.054034542,-0.016500022,0.9793704,-0.0010681152,0.0001335144,0.0001335144,-0.556441,-0.15376675,9.789643,2,1683807369.8139446
-0.057461936,-0.014301031,0.98132676,-0.0010681152,0.0001335144,0.0001335144,-0.5568435,-0.1536989,9.789622,2,1683807369.8295686
-0.052821305,-0.01674267,0.9815694,0.0,-0.00093460083,0.0001335144,-0.5568435,-0.1536989,9.789622,2,1683807369.8608057
-0.0550203,-0.015028973,0.98181206,-0.0010681152,-0.00093460083,0.0012016296,-0.55646664,-0.15359153,9.789645,2,1683807369.8764453
-0.0550203,-0.015028973,0.98181206,0.0010681152,0.0012016296,0.0001335144,-0.55628556,-0.15363204,9.789654,2,1683807369.907694
-0.058432527,-0.013315276,0.9815694,0.0010681152,0.0012016296,0.0001335144,-0.55628556,-0.15363204,9.789654,2,1683807369.907694
-0.058432527,-0.013315276,0.9815694,0.0,0.0001335144,0.0001335144,-0.55685335,-0.1535941,9.789622,2,1683807369.923304
-0.052821305,-0.0130726285,0.97961307,0.0,0.0001335144,0.0001335144,-0.55685335,-0.1535941,9.789622,2,1683807369.9389303
-0.056233536,-0.017227964,0.98254,0.0010681152,-0.00093460083,-0.00093460083,-0.5563852,-0.1530209,9.789659,2,1683807369.97018
-0.056233536,-0.017227964,0.98254,-0.0010681152,0.0001335144,-0.00093460083,-0.5567088,-0.15323241,9.789637,2,1683807369.9858072
-0.057461936,-0.01674267,0.980341,-0.0010681152,-0.00093460083,-0.00093460083,-0.5567088,-0.15323241,9.789637,2,1683807370.001434
-0.0550203,-0.01771326,0.98254,0.0010681152,-0.0018692017,0.0001335144,-0.55667144,-0.15323769,9.7896385,2,1683807370.03268
-0.05671883,-0.018441202,0.98084146,0.0010681152,-0.0018692017,0.0001335144,-0.5563613,-0.15333971,9.789655,2,1683807370.0483055
-0.055262946,-0.017227964,0.9810841,0.0,0.0001335144,0.0001335144,-0.55690545,-0.15322097,9.789624,2,1683807370.0639303
-0.054777652,-0.015999563,0.97815716,0.0010681152,0.0001335144,0.0001335144,-0.55690545,-0.15322097,9.789624,2,1683807370.0795584
-0.055505592,-0.017955907,0.97961307,0.0010681152,0.0001335144,0.0001335144,-0.55690545,-0.15322097,9.789624,2,1683807370.09518
-0.055505592,-0.017955907,0.97961307,0.0010681152,0.0001335144,0.0001335144,-0.55649424,-0.15395437,9.789637,2,1683807370.1108048
-0.052821305,-0.013573089,0.9793704,0.0,-0.00093460083,0.0001335144,-0.5559335,-0.1535722,9.789676,2,1683807370.1264303
-0.055505592,-0.01674267,0.9798557,0.0010681152,0.0001335144,-0.00093460083,-0.5560346,-0.15381786,9.789666,2,1683807370.142058
-0.055262946,-0.016500022,0.9798557,0.0,0.0001335144,-0.00093460083,-0.55717,-0.15371083,9.789603,2,1683807370.1733055
-0.059645765,-0.016500022,0.98254,0.0,0.0001335144,-0.00093460083,-0.55717,-0.15371083,9.789603,2,1683807370.188933
-0.05671883,-0.016257375,0.980341,0.0,0.0001335144,0.0001335144,-0.5552266,-0.15437934,9.789702,2,1683807370.2045615
-0.05671883,-0.016257375,0.980341,0.0021362305,0.0001335144,0.0012016296,-0.5552266,-0.15437934,9.789702,2,1683807370.2358053
-0.056961477,-0.015999563,0.9805988,0.0,-0.00093460083,0.0001335144,-0.5552266,-0.15437934,9.789702,2,1683807370.2670553
-0.056233536,-0.012587334,0.98229736,0.0,0.0001335144,0.0001335144,-0.5558529,-0.153979,9.789674,2,1683807370.2826796
-0.05427719,-0.015514269,0.9810841,0.0,-0.0018692017,0.0001335144,-0.5560825,-0.15392986,9.78966,2,1683807370.298305
-0.055262946,-0.01674267,0.98084146,-0.0021362305,0.0012016296,0.0001335144,-0.55556625,-0.15408248,9.789688,2,1683807370.3139305
-0.055505592,-0.015271621,0.98229736,0.0,0.0001335144,0.0001335144,-0.55522513,-0.15406291,9.789707,2,1683807370.3295593
-0.055505592,-0.015271621,0.98229736,0.0,0.0012016296,0.0001335144,-0.55522513,-0.15406291,9.789707,2,1683807370.3451822
-0.053306602,-0.015028973,0.9798557,-0.0010681152,-0.00093460083,0.0001335144,-0.555038,-0.15403406,9.78972,2,1683807370.3764303
-0.054777652,-0.015514269,0.9793704,-0.0010681152,-0.00093460083,-0.00093460083,-0.55481553,-0.15401134,9.789732,2,1683807370.3920555
-0.054777652,-0.015514269,0.9793704,-0.0010681152,0.0001335144,-0.00093460083,-0.55481553,-0.15401134,9.789732,2,1683807370.4076812
-0.054777652,-0.015514269,0.9793704,-0.0010681152,0.0001335144,-0.00093460083,-0.5544673,-0.15458462,9.789742,2,1683807370.43893
-0.053791896,-0.017470613,0.9827826,0.0,0.0001335144,0.0012016296,-0.5543712,-0.15500022,9.7897415,2,1683807370.4545546
-0.053791896,-0.017470613,0.9827826,0.0010681152,0.0001335144,0.0001335144,-0.55428404,-0.15538025,9.78974,2,1683807370.47018
-0.056961477,-0.015028973,0.98132676,0.0010681152,0.0001335144,0.0001335144,-0.55428404,-0.15538025,9.78974,2,1683807370.47018
-0.054519836,-0.018941663,0.9788851,0.0010681152,0.0001335144,0.0001335144,-0.55457735,-0.1550559,9.789729,2,1683807370.4858081
-0.054519836,-0.018941663,0.9788851,0.0010681152,0.0001335144,0.0001335144,-0.5547189,-0.15519819,9.789719,2,1683807370.5014307
-0.05306395,-0.014786326,0.9837684,0.0010681152,0.0001335144,0.0001335144,-0.5545065,-0.1551285,9.789732,2,1683807370.5170553
-0.05671883,-0.0130726285,0.9832831,0.0,0.0001335144,0.0001335144,-0.5545065,-0.1551285,9.789732,2,1683807370.548305
-0.05671883,-0.0130726285,0.9832831,0.0,0.0001335144,-0.00093460083,-0.554641,-0.1547997,9.789729,2,1683807370.563932
-0.055262946,-0.015756916,0.9832831,0.0,0.0001335144,-0.00093460083,-0.554641,-0.1547997,9.789729,2,1683807370.579558
-0.054519836,-0.016257375,0.9810841,0.0,-0.00093460083,0.0012016296,-0.5542987,-0.1547854,9.789749,2,1683807370.6264334
-0.054519836,-0.015999563,0.97815716,0.0,0.0001335144,-0.00093460083,-0.55414027,-0.15460359,9.789761,2,1683807370.6420555
-0.054777652,-0.015028973,0.98132676,0.0,0.0001335144,0.0001335144,-0.5540795,-0.15465042,9.789763,2,1683807370.6576803
-0.059403118,-0.012829981,0.98254,0.0,0.0001335144,0.0001335144,-0.5540795,-0.15465042,9.789763,2,1683807370.673305
-0.059403118,-0.012829981,0.98254,0.0,0.0001335144,0.0001335144,-0.55412525,-0.15411998,9.78977,2,1683807370.7045555
-0.052821305,-0.016500022,0.9805988,0.0,0.0001335144,0.0001335144,-0.55412525,-0.15411998,9.78977,2,1683807370.7045555
-0.052821305,-0.016500022,0.9805988,0.0,-0.00093460083,0.0001335144,-0.55400115,-0.15428557,9.789773,2,1683807370.7201803
-0.054519836,-0.017955907,0.9820547,0.0,-0.00093460083,0.0001335144,-0.55400115,-0.15428557,9.789773,2,1683807370.7358043
-0.054519836,-0.017955907,0.9820547,0.0,-0.00093460083,0.0001335144,-0.55400956,-0.15440609,9.789771,2,1683807370.7670553
-0.05306395,-0.015514269,0.97815716,0.0010681152,0.0001335144,0.0001335144,-0.55400956,-0.15440609,9.789771,2,1683807370.7826798
-0.0550203,-0.016257375,0.98229736,0.0010681152,0.0001335144,0.0001335144,-0.5538608,-0.15423498,9.789783,2,1683807370.7983057
-0.0550203,-0.016257375,0.98229736,0.0010681152,0.0001335144,0.0001335144,-0.5538176,-0.1542547,9.789784,2,1683807370.8139305
-0.055262946,-0.015028973,0.9815694,0.0010681152,0.0001335144,0.0001335144,-0.553692,-0.15391856,9.789797,2,1683807370.8295557
-0.055262946,-0.015028973,0.9815694,-0.0010681152,-0.0018692017,0.0012016296,-0.553692,-0.15391856,9.789797,2,1683807370.8451846
-0.055262946,-0.015028973,0.9815694,0.0,-0.00093460083,0.0012016296,-0.553692,-0.15391856,9.789797,2,1683807370.8764305
-0.055262946,-0.015028973,0.9815694,-0.0010681152,0.0001335144,-0.00093460083,-0.5537731,-0.15401036,9.789791,2,1683807370.8920553
-0.055262946,-0.015028973,0.9815694,-0.0010681152,0.0001335144,-0.00093460083,-0.55425346,-0.15392333,9.789765,2,1683807370.907679
-0.057704587,-0.014543679,0.9810841,0.0,0.0001335144,0.0001335144,-0.55425346,-0.15392333,9.789765,2,1683807370.907679
-0.057704587,-0.014543679,0.9810841,0.0,0.0001335144,0.0001335144,-0.554246,-0.15396951,9.789764,2,1683807370.9233055
-0.057704587,-0.014543679,0.9810841,0.0,0.0001335144,0.0012016296,-0.5542893,-0.15435876,9.789757,2,1683807370.9389338
-0.053306602,-0.013815736,0.9805988,0.0,0.0001335144,0.0012016296,-0.5542893,-0.15435876,9.789757,2,1683807370.9545548
-0.053306602,-0.013815736,0.9805988,0.0,0.0001335144,0.0012016296,-0.55405813,-0.15373668,9.789779,2,1683807370.9701805
-0.053791896,-0.014058384,0.98084146,0.0,0.0001335144,0.0012016296,-0.55405813,-0.15373668,9.789779,2,1683807370.9858055
-0.053791896,-0.014058384,0.98084146,0.0010681152,-0.00093460083,-0.00093460083,-0.55405813,-0.15373668,9.789779,2,1683807371.0014305
-0.053791896,-0.014058384,0.98084146,-0.0021362305,0.0001335144,0.0001335144,-0.55405813,-0.15373668,9.789779,2,1683807371.0170603
-0.056233536,-0.015999563,0.9810841,-0.0010681152,-0.00093460083,-0.00093460083,-0.554483,-0.15343729,9.78976,2,1683807371.0326803
-0.054519836,-0.014786326,0.98352575,0.0,0.0001335144,0.0001335144,-0.554395,-0.15338254,9.789765,2,1683807371.0795557
-0.054519836,-0.014786326,0.98352575,0.0,0.0001335144,0.0001335144,-0.55488986,-0.15369636,9.789733,2,1683807371.0951872
-0.057704587,-0.014543679,0.9820547,-0.0010681152,0.0001335144,0.0012016296,-0.5549047,-0.15351836,9.789734,2,1683807371.1108055
-0.057704587,-0.014543679,0.9820547,-0.0010681152,0.0001335144,0.0012016296,-0.55515665,-0.15336718,9.789722,2,1683807371.1420557
-0.054777652,-0.015514269,0.980341,0.0,0.0001335144,0.0001335144,-0.55515665,-0.15336718,9.789722,2,1683807371.1420557
-0.055505592,-0.013573089,0.9798557,0.0,0.0001335144,-0.00093460083,-0.555198,-0.15337789,9.78972,2,1683807371.15768
-0.0550203,-0.012587334,0.98132676,0.0,0.0001335144,0.0001335144,-0.555198,-0.15337789,9.78972,2,1683807371.173305
-0.056233536,-0.0130726285,0.9820547,0.0010681152,0.0001335144,0.0001335144,-0.55498916,-0.15266591,9.789742,2,1683807371.2045557
-0.055990886,-0.016257375,0.98229736,-0.0010681152,0.0012016296,0.0012016296,-0.5550514,-0.15276656,9.789738,2,1683807371.2358057
-0.058432527,-0.013815736,0.97961307,0.0,-0.00093460083,0.0001335144,-0.5543805,-0.15313077,9.78977,2,1683807371.267055
-0.05671883,-0.014301031,0.9820547,0.0,0.0012016296,0.0001335144,-0.5543805,-0.15313077,9.78977,2,1683807371.28268
-0.057461936,-0.013573089,0.980341,0.0,0.0012016296,0.0001335144,-0.5547344,-0.15296282,9.789753,2,1683807371.2983053
-0.053306602,-0.015756916,0.98254,0.0,-0.00093460083,0.0001335144,-0.5544526,-0.15313876,9.789766,2,1683807371.3295555
-0.054777652,-0.01674267,0.980341,-0.0010681152,0.0001335144,0.0012016296,-0.5542203,-0.15375239,9.78977,2,1683807371.3451803
-0.055990886,-0.016985318,0.98084146,0.0,-0.00093460083,0.0001335144,-0.55414987,-0.15424451,9.789765,2,1683807371.360805
-0.05721929,-0.015999563,0.98132676,0.0,-0.00093460083,0.0001335144,-0.55414987,-0.15424451,9.789765,2,1683807371.37643
-0.054777652,-0.01674267,0.980341,0.0,-0.00093460083,0.0001335144,-0.5540192,-0.15467092,9.789766,2,1683807371.3920557
-0.05574824,-0.016500022,0.98304045,-0.0010681152,0.0012016296,0.0001335144,-0.55427045,-0.15469097,9.789752,2,1683807371.40768
-0.053306602,-0.015999563,0.980341,0.0,0.0001335144,0.0001335144,-0.5538881,-0.1552722,9.789763,2,1683807371.4233057
-0.05306395,-0.018198555,0.97912776,0.0010681152,0.0001335144,0.0001335144,-0.5541867,-0.15486062,9.789754,2,1683807371.438933
-0.05306395,-0.018198555,0.97912776,0.0010681152,-0.00093460083,0.0001335144,-0.5534618,-0.15459685,9.789799,2,1683807371.4701807
-0.056961477,-0.016257375,0.9815694,0.0010681152,0.0001335144,-0.00093460083,-0.55375427,-0.15424718,9.789788,2,1683807371.5014307
-0.056233536,-0.016500022,0.98009837,-0.0010681152,-0.00093460083,0.0001335144,-0.55364543,-0.1537067,9.789803,2,1683807371.5483055
-0.056233536,-0.016500022,0.98009837,0.0010681152,-0.00093460083,-0.00093460083,-0.55350137,-0.15409966,9.789804,2,1683807371.5795555
-0.053306602,-0.016257375,0.98132676,0.0,-0.00093460083,0.0001335144,-0.55350137,-0.15409966,9.789804,2,1683807371.5951807
-0.054034542,-0.015514269,0.980341,0.0,-0.00093460083,0.0001335144,-0.55350137,-0.15409966,9.789804,2,1683807371.6264307
-0.054034542,-0.015514269,0.980341,0.0,0.0012016296,-0.00093460083,-0.5541615,-0.15445758,9.789762,2,1683807371.6420562
-0.054034542,-0.015514269,0.980341,0.0,0.0012016296,-0.00093460083,-0.5534185,-0.15450521,9.7898035,2,1683807371.65768
-0.054519836,-0.016985318,0.9793704,0.0,0.0012016296,-0.00093460083,-0.5534185,-0.15450521,9.7898035,2,1683807371.65768
-0.055505592,-0.015756916,0.9820547,-0.0010681152,0.0001335144,0.0001335144,-0.55412155,-0.15455234,9.7897625,2,1683807371.6733057
-0.05671883,-0.012102039,0.9820547,-0.0010681152,0.0001335144,-0.00093460083,-0.5534443,-0.15428722,9.789805,2,1683807371.6889303
-0.059403118,-0.015028973,0.98229736,0.0,-0.00093460083,-0.002002716,-0.55435467,-0.15377341,9.789762,2,1683807371.7045555
-0.059403118,-0.015028973,0.98229736,0.0,-0.00093460083,-0.002002716,-0.55444145,-0.1530916,9.789768,2,1683807371.735805
-0.05671883,-0.015756916,0.9793704,0.0010681152,0.0001335144,0.0001335144,-0.55444145,-0.1530916,9.789768,2,1683807371.735805
-0.05574824,-0.014543679,0.98009837,0.0,0.0001335144,-0.00093460083,-0.55447084,-0.15317763,9.789764,2,1683807371.7670555
-0.05574824,-0.014543679,0.98009837,-0.0010681152,0.0001335144,-0.00093460083,-0.55447084,-0.15317763,9.789764,2,1683807371.7826798
-0.055262946,-0.014786326,0.9805988,0.0,-0.00093460083,0.0001335144,-0.5543587,-0.152971,9.789775,2,1683807371.8139303
-0.055262946,-0.014786326,0.9805988,0.0,-0.00093460083,0.0001335144,-0.55450815,-0.15288067,9.789767,2,1683807371.8295562
-0.054777652,-0.015999563,0.9788851,0.0,0.0001335144,0.0001335144,-0.55450815,-0.15288067,9.789767,2,1683807371.8295562
-0.05427719,-0.0130726285,0.98084146,0.0,0.0001335144,0.0001335144,-0.5544124,-0.15269205,9.789775,2,1683807371.8451807
-0.055262946,-0.013573089,0.98084146,0.0,0.0001335144,-0.00093460083,-0.5544124,-0.15269205,9.789775,2,1683807371.87643
-0.055262946,-0.013573089,0.98084146,0.0,0.0001335144,-0.00093460083,-0.55447406,-0.1525396,9.789775,2,1683807371.892056
-0.054519836,-0.018198555,0.98229736,0.0010681152,0.0001335144,0.0012016296,-0.5543674,-0.15267232,9.789779,2,1683807371.907681
-0.055262946,-0.018198555,0.98084146,-0.0010681152,-0.00093460083,0.0001335144,-0.554042,-0.15321906,9.789788,2,1683807371.954555
-0.055505592,-0.015999563,0.98181206,-0.0010681152,-0.00093460083,0.0001335144,-0.554042,-0.15321906,9.789788,2,1683807371.9858053
-0.05306395,-0.014058384,0.9832831,-0.0010681152,-0.00093460083,0.0001335144,-0.5536135,-0.15370609,9.789804,2,1683807372.0014305
-0.056233536,-0.011616744,0.9810841,-0.0010681152,0.0001335144,0.0001335144,-0.55352056,-0.1534604,9.789814,2,1683807372.0170555
-0.056233536,-0.011616744,0.9810841,-0.0010681152,0.0001335144,0.0001335144,-0.55347747,-0.1534481,9.789816,2,1683807372.0483048
-0.056233536,-0.011616744,0.9810841,-0.0010681152,0.0001335144,0.0001335144,-0.5534882,-0.15327355,9.789819,2,1683807372.0639298
-0.054519836,-0.017470613,0.9798557,-0.0010681152,0.0001335144,0.0001335144,-0.5534882,-0.15327355,9.789819,2,1683807372.0639298
-0.054519836,-0.015999563,0.97912776,0.0,-0.00093460083,-0.00093460083,-0.5534882,-0.15327355,9.789819,2,1683807372.0795548
-0.052821305,-0.015028973,0.9805988,0.0,0.0012016296,0.0001335144,-0.55309325,-0.15281546,9.789848,2,1683807372.0951807
-0.052821305,-0.015028973,0.9805988,0.0,0.0001335144,0.0001335144,-0.5528701,-0.15319534,9.789855,2,1683807372.1108055
-0.05671883,-0.013815736,0.9805988,0.0,0.0001335144,0.0001335144,-0.5531087,-0.15400566,9.789828,2,1683807372.1264303
-0.055505592,-0.017470613,0.98352575,0.0,0.0001335144,0.0012016296,-0.5531896,-0.15422611,9.789821,2,1683807372.1420546
-0.055262946,-0.0130726285,0.98009837,0.0,-0.00093460083,-0.00093460083,-0.55310076,-0.15425451,9.7898245,2,1683807372.1576796
-0.056233536,-0.015756916,0.980341,-0.0010681152,0.0001335144,-0.00093460083,-0.55330765,-0.15408567,9.789815,2,1683807372.1733053
-0.056233536,-0.015756916,0.980341,-0.0010681152,0.0001335144,-0.00093460083,-0.5531834,-0.15424894,9.789821,2,1683807372.2045555
-0.05233601,-0.015514269,0.9837684,-0.0010681152,-0.00093460083,0.0001335144,-0.5528712,-0.15430005,9.789837,2,1683807372.251433
-0.052821305,-0.015028973,0.9810841,-0.0010681152,-0.00093460083,0.0001335144,-0.5528712,-0.15430005,9.789837,2,1683807372.2670553
-0.057704587,-0.012344686,0.9820547,0.0010681152,0.0001335144,0.0001335144,-0.55337805,-0.15245774,9.789838,2,1683807372.2826803
-0.057704587,-0.012344686,0.9820547,0.0,0.0012016296,0.0001335144,-0.55337805,-0.15245774,9.789838,2,1683807372.3139305
-0.053791896,-0.013815736,0.98084146,-0.0010681152,0.0012016296,0.0001335144,-0.55377567,-0.15238665,9.789816,2,1683807372.3295548
-0.052821305,-0.015271621,0.98352575,-0.0010681152,-0.00093460083,0.0001335144,-0.5536928,-0.1525025,9.789819,2,1683807372.37643
-0.05891782,-0.01674267,0.9815694,-0.0010681152,0.0001335144,-0.002002716,-0.5538362,-0.15226771,9.789815,2,1683807372.3920557
-0.057947233,-0.014543679,0.9820547,0.0,0.0001335144,0.0001335144,-0.5538362,-0.15226771,9.789815,2,1683807372.4076807
-0.057947233,-0.014543679,0.9820547,-0.0010681152,-0.00093460083,0.0001335144,-0.5538362,-0.15226771,9.789815,2,1683807372.4233048
-0.054519836,-0.015999563,0.98254,0.0,-0.0018692017,0.0012016296,-0.55328435,-0.15223648,9.789846,2,1683807372.43893
-0.055990886,-0.014786326,0.9832831,-0.0010681152,0.0001335144,0.0001335144,-0.55313504,-0.15191923,9.78986,2,1683807372.47018
-0.055990886,-0.014786326,0.9832831,-0.0010681152,0.0001335144,0.0001335144,-0.5532638,-0.15195745,9.789851,2,1683807372.517055
-0.055990886,-0.014786326,0.9832831,-0.0010681152,0.0001335144,0.0001335144,-0.5532558,-0.1521229,9.78985,2,1683807372.5326798
-0.0550203,-0.017227964,0.9774141,-0.0010681152,0.0001335144,0.0001335144,-0.5532558,-0.1521229,9.78985,2,1683807372.548305
-0.056961477,-0.014058384,0.9815694,0.0,0.0012016296,0.0012016296,-0.55319697,-0.15216468,9.789852,2,1683807372.5639312
-0.056961477,-0.014058384,0.9815694,0.0,0.0001335144,0.0012016296,-0.55319697,-0.15216468,9.789852,2,1683807372.579555
-0.055505592,-0.017227964,0.9805988,0.0,0.0001335144,0.0012016296,-0.55319697,-0.15216468,9.789852,2,1683807372.59518
-0.054034542,-0.01674267,0.98181206,0.0,-0.00093460083,0.0001335144,-0.5531299,-0.15249121,9.78985,2,1683807372.6108053
-0.052821305,-0.01113145,0.98181206,0.0,-0.00093460083,0.0001335144,-0.5531299,-0.15249121,9.78985,2,1683807372.62643
-0.052821305,-0.01113145,0.98181206,0.0010681152,0.0001335144,0.0001335144,-0.5532689,-0.15167663,9.789855,2,1683807372.6576803
-0.052821305,-0.01113145,0.98181206,0.0,0.0001335144,0.0001335144,-0.55319566,-0.1517156,9.78986,2,1683807372.6889303
-0.056961477,-0.012344686,0.9827826,0.0,0.0001335144,0.0001335144,-0.55319566,-0.1517156,9.78986,2,1683807372.6889303
-0.056961477,-0.012344686,0.9827826,-0.0010681152,0.0001335144,0.0001335144,-0.55368775,-0.15117514,9.78984,2,1683807372.704555
-0.05891782,-0.0130726285,0.98132676,-0.0010681152,0.0001335144,0.0001335144,-0.55368775,-0.15117514,9.78984,2,1683807372.7201805
-0.05891782,-0.0130726285,0.98132676,-0.0010681152,-0.00093460083,0.0001335144,-0.5540879,-0.15131328,9.789815,2,1683807372.7358084
-0.05891782,-0.0130726285,0.98132676,-0.0010681152,-0.00093460083,0.0001335144,-0.5541967,-0.15130796,9.789808,2,1683807372.7514305
-0.057461936,-0.014543679,0.98304045,-0.0010681152,-0.00093460083,0.0001335144,-0.5541967,-0.15130796,9.789808,2,1683807372.7514305
-0.053791896,-0.014543679,0.980341,-0.0010681152,0.0001335144,0.0012016296,-0.554866,-0.15133475,9.78977,2,1683807372.7670548
-0.0550203,-0.01674267,0.98084146,-0.0010681152,0.0001335144,0.0012016296,-0.554866,-0.15133475,9.78977,2,1683807372.7826805
-0.0550203,-0.01674267,0.98084146,0.0,-0.00093460083,0.0001335144,-0.554866,-0.15133475,9.78977,2,1683807372.800537
-0.0550203,-0.01674267,0.98084146,0.0,-0.00093460083,0.0012016296,-0.5545228,-0.15118305,9.789792,2,1683807372.8317864
-0.0550203,-0.01674267,0.98084146,0.0,-0.00093460083,0.0012016296,-0.5544981,-0.15146694,9.789789,2,1683807372.8474107
-0.053306602,-0.015028973,0.9798557,0.0,0.0001335144,0.0001335144,-0.5544116,-0.1520873,9.789784,2,1683807372.863036
-0.053306602,-0.015028973,0.9798557,0.0,0.0001335144,-0.00093460083,-0.5544116,-0.1520873,9.789784,2,1683807372.8786619
-0.055262946,-0.018699015,0.98009837,0.0,0.0001335144,-0.00093460083,-0.5544116,-0.1520873,9.789784,2,1683807372.9099119
-0.055262946,-0.018699015,0.98009837,0.0,0.0001335144,-0.00093460083,-0.5543498,-0.15225033,9.789786,2,1683807372.9411616
-0.055505592,-0.015028973,0.9842537,0.0,0.0001335144,-0.00093460083,-0.5543498,-0.15225033,9.789786,2,1683807372.9567866
-0.053306602,-0.015028973,0.9783998,0.0,-0.00093460083,-0.00093460083,-0.5548796,-0.15223664,9.789757,2,1683807372.972412
-0.05574824,-0.012587334,0.98181206,0.0,-0.00093460083,-0.00093460083,-0.55460113,-0.1518044,9.789779,2,1683807372.9880362
-0.053306602,-0.015028973,0.9815694,0.0,-0.00093460083,-0.00093460083,-0.55460113,-0.1518044,9.789779,2,1683807373.0036616
-0.051592905,-0.013573089,0.9788851,0.0010681152,-0.00093460083,0.0001335144,-0.55460113,-0.1518044,9.789779,2,1683807373.0192854
-0.051592905,-0.013573089,0.9788851,0.0010681152,-0.00093460083,0.0001335144,-0.55425674,-0.15174536,9.7898,2,1683807373.034912
-0.05721929,-0.019426957,0.98132676,0.0,0.0001335144,0.0001335144,-0.5544033,-0.15209286,9.789785,2,1683807373.0661614
-0.056233536,-0.01771326,0.9783998,0.0,0.0001335144,0.0001335144,-0.5543224,-0.15193678,9.789791,2,1683807373.1130347
-0.056233536,-0.01771326,0.9783998,0.0,0.0001335144,-0.00093460083,-0.5543224,-0.15193678,9.789791,2,1683807373.1286647
-0.056233536,-0.01771326,0.9783998,0.0010681152,0.0001335144,-0.00093460083,-0.55429846,-0.15209271,9.789791,2,1683807373.1442862
-0.054034542,-0.015271621,0.98181206,0.0,0.0001335144,-0.00093460083,-0.5541732,-0.15223587,9.789796,2,1683807373.1755362
-0.054519836,-0.016985318,0.9798557,0.0,-0.00093460083,0.0001335144,-0.5541585,-0.15236796,9.789795,2,1683807373.1911612
-0.05721929,-0.012344686,0.980341,0.0010681152,0.0001335144,0.0001335144,-0.55464584,-0.15213414,9.789771,2,1683807373.2067883
-0.05721929,-0.012344686,0.980341,0.0,-0.00093460083,0.0001335144,-0.55464584,-0.15213414,9.789771,2,1683807373.222411
-0.057461936,-0.018441202,0.98009837,0.0,0.0001335144,0.0001335144,-0.5548796,-0.15204854,9.789759,2,1683807373.238036
-0.057461936,-0.018441202,0.98009837,0.0,0.0001335144,0.0001335144,-0.55474675,-0.15188447,9.789769,2,1683807373.2537484
-0.05721929,-0.014543679,0.98132676,0.0,0.0001335144,-0.00093460083,-0.55474675,-0.15188447,9.789769,2,1683807373.2537484
-0.05721929,-0.014543679,0.98132676,0.0,-0.00093460083,0.0001335144,-0.55474675,-0.15188447,9.789769,2,1683807373.2774382
-0.055505592,-0.014301031,0.98181206,0.0,-0.00093460083,0.0001335144,-0.55474675,-0.15188447,9.789769,2,1683807373.2774382
-0.055505592,-0.014301031,0.98181206,0.0,-0.00093460083,0.0001335144,-0.5547347,-0.15216936,9.789764,2,1683807373.293068
-0.055262946,-0.016985318,0.9810841,0.0010681152,0.0012016296,-0.00093460083,-0.55448353,-0.15232682,9.789777,2,1683807373.308689
-0.057704587,-0.014301031,0.97864246,0.0010681152,0.0012016296,-0.00093460083,-0.55448353,-0.15232682,9.789777,2,1683807373.3243127
-0.053306602,-0.01674267,0.9820547,0.0010681152,0.0012016296,-0.00093460083,-0.5544618,-0.15232949,9.789779,2,1683807373.33994
-0.053306602,-0.01674267,0.9820547,0.0,-0.00093460083,0.0001335144,-0.5544618,-0.15232949,9.789779,2,1683807373.355565
-0.0550203,-0.014058384,0.980341,0.0,-0.00093460083,0.0001335144,-0.55422765,-0.15274924,9.789785,2,1683807373.3711872
-0.055262946,-0.014058384,0.9854669,0.0010681152,0.0012016296,-0.00093460083,-0.55467665,-0.15314674,9.789754,2,1683807373.3868186
-0.054777652,-0.013573089,0.98181206,0.0,0.0001335144,0.0001335144,-0.5546248,-0.15261343,9.789764,2,1683807373.4024386
-0.05427719,-0.015756916,0.980341,0.0010681152,0.0001335144,0.0012016296,-0.5545382,-0.15272656,9.789768,2,1683807373.4336874
-0.057704587,-0.015514269,0.9788851,0.0010681152,0.0001335144,0.0012016296,-0.5545382,-0.15272656,9.789768,2,1683807373.4649384
-0.057704587,-0.015514269,0.9788851,0.0,-0.00093460083,0.0001335144,-0.55427593,-0.15277745,9.789782,2,1683807373.480563
-0.054777652,-0.014543679,0.9793704,0.0,-0.00093460083,0.0001335144,-0.55427593,-0.15277745,9.789782,2,1683807373.4961884
-0.058432527,-0.014543679,0.98084146,0.0,0.0012016296,0.0001335144,-0.5546,-0.15268996,9.789764,2,1683807373.5118134
-0.05574824,-0.013315276,0.98304045,0.0010681152,0.0012016296,0.0001335144,-0.5546665,-0.15246826,9.789764,2,1683807373.5274386
-0.05818988,-0.017470613,0.98304045,0.0,-0.0008010864,0.0001335144,-0.55493903,-0.15274975,9.789745,2,1683807373.543066
-0.056233536,-0.015514269,0.97961307,0.0010681152,-0.0008010864,-0.00093460083,-0.5548858,-0.15336917,9.789738,2,1683807373.5586889
-0.056233536,-0.018441202,0.98254,0.0010681152,-0.0008010864,-0.00093460083,-0.5548858,-0.15336917,9.789738,2,1683807373.574313
-0.05721929,-0.014786326,0.9837684,-0.0010681152,0.0002670288,0.0001335144,-0.55504423,-0.15336625,9.789728,2,1683807373.5899377
-0.0550203,-0.018198555,0.98254,-0.0010681152,0.0002670288,0.0001335144,-0.55486256,-0.15369642,9.789734,2,1683807373.6055622
-0.05354925,-0.016257375,0.98229736,0.0010681152,-0.0008010864,0.0001335144,-0.55486256,-0.15369642,9.789734,2,1683807373.6211877
-0.05354925,-0.016257375,0.98229736,0.0010681152,-0.0008010864,0.0001335144,-0.55478173,-0.15389645,9.789736,2,1683807373.6368122
-0.055262946,-0.015271621,0.9793704,0.0010681152,-0.0008010864,0.0001335144,-0.55478173,-0.15389645,9.789736,2,1683807373.6524377
-0.055262946,-0.015271621,0.9793704,0.0,-0.0008010864,0.0001335144,-0.5548962,-0.15413256,9.789725,2,1683807373.6680634
-0.054777652,-0.015028973,0.98304045,-0.0010681152,0.0002670288,0.0001335144,-0.5548082,-0.15432282,9.789727,2,1683807373.683689
-0.05574824,-0.017227964,0.98229736,0.0,-0.0008010864,-0.00093460083,-0.5566002,-0.15447102,9.789623,2,1683807373.6993136
-0.054777652,-0.014786326,0.9827826,0.0,-0.0008010864,-0.00093460083,-0.5564575,-0.15444869,9.789632,2,1683807373.7149386
-0.054777652,-0.014786326,0.9827826,0.0,0.0002670288,0.0001335144,-0.5564575,-0.15444869,9.789632,2,1683807373.7305632
-0.054034542,-0.015999563,0.9793704,-0.0010681152,-0.0008010864,0.0001335144,-0.5565735,-0.15484749,9.789619,2,1683807373.7461913
-0.05427719,-0.018941663,0.9810841,0.0,-0.0008010864,0.0001335144,-0.5562445,-0.15492685,9.789637,2,1683807373.7618132
-0.05427719,-0.014786326,0.98181206,0.0,0.0002670288,0.0001335144,-0.5563842,-0.1551355,9.789624,2,1683807373.8086877
-0.055990886,-0.013573089,0.97864246,0.0,0.0002670288,-0.00093460083,-0.5563842,-0.1551355,9.789624,2,1683807373.8243132
-0.055990886,-0.013573089,0.97864246,0.0,0.0002670288,-0.00093460083,-0.5562176,-0.15473638,9.789641,2,1683807373.839942
-0.053791896,-0.017470613,0.9810841,0.0010681152,-0.0008010864,0.0001335144,-0.5562176,-0.15473638,9.789641,2,1683807373.8555648
-0.053791896,-0.017470613,0.9810841,0.0,0.0002670288,0.0001335144,-0.5561776,-0.15471326,9.789642,2,1683807373.8711884
-0.05306395,-0.0130726285,0.98132676,0.0010681152,0.0002670288,0.0001335144,-0.5561507,-0.15447792,9.789648,2,1683807373.886813
-0.056233536,-0.01674267,0.9783998,-0.0010681152,0.0002670288,-0.00093460083,-0.55622107,-0.15548822,9.789629,2,1683807373.9024382
-0.05721929,-0.014301031,0.9793704,0.0010681152,0.0002670288,-0.00093460083,-0.556291,-0.15527245,9.789628,2,1683807373.9336882
-0.05574824,-0.017470613,0.9810841,0.0010681152,0.0002670288,0.0012016296,-0.5562377,-0.15558894,9.789626,2,1683807373.9493124
-0.05574824,-0.017470613,0.9810841,0.0010681152,0.0002670288,0.0012016296,-0.55598503,-0.15538299,9.789643,2,1683807373.9649384
-0.05574824,-0.017470613,0.9810841,-0.0021362305,0.0002670288,0.0001335144,-0.5562487,-0.15487991,9.789637,2,1683807373.9805615
-0.05427719,-0.012587334,0.9798557,-0.0021362305,0.0002670288,0.0001335144,-0.5562796,-0.15448397,9.78964,2,1683807373.996189
-0.0550203,-0.014301031,0.98254,0.0010681152,-0.0008010864,-0.00093460083,-0.5561753,-0.15433325,9.78965,2,1683807374.0118132
-0.05818988,-0.018441202,0.98229736,0.0,0.001335144,0.0001335144,-0.55655414,-0.15420987,9.789631,2,1683807374.0274384
-0.05721929,-0.015028973,0.98009837,0.0,0.0002670288,-0.00093460083,-0.5566445,-0.1539836,9.789628,2,1683807374.0430634
-0.05721929,-0.015028973,0.98009837,-0.0010681152,-0.0008010864,-0.00093460083,-0.5567265,-0.15399326,9.789623,2,1683807374.058688
-0.053306602,-0.018441202,0.97961307,0.0,-0.0008010864,0.0001335144,-0.5566886,-0.15398295,9.789626,2,1683807374.0899372
-0.053306602,-0.018441202,0.97961307,-0.0021362305,0.001335144,-0.00093460083,-0.5566886,-0.15398295,9.789626,2,1683807374.105563
-0.053306602,-0.018441202,0.97961307,-0.0021362305,0.001335144,-0.00093460083,-0.5569701,-0.15416022,9.789607,2,1683807374.1211877
-0.05818988,-0.016257375,0.9776567,-0.0021362305,0.001335144,-0.00093460083,-0.5569701,-0.15416022,9.789607,2,1683807374.1211877
-0.05818988,-0.016257375,0.9776567,0.0010681152,0.0002670288,-0.00093460083,-0.5571414,-0.15412584,9.7895975,2,1683807374.1368139
-0.05671883,-0.012587334,0.97961307,0.0010681152,0.0002670288,-0.00093460083,-0.5571414,-0.15412584,9.7895975,2,1683807374.1368139
-0.055505592,-0.01771326,0.9798557,-0.0010681152,-0.0017356873,-0.00093460083,-0.5570401,-0.15431954,9.7896,2,1683807374.152438
-0.055505592,-0.01771326,0.9798557,0.0,-0.0008010864,0.0001335144,-0.5570401,-0.15431954,9.7896,2,1683807374.1680627
-0.055990886,-0.01674267,0.98254,0.0,0.0002670288,0.0001335144,-0.5570401,-0.15431954,9.7896,2,1683807374.1836877
-0.055990886,-0.01674267,0.98254,0.0,0.0002670288,0.0001335144,-0.55706257,-0.15442166,9.789598,2,1683807374.199313
-0.055262946,-0.011616744,0.98132676,0.0010681152,0.0002670288,0.0012016296,-0.5572256,-0.15394534,9.789596,2,1683807374.214938
-0.055262946,-0.011616744,0.98132676,0.0,-0.0008010864,0.0012016296,-0.55727667,-0.1537027,9.789597,2,1683807374.2461877
-0.056961477,-0.012587334,0.98254,0.0,-0.0008010864,0.0012016296,-0.55727667,-0.1537027,9.789597,2,1683807374.2461877
-0.056233536,-0.017955907,0.98084146,0.0,0.0002670288,0.0001335144,-0.5573649,-0.15326579,9.789599,2,1683807374.2618134
-0.054519836,-0.01674267,0.9815694,-0.0010681152,0.0002670288,0.0012016296,-0.55774486,-0.15328817,9.789577,2,1683807374.2774367
-0.055990886,-0.015999563,0.9820547,-0.0010681152,0.0002670288,0.0012016296,-0.55774486,-0.15328817,9.789577,2,1683807374.293064
-0.055990886,-0.015999563,0.9820547,-0.0010681152,0.0002670288,0.0012016296,-0.55679524,-0.1545141,9.789611,2,1683807374.3086863
-0.055262946,-0.018941663,0.98009837,0.0,-0.0008010864,0.0001335144,-0.55679524,-0.1545141,9.789611,2,1683807374.3086863
-0.05427719,-0.014786326,0.9783998,0.0,-0.0008010864,0.0001335144,-0.5566786,-0.15464027,9.789626,2,1683807374.3399363
-0.05427719,-0.014786326,0.9783998,0.0,0.0002670288,0.0001335144,-0.5566786,-0.15464027,9.789626,2,1683807374.3555632
-0.05354925,-0.016257375,0.9820547,0.0010681152,0.0002670288,-0.00093460083,-0.55650324,-0.15465097,9.789626,2,1683807374.371188
-0.057947233,-0.013573089,0.9805988,0.0010681152,0.0002670288,0.0001335144,-0.5567342,-0.15413615,9.78962,2,1683807374.3868115
-0.057947233,-0.013573089,0.9805988,-0.0010681152,-0.0008010864,0.0001335144,-0.55532634,-0.15465125,9.789693,2,1683807374.4024384
-0.05891782,-0.015999563,0.980341,-0.0010681152,-0.0008010864,0.0001335144,-0.55532634,-0.15465125,9.789693,2,1683807374.4024384
-0.05891782,-0.015999563,0.980341,-0.0010681152,0.001335144,0.0001335144,-0.55532634,-0.15465125,9.789693,2,1683807374.4336872
-0.05671883,-0.016985318,0.98084146,-0.0010681152,0.001335144,0.0001335144,-0.55532634,-0.15465125,9.789693,2,1683807374.4336872
-0.05671883,-0.016985318,0.98084146,-0.0010681152,0.001335144,0.0001335144,-0.55548376,-0.154825,9.789681,2,1683807374.4493132
-0.054777652,-0.012102039,0.9810841,-0.0010681152,0.0002670288,0.0001335144,-0.5556405,-0.15458953,9.789677,2,1683807374.4649377
-0.056233536,-0.015271621,0.980341,0.0010681152,0.0002670288,0.0012016296,-0.5560744,-0.1543462,9.789655,2,1683807374.4805624
-0.054034542,-0.018941663,0.98229736,0.0,0.001335144,-0.00093460083,-0.5560744,-0.1543462,9.789655,2,1683807374.4961874
-0.054777652,-0.017955907,0.9810841,0.0010681152,0.0002670288,0.0001335144,-0.5560039,-0.15472242,9.789653,2,1683807374.5118136
-0.054777652,-0.017955907,0.9810841,0.0010681152,0.0002670288,0.0001335144,-0.55569416,-0.15439002,9.789676,2,1683807374.5274377
-0.054519836,-0.014301031,0.9776567,0.0021362305,0.0002670288,0.0001335144,-0.5556194,-0.1541564,9.789683,2,1683807374.5431745
-0.05721929,-0.014301031,0.9810841,0.0021362305,0.0002670288,0.0001335144,-0.5557103,-0.1540072,9.7896805,2,1683807374.5744328
-0.05721929,-0.014301031,0.9810841,0.0021362305,0.0002670288,0.0001335144,-0.5553839,-0.15430772,9.789695,2,1683807374.5900574
-0.05427719,-0.012829981,0.9805988,-0.0010681152,-0.0008010864,-0.00093460083,-0.5554971,-0.15405084,9.789693,2,1683807374.6056828
-0.05427719,-0.012829981,0.9805988,0.0,-0.0008010864,-0.00093460083,-0.55534464,-0.15380691,9.789705,2,1683807374.6213076
-0.053791896,-0.014301031,0.9783998,-0.0021362305,-0.0008010864,0.0012016296,-0.5550772,-0.15373705,9.7897215,2,1683807374.6369326
-0.05427719,-0.017470613,0.98132676,0.0,-0.0008010864,0.0001335144,-0.55492496,-0.15377311,9.789729,2,1683807374.6525576
-0.05427719,-0.017470613,0.98132676,0.0,-0.0008010864,0.0001335144,-0.55477756,-0.15394247,9.789735,2,1683807374.6681838
-0.055262946,-0.015999563,0.9815694,0.0010681152,0.0002670288,0.0001335144,-0.55436534,-0.1540175,9.789758,2,1683807374.6994336
-0.054777652,-0.017227964,0.9798557,0.0,0.0002670288,0.0012016296,-0.5543147,-0.1541597,9.789758,2,1683807374.7150576
-0.05574824,-0.014543679,0.9810841,-0.0010681152,0.0002670288,-0.00093460083,-0.55465084,-0.15383962,9.789743,2,1683807374.7306826
-0.05818988,-0.016500022,0.980341,-0.0010681152,0.0002670288,-0.00093460083,-0.55465084,-0.15383962,9.789743,2,1683807374.7463086
-0.05818988,-0.016500022,0.980341,0.0,-0.0008010864,0.0001335144,-0.5544776,-0.15363507,9.789757,2,1683807374.7619333
-0.055505592,-0.016257375,0.9798557,0.0,-0.0008010864,0.0001335144,-0.5544776,-0.15363507,9.789757,2,1683807374.777558
-0.055505592,-0.016257375,0.9798557,-0.0010681152,0.0002670288,0.0001335144,-0.554391,-0.1535692,9.7897625,2,1683807374.7931833
-0.053306602,-0.016985318,0.9820547,-0.0010681152,0.0002670288,0.0001335144,-0.554391,-0.1535692,9.7897625,2,1683807374.7931833
-0.053306602,-0.016985318,0.9820547,0.0010681152,0.0002670288,0.0012016296,-0.5544944,-0.15365103,9.789756,2,1683807374.8088078
-0.0550203,-0.0130726285,0.980341,0.0021362305,0.001335144,0.0001335144,-0.55466586,-0.15294155,9.789757,2,1683807374.8244343
-0.057704587,-0.013315276,0.97912776,0.0010681152,-0.0008010864,0.0012016296,-0.5548152,-0.15272054,9.789752,2,1683807374.8400583
-0.057704587,-0.013315276,0.97912776,0.0,-0.0008010864,0.0001335144,-0.5548152,-0.15272054,9.789752,2,1683807374.855683
-0.054034542,-0.016985318,0.97912776,0.0,-0.0008010864,0.0001335144,-0.5546661,-0.15253316,9.7897625,2,1683807374.8713076
-0.054034542,-0.016985318,0.97912776,0.0,-0.0008010864,0.0001335144,-0.5545648,-0.15223902,9.789774,2,1683807374.8869321
-0.05721929,-0.013815736,0.98229736,0.0,-0.0008010864,0.0001335144,-0.5545648,-0.15223902,9.789774,2,1683807374.9025571
-0.05721929,-0.013815736,0.98229736,0.0,0.001335144,0.0001335144,-0.5548029,-0.15196556,9.789763,2,1683807374.9181828
-0.057947233,-0.015271621,0.98009837,0.0,0.001335144,0.0001335144,-0.5550691,-0.15196864,9.789749,2,1683807374.9338086
-0.05721929,-0.018441202,0.97961307,0.0,0.001335144,0.0001335144,-0.5550691,-0.15196864,9.789749,2,1683807374.9494333
-0.05721929,-0.018441202,0.97961307,0.0,-0.0008010864,0.0001335144,-0.5541649,-0.15252072,9.789793,2,1683807374.9650571
-0.056233536,-0.016985318,0.97864246,0.0,-0.0008010864,0.0001335144,-0.5541649,-0.15252072,9.789793,2,1683807374.9650571
-0.056233536,-0.016985318,0.97864246,0.0,0.0002670288,-0.00093460083,-0.5549312,-0.15220945,9.789754,2,1683807374.9806828
-0.056961477,-0.015756916,0.98401105,0.0,0.0002670288,0.0001335144,-0.5541253,-0.15263847,9.789792,2,1683807374.9963105
-0.056961477,-0.014786326,0.97961307,0.0,0.0002670288,0.0001335144,-0.5541253,-0.15263847,9.789792,2,1683807375.0119326
-0.056961477,-0.014786326,0.97961307,0.0,0.0002670288,0.0001335144,-0.55511516,-0.15291348,9.789733,2,1683807375.043183
-0.057461936,-0.015271621,0.9820547,-0.0010681152,0.0002670288,-0.00093460083,-0.55511516,-0.15291348,9.789733,2,1683807375.043183
-0.057461936,-0.015271621,0.9820547,-0.0010681152,0.0002670288,-0.00093460083,-0.55508286,-0.15295786,9.789734,2,1683807375.058808
-0.05574824,-0.015271621,0.98229736,-0.0010681152,-0.0008010864,0.0001335144,-0.55508286,-0.15295786,9.789734,2,1683807375.074434
-0.05818988,-0.017227964,0.9815694,0.0010681152,0.0002670288,-0.00093460083,-0.55508286,-0.15295786,9.789734,2,1683807375.105683
-0.05818988,-0.017227964,0.9815694,0.0010681152,0.0002670288,0.0012016296,-0.55508286,-0.15295786,9.789734,2,1683807375.1213074
-0.05354925,-0.013815736,0.980341,0.0010681152,0.0002670288,0.0012016296,-0.5551804,-0.15251718,9.789735,2,1683807375.136935
-0.055505592,-0.015514269,0.98229736,0.0010681152,0.0002670288,0.0012016296,-0.55522805,-0.1525294,9.789732,2,1683807375.168183
-0.055505592,-0.015514269,0.98229736,-0.0010681152,0.0002670288,-0.00093460083,-0.5550825,-0.15238076,9.789742,2,1683807375.1838088
-0.054519836,-0.016985318,0.9810841,0.0,0.0002670288,0.0001335144,-0.5550825,-0.15238076,9.789742,2,1683807375.1994326
-0.056961477,-0.016500022,0.98181206,0.0,0.0002670288,0.0001335144,-0.5550825,-0.15238076,9.789742,2,1683807375.230681
-0.056961477,-0.016500022,0.98181206,0.0,0.0002670288,0.0001335144,-0.55500615,-0.15279344,9.78974,2,1683807375.2463083
-0.054777652,-0.016985318,0.980341,-0.0010681152,-0.0008010864,-0.00093460083,-0.55500615,-0.15279344,9.78974,2,1683807375.2463083
-0.05721929,-0.016985318,0.98084146,-0.0010681152,0.0002670288,0.0012016296,-0.5552197,-0.15258394,9.789731,2,1683807375.2619338
-0.05721929,-0.016985318,0.98084146,-0.0010681152,0.0002670288,0.0012016296,-0.55501974,-0.15281735,9.78974,2,1683807375.3088078
-0.055505592,-0.0130726285,0.980341,-0.0010681152,0.0002670288,0.0001335144,-0.55547476,-0.15274224,9.789714,2,1683807375.3244328
-0.055505592,-0.0130726285,0.980341,0.0010681152,0.0002670288,0.0001335144,-0.5554855,-0.15238464,9.78972,2,1683807375.340058
-0.053791896,-0.018941663,0.98009837,0.0,0.0002670288,0.0001335144,-0.55539936,-0.15286034,9.789717,2,1683807375.3556828
-0.057947233,-0.014786326,0.97961307,0.0,0.0002670288,0.0001335144,-0.55539936,-0.15286034,9.789717,2,1683807375.3713074
-0.055262946,-0.015028973,0.9820547,0.0,-0.0008010864,0.0001335144,-0.5554837,-0.15310194,9.789708,2,1683807375.3869364
-0.049409077,-0.017227964,0.9820547,0.0,-0.0008010864,0.0001335144,-0.5554837,-0.15310194,9.789708,2,1683807375.4338071
-0.049409077,-0.017227964,0.9820547,0.0,0.0002670288,0.0012016296,-0.5554837,-0.15310194,9.789708,2,1683807375.449433
-0.05721929,-0.015756916,0.9805988,-0.0010681152,0.001335144,0.0012016296,-0.5561937,-0.15422475,9.78965,2,1683807375.4650586
-0.05671883,-0.016985318,0.98009837,0.0,-0.0008010864,-0.00093460083,-0.5561937,-0.15422475,9.78965,2,1683807375.4806821
-0.05306395,-0.014543679,0.9805988,0.0,-0.0008010864,0.0012016296,-0.5563011,-0.15418936,9.789644,2,1683807375.4963078
-0.05306395,-0.016500022,0.9832831,-0.0010681152,0.0002670288,0.0001335144,-0.5559393,-0.15433608,9.789663,2,1683807375.5119324
-0.05306395,-0.016500022,0.9832831,-0.0010681152,0.0002670288,0.0001335144,-0.55569655,-0.15428431,9.789677,2,1683807375.5275578
-0.054034542,-0.014786326,0.98132676,0.0,0.0002670288,-0.00093460083,-0.55569655,-0.15428431,9.789677,2,1683807375.543183
-0.054034542,-0.014786326,0.98132676,0.0010681152,0.0002670288,0.0001335144,-0.5557822,-0.15426296,9.789673,2,1683807375.574431
-0.056961477,-0.014058384,0.98181206,0.0,0.0002670288,-0.00093460083,-0.5553612,-0.15371314,9.789705,2,1683807375.590058
-0.056961477,-0.014058384,0.98181206,0.0010681152,-0.0008010864,-0.00093460083,-0.5553612,-0.15371314,9.789705,2,1683807375.6056824
-0.057461936,-0.013815736,0.97815716,0.0010681152,-0.0008010864,-0.00093460083,-0.5556768,-0.15363711,9.789689,2,1683807375.6213074
-0.057461936,-0.013815736,0.97815716,0.0010681152,-0.0008010864,-0.00093460083,-0.5554268,-0.15378259,9.7897005,2,1683807375.6369328
-0.057461936,-0.013815736,0.97815716,0.0010681152,-0.0008010864,0.0012016296,-0.5554268,-0.15378259,9.7897005,2,1683807375.6369328
-0.054519836,-0.014543679,0.98132676,-0.0010681152,0.0002670288,0.0012016296,-0.5557132,-0.15360922,9.789686,2,1683807375.652558
-0.05233601,-0.014058384,0.98304045,0.0,0.0002670288,-0.00093460083,-0.55579376,-0.15359205,9.789683,2,1683807375.6994328
-0.05233601,-0.014058384,0.98304045,0.0,0.0002670288,-0.00093460083,-0.5555619,-0.15347984,9.789698,2,1683807375.7306848
-0.05354925,-0.018941663,0.980341,-0.0010681152,-0.0008010864,0.0012016296,-0.55555844,-0.1534806,9.789699,2,1683807375.7463078
-0.056233536,-0.017227964,0.9820547,0.0010681152,0.0002670288,0.0001335144,-0.5552831,-0.15365641,9.78971,2,1683807375.7619336
-0.056233536,-0.015271621,0.9815694,0.0,0.0002670288,-0.00093460083,-0.55496716,-0.15392879,9.789724,2,1683807375.7775617
-0.056233536,-0.015271621,0.9815694,0.0010681152,0.0002670288,-0.00093460083,-0.5548839,-0.15379539,9.789731,2,1683807375.7931852
-0.056233536,-0.0130726285,0.9820547,0.0,0.0002670288,-0.00093460083,-0.5548441,-0.15382135,9.789734,2,1683807375.8089142
-0.055262946,-0.015271621,0.9805988,0.0,0.001335144,0.0001335144,-0.5552985,-0.15329309,9.789716,2,1683807375.840114
-0.056233536,-0.012102039,0.98229736,0.0,0.001335144,0.0001335144,-0.5555317,-0.15316728,9.789704,2,1683807375.8713639
-0.056961477,-0.01674267,0.9788851,0.0010681152,0.0002670288,0.0001335144,-0.5555317,-0.15316728,9.789704,2,1683807375.9026139
-0.056233536,-0.016500022,0.98132676,0.0010681152,0.0002670288,0.0001335144,-0.5550402,-0.15367278,9.789724,2,1683807375.918239
-0.051592905,-0.016500022,0.9810841,0.0010681152,0.0002670288,0.0001335144,-0.5550402,-0.15367278,9.789724,2,1683807375.9338632
-0.051592905,-0.016500022,0.9810841,-0.0010681152,-0.0008010864,0.0001335144,-0.5550402,-0.15367278,9.789724,2,1683807375.9494884
-0.051592905,-0.016500022,0.9810841,-0.0010681152,-0.0008010864,0.0001335144,-0.55487204,-0.15390673,9.789731,2,1683807375.965114
-0.056233536,-0.01674267,0.98181206,-0.0010681152,-0.0008010864,0.0001335144,-0.5549922,-0.1542741,9.789717,2,1683807375.9807389
-0.056233536,-0.01674267,0.98181206,-0.0010681152,-0.0008010864,0.0001335144,-0.55527365,-0.15442102,9.7897,2,1683807375.996364
-0.05574824,-0.015514269,0.9805988,0.0,0.0002670288,0.0012016296,-0.55519915,-0.15416689,9.789708,2,1683807376.0119905
-0.054034542,-0.014543679,0.98132676,0.0010681152,0.0002670288,0.0001335144,-0.55519915,-0.15416689,9.789708,2,1683807376.027615
-0.054034542,-0.014543679,0.98132676,0.0010681152,-0.0008010864,0.0001335144,-0.553937,-0.15392715,9.7897835,2,1683807376.0744898
-0.054034542,-0.01771326,0.98009837,0.0010681152,-0.0008010864,0.0001335144,-0.553937,-0.15392715,9.7897835,2,1683807376.0744898
-0.054034542,-0.01771326,0.98009837,-0.0010681152,0.0002670288,0.0001335144,-0.553937,-0.15392715,9.7897835,2,1683807376.105739
-0.05574824,-0.014301031,0.98181206,0.0,0.0002670288,0.0001335144,-0.5538638,-0.15398425,9.789786,2,1683807376.1213636
-0.055505592,-0.015999563,0.98132676,0.0,0.0002670288,0.0001335144,-0.5538341,-0.1539191,9.789789,2,1683807376.1369886
-0.05233601,-0.014786326,0.980341,0.0,0.0002670288,0.0001335144,-0.5538341,-0.1539191,9.789789,2,1683807376.1526139
-0.05233601,-0.014786326,0.980341,0.0,0.0002670288,0.0001335144,-0.55365866,-0.15373383,9.789802,2,1683807376.1682386
-0.056961477,-0.011616744,0.9827826,0.0,0.0002670288,0.0001335144,-0.5538379,-0.15326327,9.789799,2,1683807376.183865
-0.056961477,-0.011616744,0.9827826,-0.0021362305,0.0002670288,0.0012016296,-0.5538379,-0.15326327,9.789799,2,1683807376.1994889
-0.057704587,-0.015028973,0.98084146,0.0,0.0002670288,-0.00093460083,-0.55450016,-0.15321256,9.789762,2,1683807376.2151132
-0.057704587,-0.015028973,0.98084146,0.0,0.0002670288,-0.00093460083,-0.5542173,-0.1529026,9.789783,2,1683807376.2307384
-0.052578658,-0.014058384,0.980341,0.0010681152,0.0002670288,0.0001335144,-0.55428934,-0.15265927,9.789783,2,1683807376.2463639
-0.052578658,-0.014058384,0.980341,0.0,-0.0017356873,0.0001335144,-0.55428934,-0.15265927,9.789783,2,1683807376.2776136
-0.052578658,-0.014786326,0.9832831,-0.0010681152,0.0002670288,-0.00093460083,-0.55417407,-0.1525763,9.789791,2,1683807376.2932382
-0.054777652,-0.013573089,0.98009837,0.0,-0.0008010864,0.0001335144,-0.55449754,-0.15257286,9.789772,2,1683807376.308863
-0.054777652,-0.018699015,0.9771714,0.0010681152,0.0024032593,0.0001335144,-0.55288285,-0.1526252,9.789864,2,1683807376.4495003
-0.054519836,-0.0130726285,0.98254,-0.0010681152,-0.0008010864,0.0001335144,-0.5527606,-0.15222561,9.789876,2,1683807376.465127
-0.05671883,-0.018441202,0.97961307,0.0,0.0002670288,0.0001335144,-0.553695,-0.15230574,9.789822,2,1683807376.4807518
-0.05671883,-0.018441202,0.97961307,0.0010681152,0.0002670288,0.0001335144,-0.5539654,-0.15187927,9.789814,2,1683807376.4963768
-0.056233536,-0.014058384,0.98084146,0.0010681152,0.0002670288,0.0001335144,-0.5539654,-0.15187927,9.789814,2,1683807376.4963768
-0.054519836,-0.013573089,0.98401105,-0.0010681152,-0.0008010864,-0.00093460083,-0.5536427,-0.15174797,9.789833,2,1683807376.5432508
-0.054519836,-0.013573089,0.98401105,-0.0010681152,-0.0008010864,-0.00093460083,-0.55371815,-0.1515799,9.789832,2,1683807376.558877
-0.05721929,-0.012102039,0.9788851,-0.0010681152,0.0002670288,0.0001335144,-0.55371815,-0.1515799,9.789832,2,1683807376.558877
-0.05721929,-0.01674267,0.9810841,-0.0010681152,0.0002670288,0.0001335144,-0.5538998,-0.151602,9.789822,2,1683807376.5745025
-0.054519836,-0.017955907,0.9805988,-0.0010681152,0.0002670288,-0.00093460083,-0.5538,-0.15125105,9.789833,2,1683807376.590127
-0.05354925,-0.014543679,0.98229736,0.0,0.001335144,0.0001335144,-0.5537693,-0.15139668,9.789831,2,1683807376.6057522
-0.057947233,-0.017470613,0.980341,0.0010681152,-0.0008010864,-0.00093460083,-0.55394936,-0.15137096,9.789822,2,1683807376.621377
-0.057461936,-0.015271621,0.98229736,-0.0010681152,-0.0008010864,-0.00093460083,-0.55394936,-0.15137096,9.789822,2,1683807376.699502
-0.05671883,-0.017955907,0.9820547,-0.0010681152,0.0002670288,-0.00093460083,-0.55435663,-0.15142187,9.789798,2,1683807376.715127
-0.055262946,-0.014786326,0.98084146,0.0,0.0002670288,-0.00093460083,-0.5545067,-0.1516302,9.789786,2,1683807376.730752
-0.055262946,-0.014786326,0.98084146,-0.0010681152,0.0002670288,-0.00093460083,-0.5545067,-0.1516302,9.789786,2,1683807376.746377
-0.055262946,-0.014786326,0.98084146,-0.0010681152,0.0002670288,-0.00093460083,-0.5545056,-0.15178838,9.789784,2,1683807376.762002
-0.05818988,-0.015999563,0.98084146,0.0,-0.0008010864,0.0001335144,-0.5546072,-0.15223446,9.789772,2,1683807376.777627
-0.057704587,-0.014301031,0.9820547,0.0,0.0002670288,0.0001335144,-0.5546072,-0.15223446,9.789772,2,1683807376.793253
-0.0550203,-0.015999563,0.9810841,0.0,0.001335144,-0.00093460083,-0.5553047,-0.1524811,9.789728,2,1683807376.8091607
-0.0550203,-0.015514269,0.97961307,0.0,0.0002670288,0.0001335144,-0.55540043,-0.15217105,9.789727,2,1683807376.824805
-0.0550203,-0.015514269,0.97961307,0.0,0.0002670288,0.0001335144,-0.55490446,-0.15235123,9.789752,2,1683807376.8561373
-0.0550203,-0.016500022,0.98254,-0.0021362305,0.0002670288,0.0001335144,-0.55490446,-0.15235123,9.789752,2,1683807376.8561373
-0.05891782,-0.014058384,0.98304045,0.0,0.001335144,0.0001335144,-0.55475533,-0.15215838,9.789764,2,1683807376.8870018
-0.05574824,-0.012829981,0.98009837,0.0,0.0002670288,-0.00093460083,-0.5556628,-0.1518984,9.789717,2,1683807376.902627
-0.05574824,-0.012829981,0.98009837,0.0,0.0002670288,0.0001335144,-0.5558242,-0.15175836,9.789709,2,1683807376.9338777
-0.05574824,-0.012829981,0.98009837,0.0,0.0002670288,0.0001335144,-0.55599874,-0.15176815,9.789699,2,1683807376.949502
-0.058432527,-0.015514269,0.9810841,0.0010681152,0.0024032593,-0.00093460083,-0.55625665,-0.15120998,9.789693,2,1683807376.9653459
-0.050622314,-0.013315276,0.9810841,0.0021362305,0.001335144,-0.00093460083,-0.55625665,-0.15120998,9.789693,2,1683807377.0120018
-0.056233536,-0.015514269,0.97912776,0.0010681152,0.0002670288,0.0001335144,-0.55737835,-0.15073444,9.789637,2,1683807377.0281332
-0.052093364,-0.01771326,0.98084146,0.0010681152,0.001335144,0.0001335144,-0.5569914,-0.15085325,9.789657,2,1683807377.0602005
-0.055505592,-0.016985318,0.9783998,0.0010681152,0.001335144,0.0001335144,-0.5569116,-0.15092641,9.789661,2,1683807377.0755415
-0.057947233,-0.017227964,0.98009837,0.0021362305,0.001335144,0.0012016296,-0.5565256,-0.15107892,9.7896805,2,1683807377.0911667
-0.056233536,-0.015271621,0.9798557,0.0021362305,0.001335144,0.0012016296,-0.5565256,-0.15107892,9.7896805,2,1683807377.107098
-0.05574824,-0.013573089,0.98009837,0.0,-0.0008010864,0.0001335144,-0.5568036,-0.1507099,9.78967,2,1683807377.1380415
-0.05721929,-0.015514269,0.9805988,-0.0021362305,0.0002670288,0.0001335144,-0.556412,-0.15073411,9.789692,2,1683807377.1692915
-0.05427719,-0.014786326,0.9798557,0.0,0.0002670288,0.0012016296,-0.5574318,-0.15061377,9.789636,2,1683807377.1849165
-0.05671883,-0.016257375,0.980341,0.0021362305,0.0024032593,0.0001335144,-0.5574318,-0.15061377,9.789636,2,1683807377.2005417
-0.057461936,-0.011616744,0.98132676,0.0021362305,0.0024032593,0.0001335144,-0.5579932,-0.15021107,9.78961,2,1683807377.2630415
-0.054519836,-0.015756916,0.98304045,0.0010681152,-0.0017356873,0.0001335144,-0.5579932,-0.15021107,9.78961,2,1683807377.309917
-0.051350255,-0.012344686,0.98009837,0.0010681152,0.0002670288,-0.00093460083,-0.5564146,-0.15047953,9.789696,2,1683807377.3255413
-0.051350255,-0.012344686,0.98009837,-0.0010681152,0.001335144,-0.00093460083,-0.55723155,-0.15050223,9.789649,2,1683807377.3411665
-0.056961477,-0.013573089,0.98401105,-0.0010681152,0.001335144,-0.00093460083,-0.55723155,-0.15050223,9.789649,2,1683807377.3411665
-0.054034542,-0.020154899,0.98304045,-0.0010681152,0.0002670288,-0.00093460083,-0.55747217,-0.15069258,9.789633,2,1683807377.3567915
-0.057704587,-0.013815736,0.97961307,0.0,0.001335144,0.0001335144,-0.5573379,-0.15126537,9.789631,2,1683807377.3724165
-0.057461936,-0.013815736,0.980341,0.0010681152,0.0002670288,-0.00093460083,-0.557092,-0.15157637,9.78964,2,1683807377.4192915
-0.057461936,-0.013815736,0.980341,0.0010681152,0.0002670288,-0.00093460083,-0.55733967,-0.15107165,9.789634,2,1683807377.4349165
-0.055990886,-0.015999563,0.97815716,0.0010681152,0.0002670288,0.0001335144,-0.55733967,-0.15107165,9.789634,2,1683807377.4349165
-0.056233536,-0.013573089,0.98181206,0.0010681152,0.0002670288,0.0001335144,-0.5574492,-0.1510153,9.789628,2,1683807377.4505417
-0.054777652,-0.011859392,0.9798557,0.0,0.0002670288,-0.00093460083,-0.5574431,-0.1512246,9.789626,2,1683807377.4661665
-0.0550203,-0.017227964,0.97912776,0.0,0.0002670288,-0.00093460083,-0.5574431,-0.1512246,9.789626,2,1683807377.4817917
-0.0550203,-0.017227964,0.97912776,-0.0010681152,-0.0017356873,0.0001335144,-0.5574431,-0.1512246,9.789626,2,1683807377.4974167
-0.054519836,-0.015514269,0.98181206,-0.0010681152,-0.0017356873,0.0001335144,-0.5572251,-0.15118033,9.7896385,2,1683807377.5130417
-0.054519836,-0.015514269,0.98181206,-0.0010681152,-0.0017356873,0.0001335144,-0.55618656,-0.15061212,9.789707,2,1683807377.5286663
-0.05721929,-0.016257375,0.9783998,0.0,0.0002670288,-0.00093460083,-0.55618656,-0.15061212,9.789707,2,1683807377.5286663
-0.05427719,-0.012829981,0.9815694,-0.0010681152,0.0002670288,-0.00093460083,-0.55663157,-0.15023986,9.789687,2,1683807377.5911667
-0.056233536,-0.014786326,0.9805988,-0.0010681152,0.0002670288,-0.00093460083,-0.5566862,-0.15027104,9.789683,2,1683807377.6224167
-0.05574824,-0.011616744,0.980341,0.0,0.001335144,0.0001335144,-0.55711126,-0.14974163,9.789667,2,1683807377.6380415
-0.05671883,-0.013573089,0.9837684,0.0,0.0002670288,-0.00093460083,-0.5573136,-0.14955312,9.789659,2,1683807377.6536665
-0.05671883,-0.013573089,0.9837684,0.0,0.0002670288,-0.00093460083,-0.55745417,-0.14928362,9.789656,2,1683807377.6849167
-0.05671883,-0.013573089,0.9837684,0.0,-0.0008010864,0.0001335144,-0.5582413,-0.14956439,9.789605,2,1683807377.7005417
-0.0550203,-0.014301031,0.98132676,0.0,-0.0008010864,0.0001335144,-0.5582413,-0.14956439,9.789605,2,1683807377.7161667
-0.0550203,-0.014301031,0.98132676,-0.0021362305,-0.0028038025,0.0001335144,-0.55679893,-0.15051185,9.789673,2,1683807377.7317917
-0.050379667,-0.016500022,0.9810841,-0.0021362305,-0.0028038025,0.0001335144,-0.55679893,-0.15051185,9.789673,2,1683807377.7317917
0.07409845,-0.015999563,1.0059706,-0.088386536,-0.36289215,0.0097465515,-0.46732262,-0.17084418,9.794019,2,1683807377.7630417
-0.056233536,-0.014301031,0.9539834,-0.013885498,-0.047664642,0.0001335144,-0.55457944,-0.15000306,9.789807,2,1683807377.778667
