acc_x,acc_y,acc_z,gyr_x,gyr_y,gyr_z,grav_x,grav_y,grav_z,label,timestamp
-0.038656764,-0.004777121,0.9820547,0.0016021729,0.000667572,-0.0005340576,-0.4337083,-0.019377552,9.797036,2,1683900778.4537625
-0.038914576,-0.0011222442,0.9815694,0.0005340576,0.0028038025,0.0005340576,-0.4337083,-0.019377552,9.797036,2,1683900778.4665787
-0.041098405,-0.0008795968,0.98522425,0.0005340576,0.0028038025,0.0005340576,-0.4337083,-0.019377552,9.797036,2,1683900778.4824207
-0.041098405,-0.0008795968,0.98522425,0.0005340576,0.0017356873,0.0005340576,-0.4337083,-0.019377552,9.797036,2,1683900778.4875774
-0.041098405,-0.0008795968,0.98522425,0.0016021729,0.000667572,-0.0005340576,-0.4337083,-0.019377552,9.797036,2,1683900778.518255
-0.041098405,-0.0008795968,0.98522425,0.0016021729,0.000667572,-0.0005340576,-0.4336195,-0.018192127,9.797042,2,1683900778.5284646
-0.04402534,0.0044889767,0.98401105,0.0016021729,0.000667572,-0.0005340576,-0.4336195,-0.018192127,9.797042,2,1683900778.533592
-0.045981683,0.0022899848,0.9864527,0.0016021729,0.000667572,-0.0005340576,-0.4336195,-0.018192127,9.797042,2,1683900778.5642753
-0.045981683,0.0022899848,0.9864527,0.0016021729,0.000667572,-0.0005340576,-0.43389714,-0.017770465,9.79703,2,1683900778.5694041
-0.045981683,0.0022899848,0.9864527,0.0016021729,0.0017356873,0.0005340576,-0.43389714,-0.017770465,9.79703,2,1683900778.5745466
-0.045981683,0.0022899848,0.9864527,-0.0016021729,-0.0014686584,0.0005340576,-0.43389714,-0.017770465,9.79703,2,1683900778.5898583
-0.045981683,0.0022899848,0.9864527,-0.0016021729,-0.0014686584,0.0005340576,-0.43517184,-0.017903555,9.796974,2,1683900778.5949504
-0.04866597,-0.0038065312,0.9815694,-0.0016021729,-0.0014686584,0.0005340576,-0.43517184,-0.017903555,9.796974,2,1683900778.6154275
-0.04866597,-0.0038065312,0.9815694,-0.0016021729,-0.0014686584,0.0005340576,-0.43676633,-0.019047024,9.796901,2,1683900778.666692
-0.04866597,-0.0038065312,0.9815694,-0.0005340576,0.0017356873,-0.0005340576,-0.43676633,-0.019047024,9.796901,2,1683900778.6820788
-0.048908617,-0.0052624154,0.9805988,-0.0005340576,0.0017356873,-0.0005340576,-0.43676633,-0.019047024,9.796901,2,1683900778.687203
-0.047452733,-0.0020928339,0.98084146,-0.0005340576,0.0017356873,-0.0005340576,-0.43676633,-0.019047024,9.796901,2,1683900778.697514
-0.047452733,-0.0020928339,0.98084146,-0.002670288,-0.0025367737,0.0005340576,-0.43676633,-0.019047024,9.796901,2,1683900778.7026896
-0.047452733,-0.0020928339,0.98084146,-0.002670288,-0.0025367737,0.0005340576,-0.4373512,-0.019098267,9.796875,2,1683900778.7231872
-0.047452733,-0.0020928339,0.98084146,-0.0005340576,-0.003604889,0.0005340576,-0.4373512,-0.019098267,9.796875,2,1683900778.7488735
-0.047210086,-0.003078589,0.98254,-0.0005340576,-0.003604889,0.0005340576,-0.4373512,-0.019098267,9.796875,2,1683900778.7540264
-0.04184151,-0.0035638837,0.9815694,-0.0005340576,-0.003604889,0.0005340576,-0.4373512,-0.019098267,9.796875,2,1683900778.7694175
-0.04184151,-0.0035638837,0.9815694,-0.0005340576,-0.003604889,0.0005340576,-0.437015,-0.019426294,9.796888,2,1683900778.7847433
-0.04184151,-0.0035638837,0.9815694,0.0005340576,0.000667572,-0.0005340576,-0.437015,-0.019426294,9.796888,2,1683900778.789842
-0.04184151,-0.0035638837,0.9815694,-0.0005340576,-0.0004005432,-0.0005340576,-0.437015,-0.019426294,9.796888,2,1683900778.8052838
-0.042084157,-0.000394302,0.9842537,-0.0005340576,-0.0004005432,-0.0005340576,-0.437015,-0.019426294,9.796888,2,1683900778.810427
-0.042084157,-0.000394302,0.9842537,-0.0005340576,-0.0004005432,-0.0005340576,-0.43684518,-0.019323288,9.796897,2,1683900778.8309207
-0.042084157,-0.000394302,0.9842537,-0.0005340576,-0.0004005432,-0.0005340576,-0.43471053,-0.019808372,9.796989,2,1683900778.8514297
-0.042084157,-0.000394302,0.9842537,0.0016021729,-0.0004005432,0.0005340576,-0.43471053,-0.019808372,9.796989,2,1683900778.8565962
-0.030846551,-0.004291826,0.97595817,0.0016021729,-0.0004005432,0.0005340576,-0.43471053,-0.019808372,9.796989,2,1683900778.8617296
-0.040855754,0.0047316244,0.98522425,0.0016021729,-0.0004005432,0.0005340576,-0.43471053,-0.019808372,9.796989,2,1683900778.8823068
-0.040855754,0.0047316244,0.98522425,0.0016021729,-0.0004005432,0.0005340576,-0.4322428,-0.019487055,9.7971,2,1683900778.8925633
-0.040855754,0.0047316244,0.98522425,0.002670288,0.0028038025,0.0005340576,-0.4322428,-0.019487055,9.7971,2,1683900778.8976917
-0.040855754,0.0047316244,0.98522425,0.0005340576,-0.0004005432,0.0005340576,-0.4322428,-0.019487055,9.7971,2,1683900778.9386683
-0.04525374,-0.0025781286,0.98693794,0.0005340576,-0.0004005432,0.0005340576,-0.4322428,-0.019487055,9.7971,2,1683900778.943841
-0.04525374,-0.0025781286,0.98693794,0.0005340576,-0.0004005432,0.0005340576,-0.4331702,-0.017000943,9.797064,2,1683900778.9644368
-0.04525374,-0.0025781286,0.98693794,-0.0005340576,0.000667572,0.0005340576,-0.4331702,-0.017000943,9.797064,2,1683900778.9849293
-0.04525374,-0.0025781286,0.98693794,-0.0005340576,0.000667572,0.0005340576,-0.43365285,-0.017552257,9.797041,2,1683900779.0002909
-0.052578658,-0.0033212362,0.9810841,-0.0005340576,0.000667572,0.0005340576,-0.43365285,-0.017552257,9.797041,2,1683900779.0054333
-0.052578658,-0.0033212362,0.9810841,0.0016021729,0.004940033,0.0005340576,-0.43365285,-0.017552257,9.797041,2,1683900779.010536
-0.0550203,-0.002335481,0.9779145,0.0016021729,0.004940033,0.0005340576,-0.43365285,-0.017552257,9.797041,2,1683900779.0259404
-0.0550203,-0.002335481,0.9779145,0.0016021729,0.004940033,0.0005340576,-0.43565276,-0.017675199,9.796953,2,1683900779.031073
-0.051350255,-0.0033212362,0.9859674,0.0016021729,0.004940033,0.0005340576,-0.43565276,-0.017675199,9.796953,2,1683900779.0617988
-0.051350255,-0.0033212362,0.9859674,0.0016021729,0.004940033,0.0005340576,-0.43770218,-0.01729431,9.796863,2,1683900779.066882
-0.051350255,-0.0033212362,0.9859674,-0.0016021729,-0.0025367737,0.0005340576,-0.43770218,-0.01729431,9.796863,2,1683900779.0771487
-0.051350255,-0.0033212362,0.9859674,-0.0016021729,-0.0025367737,0.0005340576,-0.4381871,-0.017501557,9.79684,2,1683900779.0976589
-0.051350255,-0.0033212362,0.9859674,-0.0016021729,-0.0025367737,0.0005340576,-0.43752572,-0.018485108,9.796867,2,1683900779.1335108
-0.039885167,-0.0025781286,0.98229736,-0.0016021729,-0.0025367737,0.0005340576,-0.43752572,-0.018485108,9.796867,2,1683900779.1540015
-0.039885167,-0.0025781286,0.98229736,0.0005340576,-0.0025367737,0.0005340576,-0.43752572,-0.018485108,9.796867,2,1683900779.1591346
-0.03572983,-0.0067334655,0.97864246,0.0005340576,-0.0025367737,0.0005340576,-0.43752572,-0.018485108,9.796867,2,1683900779.1693923
-0.03572983,-0.0067334655,0.97864246,-0.0005340576,-0.0004005432,-0.0005340576,-0.43752572,-0.018485108,9.796867,2,1683900779.179623
-0.03572983,-0.0067334655,0.97864246,-0.0005340576,-0.0004005432,-0.0005340576,-0.4360203,-0.019020798,9.796934,2,1683900779.1847138
-0.03451659,-0.003078589,0.9854669,-0.0005340576,-0.0004005432,-0.0005340576,-0.4360203,-0.019020798,9.796934,2,1683900779.1949685
-0.03451659,-0.003078589,0.9854669,-0.0005340576,-0.0004005432,-0.0005340576,-0.43522683,-0.019193508,9.796969,2,1683900779.2052698
-0.03451659,-0.003078589,0.9854669,-0.0016021729,-0.0004005432,0.0005340576,-0.43522683,-0.019193508,9.796969,2,1683900779.210439
-0.03451659,-0.003078589,0.9854669,0.0016021729,0.0017356873,0.0005340576,-0.43522683,-0.019193508,9.796969,2,1683900779.2357962
-0.037443526,-0.000394302,0.98522425,0.0016021729,0.0017356873,0.0005340576,-0.43522683,-0.019193508,9.796969,2,1683900779.2513974
-0.037443526,-0.000394302,0.98522425,0.0016021729,0.0017356873,0.0005340576,-0.43277675,-0.018884882,9.797078,2,1683900779.2565746
-0.037443526,-0.000394302,0.98522425,0.0016021729,0.0017356873,0.0005340576,-0.43308112,-0.017257163,9.797067,2,1683900779.3082016
-0.04549639,0.0020473374,0.9827826,0.0016021729,0.0017356873,0.0005340576,-0.43308112,-0.017257163,9.797067,2,1683900779.3185294
-0.04549639,0.0020473374,0.9827826,0.0005340576,0.0017356873,0.0005340576,-0.43308112,-0.017257163,9.797067,2,1683900779.333914
-0.04549639,0.0020473374,0.9827826,-0.0005340576,-0.0004005432,-0.0016021729,-0.43308112,-0.017257163,9.797067,2,1683900779.349262
-0.049409077,-0.0040491787,0.98084146,-0.0005340576,-0.0004005432,-0.0016021729,-0.43308112,-0.017257163,9.797067,2,1683900779.3543952
-0.049409077,-0.0040491787,0.98473895,-0.0005340576,-0.0004005432,-0.0016021729,-0.43308112,-0.017257163,9.797067,2,1683900779.3698044
-0.049409077,-0.0040491787,0.98473895,-0.0005340576,-0.0004005432,0.0005340576,-0.43308112,-0.017257163,9.797067,2,1683900779.3801098
-0.049409077,-0.0040491787,0.98473895,-0.0005340576,-0.0004005432,0.0005340576,-0.43436217,-0.017492186,9.79701,2,1683900779.3955443
-0.049409077,-0.0040491787,0.98473895,-0.0016021729,-0.0004005432,-0.0005340576,-0.43436217,-0.017492186,9.79701,2,1683900779.400688
-0.05086496,-0.007704055,0.9769288,-0.0016021729,-0.0004005432,-0.0005340576,-0.43436217,-0.017492186,9.79701,2,1683900779.4109576
-0.05086496,-0.007704055,0.9769288,-0.0016021729,-0.0004005432,-0.0005340576,-0.43643194,-0.018391112,9.796916,2,1683900779.4264143
-0.05086496,-0.007704055,0.9769288,-0.0016021729,-0.0004005432,-0.0005340576,-0.4362646,-0.018422412,9.796924,2,1683900779.472881
-0.04525374,-0.00063694944,0.97864246,-0.0016021729,-0.0004005432,-0.0005340576,-0.4362646,-0.018422412,9.796924,2,1683900779.4831192
-0.04525374,-0.00063694944,0.97864246,-0.0005340576,-0.0025367737,-0.0005340576,-0.4362646,-0.018422412,9.796924,2,1683900779.48825
-0.03817147,0.00059145305,0.9859674,-0.0005340576,-0.0025367737,-0.0005340576,-0.4362646,-0.018422412,9.796924,2,1683900779.5036952
-0.03817147,0.00059145305,0.9859674,-0.0005340576,-0.0025367737,-0.0005340576,-0.4353449,-0.018102,9.796966,2,1683900779.5243313
-0.03817147,0.00059145305,0.9859674,-0.0005340576,-0.0014686584,0.0005340576,-0.4353449,-0.018102,9.796966,2,1683900779.5294676
-0.03817147,0.00059145305,0.9859674,-0.0005340576,0.0017356873,0.0016021729,-0.4353449,-0.018102,9.796966,2,1683900779.5396864
-0.042569455,0.0042463294,0.9837684,-0.0005340576,0.0017356873,0.0016021729,-0.4353449,-0.018102,9.796966,2,1683900779.5601444
-0.042569455,0.0042463294,0.9837684,-0.0005340576,0.0017356873,0.0016021729,-0.43533465,-0.017620172,9.7969675,2,1683900779.5652585
-0.042569455,0.0042463294,0.9837684,-0.0005340576,0.0017356873,0.0016021729,-0.43367583,-0.01796223,9.797039,2,1683900779.5755715
-0.036715586,-0.0020928339,0.97644347,-0.0005340576,0.0017356873,0.0016021729,-0.43367583,-0.01796223,9.797039,2,1683900779.580696
-0.036715586,-0.0020928339,0.97644347,-0.0005340576,-0.0004005432,0.0005340576,-0.43367583,-0.01796223,9.797039,2,1683900779.5960724
-0.036715586,-0.0057628755,0.9757155,-0.0005340576,-0.0004005432,0.0005340576,-0.43367583,-0.01796223,9.797039,2,1683900779.6012065
-0.036715586,-0.0057628755,0.9757155,-0.0005340576,-0.0025367737,-0.0005340576,-0.43367583,-0.01796223,9.797039,2,1683900779.6217113
-0.046466976,0.002790445,0.98669535,-0.0005340576,-0.0025367737,-0.0005340576,-0.43367583,-0.01796223,9.797039,2,1683900779.6422846
-0.046466976,0.002790445,0.98669535,0.0037384033,0.0070762634,-0.0005340576,-0.43367583,-0.01796223,9.797039,2,1683900779.6525586
-0.046466976,0.002790445,0.98669535,0.0037384033,0.0070762634,-0.0005340576,-0.43384522,-0.01845913,9.797031,2,1683900779.6679037
-0.046466976,0.002790445,0.98669535,0.0016021729,-0.0014686584,-0.0005340576,-0.43384522,-0.01845913,9.797031,2,1683900779.683211
-0.046466976,0.002790445,0.98669535,0.0016021729,-0.0014686584,-0.0005340576,-0.4342513,-0.017274238,9.797015,2,1683900779.6883337
-0.046967436,0.006687969,0.9886517,0.0016021729,-0.0014686584,-0.0005340576,-0.4342513,-0.017274238,9.797015,2,1683900779.698641
-0.04428315,0.004003682,0.98742324,0.0016021729,-0.0014686584,-0.0005340576,-0.4342513,-0.017274238,9.797015,2,1683900779.7294736
-0.04428315,0.004003682,0.98742324,0.002670288,0.000667572,-0.0005340576,-0.4342513,-0.017274238,9.797015,2,1683900779.7397313
-0.044768445,-0.001607539,0.98009837,0.002670288,0.000667572,-0.0005340576,-0.4342513,-0.017274238,9.797015,2,1683900779.744892
-0.044768445,-0.001607539,0.98009837,0.002670288,0.000667572,-0.0005340576,-0.4329331,-0.019509451,9.79707,2,1683900779.765495
-0.0428121,-0.003078589,0.98132676,0.002670288,0.000667572,-0.0005340576,-0.4329331,-0.019509451,9.79707,2,1683900779.770655
-0.0428121,-0.003078589,0.98132676,0.002670288,0.000667572,-0.0005340576,-0.43334877,-0.018310724,9.797054,2,1683900779.775817
-0.0428121,-0.003078589,0.98132676,0.002670288,0.0017356873,-0.0016021729,-0.43334877,-0.018310724,9.797054,2,1683900779.7861102
-0.046466976,0.0037610347,0.9837684,0.002670288,0.0017356873,-0.0016021729,-0.43334877,-0.018310724,9.797054,2,1683900779.8221915
-0.046466976,0.0037610347,0.9837684,0.0005340576,0.000667572,0.0005340576,-0.43334877,-0.018310724,9.797054,2,1683900779.8273203
-0.045739036,-0.003078589,0.98693794,0.0005340576,-0.0014686584,0.0005340576,-0.43387946,-0.015885536,9.797034,2,1683900779.8428707
-0.045739036,-0.002820776,0.98132676,-0.0005340576,0.0017356873,0.0005340576,-0.43455508,-0.01619131,9.797005,2,1683900779.8480692
-0.046967436,-0.0069761127,0.97547287,-0.0005340576,0.0017356873,0.0005340576,-0.43455508,-0.01619131,9.797005,2,1683900779.878844
-0.0428121,-0.0074614077,0.9779145,-0.0005340576,0.0017356873,0.0005340576,-0.43455508,-0.01619131,9.797005,2,1683900779.909761
-0.0428121,-0.0074614077,0.9779145,-0.0005340576,0.0017356873,0.0005340576,-0.43474528,-0.018245908,9.796991,2,1683900779.9200282
-0.0428121,-0.0074614077,0.9779145,0.0005340576,0.000667572,0.0005340576,-0.43474528,-0.018245908,9.796991,2,1683900779.9251251
-0.0428121,-0.0074614077,0.9779145,0.002670288,0.0017356873,0.0005340576,-0.43474528,-0.018245908,9.796991,2,1683900779.9304874
-0.0428121,-0.0074614077,0.9779145,-0.0005340576,-0.0004005432,0.0005340576,-0.43474528,-0.018245908,9.796991,2,1683900779.935615
-0.042084157,-0.0008795968,0.98084146,-0.0005340576,-0.0004005432,0.0005340576,-0.43474528,-0.018245908,9.796991,2,1683900779.9510407
-0.042084157,-0.0008795968,0.98084146,-0.0005340576,-0.0004005432,0.0005340576,-0.4333494,-0.017075254,9.797055,2,1683900779.9613311
-0.042084157,-0.0008795968,0.98084146,-0.0005340576,-0.0004005432,0.0005340576,-0.43240455,-0.017642248,9.797096,2,1683900779.971605
-0.038656764,-0.004777121,0.97961307,-0.0005340576,-0.0004005432,0.0005340576,-0.43240455,-0.017642248,9.797096,2,1683900779.9767509
-0.038656764,-0.004777121,0.97961307,0.0005340576,0.0028038025,-0.0005340576,-0.43240455,-0.017642248,9.797096,2,1683900779.9870348
-0.038656764,-0.004777121,0.97961307,0.0005340576,0.000667572,0.0005340576,-0.43240455,-0.017642248,9.797096,2,1683900780.007605
-0.04402534,-0.001607539,0.98304045,0.0005340576,0.000667572,0.0005340576,-0.43240455,-0.017642248,9.797096,2,1683900780.0179431
-0.04402534,-0.001607539,0.98304045,0.0005340576,0.000667572,0.0005340576,-0.4325934,-0.017866328,9.797088,2,1683900780.0230813
-0.04402534,-0.001607539,0.98304045,0.0005340576,0.000667572,0.0005340576,-0.43276942,-0.017794494,9.79708,2,1683900780.0488505
-0.04402534,-0.001607539,0.98304045,0.0016021729,0.0017356873,-0.0005340576,-0.43276942,-0.017794494,9.79708,2,1683900780.0694199
-0.0445258,-0.0018501864,0.98352575,0.0016021729,0.0017356873,-0.0005340576,-0.43276942,-0.017794494,9.79708,2,1683900780.0745146
-0.0445258,-0.0018501864,0.98352575,0.0016021729,0.0017356873,-0.0005340576,-0.43292215,-0.017226173,9.797075,2,1683900780.0848079
-0.043297395,-0.0008795968,0.98254,0.0016021729,0.0017356873,-0.0005340576,-0.43292215,-0.017226173,9.797075,2,1683900780.0899682
-0.043297395,-0.0008795968,0.98254,-0.0005340576,0.000667572,0.0005340576,-0.43292215,-0.017226173,9.797075,2,1683900780.1002843
-0.043297395,-0.0008795968,0.98254,-0.0005340576,0.000667572,0.0005340576,-0.43312895,-0.017293103,9.797065,2,1683900780.1259775
-0.04549639,-0.001607539,0.98229736,-0.0005340576,0.000667572,0.0005340576,-0.43312895,-0.017293103,9.797065,2,1683900780.1311202
-0.04549639,-0.001607539,0.98229736,-0.0005340576,0.000667572,0.0005340576,-0.4333221,-0.016404673,9.797058,2,1683900780.1413798
-0.04184151,0.00059145305,0.98132676,-0.0005340576,0.000667572,0.0005340576,-0.4333221,-0.016404673,9.797058,2,1683900780.1618662
-0.04184151,0.00059145305,0.98132676,-0.0005340576,-0.0004005432,-0.0005340576,-0.4333221,-0.016404673,9.797058,2,1683900780.1669958
-0.04184151,0.00059145305,0.98132676,-0.0005340576,-0.0004005432,-0.0005340576,-0.43341446,-0.016572375,9.797053,2,1683900780.172133
-0.043297395,-0.0040491787,0.9810841,-0.0005340576,-0.0004005432,-0.0005340576,-0.43341446,-0.016572375,9.797053,2,1683900780.1977437
-0.04184151,-0.005019768,0.98352575,-0.0005340576,-0.0004005432,-0.0005340576,-0.43341446,-0.016572375,9.797053,2,1683900780.2284384
-0.04184151,-0.005019768,0.98352575,-0.0005340576,-0.0004005432,-0.0005340576,-0.43295634,-0.018913062,9.79707,2,1683900780.2335703
-0.04184151,-0.005019768,0.98352575,0.0005340576,-0.0004005432,0.0005340576,-0.43295634,-0.018913062,9.79707,2,1683900780.238692
-0.04184151,-0.005019768,0.98352575,0.0005340576,-0.0004005432,-0.0005340576,-0.43295634,-0.018913062,9.79707,2,1683900780.2540588
-0.0445258,0.00034880562,0.98229736,0.0005340576,-0.0004005432,-0.0005340576,-0.43295634,-0.018913062,9.79707,2,1683900780.2694395
-0.0445258,0.00034880562,0.98229736,0.0005340576,-0.0004005432,-0.0005340576,-0.43294817,-0.019295165,9.79707,2,1683900780.279704
-0.0445258,0.00034880562,0.98229736,0.0005340576,-0.0004005432,-0.0005340576,-0.43298963,-0.01849466,9.797069,2,1683900780.2899377
-0.04402534,0.002790445,0.98229736,0.0005340576,-0.0004005432,-0.0005340576,-0.43298963,-0.01849466,9.797069,2,1683900780.2950692
-0.04402534,0.002790445,0.98229736,0.0005340576,-0.0004005432,0.0016021729,-0.43298963,-0.01849466,9.797069,2,1683900780.3207188
-0.04402534,0.002790445,0.98229736,0.0005340576,-0.0004005432,0.0016021729,-0.43291464,-0.019557174,9.7970705,2,1683900780.346705
-0.04402534,-0.0062481705,0.980341,0.0005340576,-0.0004005432,0.0016021729,-0.43291464,-0.019557174,9.7970705,2,1683900780.3518562
-0.043540042,-0.0052624154,0.98132676,0.0005340576,0.000667572,-0.0005340576,-0.43291464,-0.019557174,9.7970705,2,1683900780.3570924
-0.043540042,-0.0052624154,0.98132676,0.0005340576,-0.0004005432,0.0005340576,-0.43291464,-0.019557174,9.7970705,2,1683900780.3835597
-0.04402534,-0.0052624154,0.9827826,0.0005340576,0.0017356873,-0.0005340576,-0.43394497,-0.018713312,9.797027,2,1683900780.404146
-0.04402534,-0.0052624154,0.9827826,-0.0005340576,0.000667572,-0.0005340576,-0.43394497,-0.018713312,9.797027,2,1683900780.4092286
-0.04402534,-0.0052624154,0.9827826,-0.0005340576,0.000667572,-0.0005340576,-0.43394145,-0.018772637,9.797027,2,1683900780.414336
-0.04184151,-0.0011222442,0.9815694,-0.0005340576,0.000667572,-0.0005340576,-0.43394145,-0.018772637,9.797027,2,1683900780.424642
-0.04184151,-0.0011222442,0.9815694,0.0005340576,0.000667572,0.0005340576,-0.43394145,-0.018772637,9.797027,2,1683900780.4349322
-0.04305475,-0.000394302,0.9837684,0.0005340576,0.000667572,0.0005340576,-0.43394145,-0.018772637,9.797027,2,1683900780.4503076
-0.04305475,-0.000394302,0.9837684,0.0005340576,0.000667572,0.0005340576,-0.43371534,-0.018701453,9.797036,2,1683900780.4554088
-0.04305475,-0.000394302,0.9837684,0.0005340576,-0.0004005432,0.0005340576,-0.43371534,-0.018701453,9.797036,2,1683900780.4657102
-0.043297395,-0.001607539,0.98229736,0.0005340576,-0.0004005432,0.0005340576,-0.43371534,-0.018701453,9.797036,2,1683900780.4969215
-0.043297395,-0.001607539,0.98229736,0.0005340576,-0.0004005432,0.0005340576,-0.43368155,-0.018652396,9.797038,2,1683900780.5124028
-0.043297395,-0.001607539,0.98229736,0.0005340576,-0.0004005432,0.0005340576,-0.43341774,-0.018702714,9.7970495,2,1683900780.532967
-0.043297395,-0.004534473,0.98352575,0.0005340576,-0.0004005432,0.0005340576,-0.43341774,-0.018702714,9.7970495,2,1683900780.53814
-0.043297395,-0.004534473,0.98352575,0.0005340576,0.000667572,0.0005340576,-0.43341774,-0.018702714,9.7970495,2,1683900780.5484867
-0.04305475,-0.0020928339,0.98352575,0.0005340576,0.000667572,0.0005340576,-0.4337147,-0.01843749,9.797037,2,1683900780.559221
-0.042326804,-0.0011222442,0.98304045,0.0005340576,0.000667572,0.0005340576,-0.4337147,-0.01843749,9.797037,2,1683900780.56438
-0.042326804,-0.0011222442,0.98304045,0.0005340576,-0.0004005432,-0.0005340576,-0.4337147,-0.01843749,9.797037,2,1683900780.5747023
-0.042326804,-0.0011222442,0.98304045,0.0005340576,-0.0004005432,-0.0005340576,-0.434494,-0.018419221,9.797003,2,1683900780.5849714
-0.042326804,-0.0011222442,0.98304045,0.0005340576,-0.0004005432,0.0016021729,-0.434494,-0.018419221,9.797003,2,1683900780.590093
-0.04428315,-0.0052624154,0.9798557,0.0005340576,-0.0004005432,0.0016021729,-0.434494,-0.018419221,9.797003,2,1683900780.5952125
-0.04428315,-0.0052624154,0.9798557,0.0005340576,-0.0014686584,-0.0005340576,-0.434494,-0.018419221,9.797003,2,1683900780.6160407
-0.04428315,-0.0052624154,0.9798557,0.0005340576,-0.0014686584,-0.0005340576,-0.4347768,-0.018801235,9.796989,2,1683900780.621182
-0.042084157,-0.0018501864,0.9832831,0.0005340576,-0.0014686584,-0.0005340576,-0.4347768,-0.018801235,9.796989,2,1683900780.6366048
-0.042084157,-0.0018501864,0.9832831,0.0005340576,-0.0014686584,-0.0005340576,-0.43468112,-0.018773597,9.796993,2,1683900780.6468778
-0.042084157,-0.0018501864,0.9832831,0.0005340576,0.000667572,-0.0005340576,-0.43468112,-0.018773597,9.796993,2,1683900780.6572018
-0.043540042,0.00059145305,0.98229736,0.0005340576,0.000667572,-0.0005340576,-0.43468112,-0.018773597,9.796993,2,1683900780.6674552
-0.043540042,0.00059145305,0.98229736,0.0005340576,0.000667572,-0.0005340576,-0.4350847,-0.018743707,9.796976,2,1683900780.6725876
-0.043540042,0.00059145305,0.98229736,-0.0005340576,-0.0004005432,0.0005340576,-0.4350847,-0.018743707,9.796976,2,1683900780.6777167
-0.043540042,0.00059145305,0.98229736,0.0005340576,-0.0004005432,-0.0005340576,-0.4350847,-0.018743707,9.796976,2,1683900780.7088332
-0.043540042,0.00059145305,0.98229736,0.0005340576,-0.0004005432,-0.0005340576,-0.4350984,-0.019036435,9.796975,2,1683900780.7191885
-0.043540042,-0.0008795968,0.9820547,0.0005340576,-0.0004005432,-0.0005340576,-0.43506038,-0.018687492,9.796978,2,1683900780.7244117
-0.04402534,-0.0013648917,0.98084146,-0.0005340576,0.000667572,0.0016021729,-0.4344032,-0.018846106,9.797006,2,1683900780.7509665
-0.043297395,-0.0035638837,0.9827826,0.0005340576,-0.0004005432,0.0005340576,-0.4340205,-0.019142065,9.797023,2,1683900780.7605402
-0.040613107,-0.002820776,0.98181206,0.0005340576,-0.0004005432,0.0005340576,-0.4340205,-0.019142065,9.797023,2,1683900780.769426
-0.040613107,-0.002820776,0.98181206,0.0005340576,-0.0004005432,0.0005340576,-0.43382832,-0.019352524,9.797031,2,1683900780.7901697
-0.040613107,-0.002820776,0.98181206,0.0005340576,0.000667572,0.0005340576,-0.43382832,-0.019352524,9.797031,2,1683900780.800465
-0.042326804,-0.0033212362,0.98254,0.0005340576,0.000667572,0.0005340576,-0.43382832,-0.019352524,9.797031,2,1683900780.810731
-0.042326804,-0.0033212362,0.98254,0.0005340576,-0.0014686584,0.0005340576,-0.43382832,-0.019352524,9.797031,2,1683900780.8159223
-0.042326804,-0.0033212362,0.98254,0.0005340576,-0.0014686584,0.0005340576,-0.43335053,-0.019367289,9.797051,2,1683900780.8314314
-0.042326804,-0.0033212362,0.98254,0.0005340576,-0.0004005432,-0.0005340576,-0.4332377,-0.019456668,9.797056,2,1683900780.8573196
-0.043540042,-0.002820776,0.9798557,-0.0005340576,-0.0004005432,-0.0005340576,-0.43327758,-0.019450672,9.797054,2,1683900780.862526
-0.043540042,-0.002820776,0.9798557,0.0005340576,0.000667572,0.0005340576,-0.43327758,-0.019450672,9.797054,2,1683900780.867702
-0.043540042,-0.002820776,0.9798557,0.0005340576,0.000667572,0.0005340576,-0.43295667,-0.019433374,9.79707,2,1683900780.8883133
-0.041098405,-0.0038065312,0.98132676,0.0005340576,0.000667572,0.0005340576,-0.43295667,-0.019433374,9.79707,2,1683900780.8934753
-0.041098405,-0.0038065312,0.98132676,-0.0005340576,-0.0004005432,0.0005340576,-0.43295667,-0.019433374,9.79707,2,1683900780.9141004
-0.041098405,-0.0038065312,0.98132676,-0.0005340576,-0.0004005432,0.0005340576,-0.4329692,-0.01888994,9.79707,2,1683900780.919184
-0.04378269,-0.0018501864,0.98401105,-0.0005340576,-0.0004005432,0.0005340576,-0.4329692,-0.01888994,9.79707,2,1683900780.929414
-0.044768445,-0.0025781286,0.9820547,-0.0005340576,-0.0004005432,0.0005340576,-0.4329692,-0.01888994,9.79707,2,1683900780.955058
-0.044768445,-0.0025781286,0.9820547,-0.0005340576,-0.0014686584,-0.0005340576,-0.4329692,-0.01888994,9.79707,2,1683900780.965357
-0.044768445,-0.0025781286,0.9820547,-0.0005340576,-0.0014686584,-0.0005340576,-0.4329249,-0.018913198,9.797071,2,1683900780.9705367
-0.0428121,-0.0018501864,0.9827826,-0.0005340576,-0.0014686584,-0.0005340576,-0.4329249,-0.018913198,9.797071,2,1683900780.9757454
-0.0428121,-0.0018501864,0.9827826,0.0005340576,-0.0004005432,0.0005340576,-0.4329249,-0.018913198,9.797071,2,1683900780.9808724
-0.0428121,-0.0018501864,0.9827826,0.0005340576,-0.0004005432,0.0005340576,-0.43315133,-0.018926302,9.797061,2,1683900781.001606
-0.0428121,-0.0018501864,0.9827826,0.0005340576,-0.0004005432,0.0005340576,-0.433597,-0.018818213,9.797041,2,1683900781.032427
-0.044768445,-0.0013648917,0.9832831,0.0005340576,-0.0004005432,0.0005340576,-0.433597,-0.018818213,9.797041,2,1683900781.0375564
-0.044768445,-0.0013648917,0.9832831,-0.0005340576,0.000667572,0.0005340576,-0.433597,-0.018818213,9.797041,2,1683900781.0427666
-0.046967436,-0.0020928339,0.98254,-0.0005340576,0.000667572,0.0005340576,-0.433597,-0.018818213,9.797041,2,1683900781.06844
-0.046967436,-0.0020928339,0.98254,0.0005340576,-0.0004005432,-0.0005340576,-0.433597,-0.018818213,9.797041,2,1683900781.0735664
-0.046967436,-0.0020928339,0.98254,0.0005340576,-0.0004005432,-0.0005340576,-0.43404454,-0.019054463,9.797022,2,1683900781.078701
-0.04184151,-0.000394302,0.98009837,0.0005340576,-0.0004005432,-0.0005340576,-0.43404454,-0.019054463,9.797022,2,1683900781.104258
-0.04184151,-0.000394302,0.98009837,0.0005340576,-0.0004005432,-0.0005340576,-0.4337234,-0.019048518,9.797036,2,1683900781.1093936
-0.04184151,-0.000394302,0.98009837,0.0005340576,-0.0004005432,-0.0016021729,-0.4337234,-0.019048518,9.797036,2,1683900781.1144898
-0.04184151,-0.000394302,0.98009837,0.0005340576,-0.0004005432,-0.0016021729,-0.43354857,-0.019028096,9.797044,2,1683900781.1247373
-0.04184151,-0.000394302,0.98009837,-0.0005340576,-0.0004005432,0.0005340576,-0.43354857,-0.019028096,9.797044,2,1683900781.12987
-0.041598864,-0.0013648917,0.9820547,-0.0005340576,-0.0004005432,0.0005340576,-0.43354857,-0.019028096,9.797044,2,1683900781.1503713
-0.041598864,-0.0013648917,0.9820547,0.0016021729,-0.0004005432,0.0005340576,-0.43354857,-0.019028096,9.797044,2,1683900781.160608
-0.04525374,-0.002820776,0.98449636,0.0016021729,-0.0004005432,0.0005340576,-0.43354857,-0.019028096,9.797044,2,1683900781.1810381
-0.04525374,-0.002820776,0.98449636,0.0016021729,-0.0004005432,0.0005340576,-0.43383977,-0.018925168,9.79703,2,1683900781.1963189
-0.04525374,-0.002820776,0.98449636,-0.0005340576,0.000667572,0.0016021729,-0.43383977,-0.018925168,9.79703,2,1683900781.2116587
-0.043297395,0.0022899848,0.98352575,-0.0005340576,0.000667572,0.0016021729,-0.43383977,-0.018925168,9.79703,2,1683900781.2167525
-0.043297395,0.0022899848,0.98352575,-0.0005340576,0.000667572,0.0016021729,-0.433892,-0.018376375,9.7970295,2,1683900781.2218812
-0.043297395,0.0022899848,0.98352575,-0.0005340576,-0.0004005432,0.0005340576,-0.433892,-0.018376375,9.7970295,2,1683900781.227
-0.04378269,0.0008341004,0.9842537,-0.0005340576,-0.0004005432,0.0005340576,-0.433892,-0.018376375,9.7970295,2,1683900781.2372274
-0.04378269,0.0008341004,0.9842537,-0.0005340576,-0.0004005432,0.0005340576,-0.43389007,-0.018178532,9.79703,2,1683900781.2525373
-0.04378269,0.0008341004,0.9842537,-0.0005340576,-0.0004005432,0.0005340576,-0.43433133,-0.017773062,9.79701,2,1683900781.262747
-0.04378269,0.0008341004,0.9842537,0.0005340576,0.000667572,0.0005340576,-0.43433133,-0.017773062,9.79701,2,1683900781.273006
-0.04622433,-0.00013648917,0.9820547,0.0005340576,0.000667572,0.0005340576,-0.43433133,-0.017773062,9.79701,2,1683900781.293483
-0.042569455,-0.002820776,0.9788851,0.0005340576,0.000667572,0.0005340576,-0.43433133,-0.017773062,9.79701,2,1683900781.3087947
-0.042569455,-0.002820776,0.9788851,0.0005340576,0.000667572,0.0005340576,-0.4342957,-0.017833598,9.797012,2,1683900781.3139405
-0.042569455,-0.002820776,0.9788851,0.0005340576,0.000667572,0.0016021729,-0.4342957,-0.017833598,9.797012,2,1683900781.3190744
-0.042569455,-0.002820776,0.9788851,0.0005340576,0.000667572,0.0016021729,-0.43462843,-0.017929193,9.796997,2,1683900781.3446481
-0.042326804,-0.0025781286,0.98084146,0.0005340576,0.000667572,0.0016021729,-0.43462843,-0.017929193,9.796997,2,1683900781.3549035
-0.042326804,-0.0025781286,0.98084146,0.0005340576,-0.0004005432,0.0005340576,-0.43462843,-0.017929193,9.796997,2,1683900781.375345
-0.04672479,-0.004534473,0.98084146,0.0005340576,-0.0004005432,0.0005340576,-0.43462843,-0.017929193,9.796997,2,1683900781.380475
-0.04672479,-0.004534473,0.98084146,0.0005340576,-0.0004005432,0.0005340576,-0.43452257,-0.01780708,9.797003,2,1683900781.3856053
-0.0428121,-0.0033212362,0.9842537,0.0005340576,-0.0004005432,0.0005340576,-0.43452257,-0.01780708,9.797003,2,1683900781.3958278
-0.0428121,-0.0033212362,0.9842537,0.0005340576,-0.0004005432,0.0005340576,-0.43448606,-0.017961154,9.797004,2,1683900781.4060795
-0.0428121,-0.0033212362,0.9842537,-0.0005340576,0.000667572,-0.0005340576,-0.43448606,-0.017961154,9.797004,2,1683900781.421449
-0.0428121,-0.0033212362,0.9842537,0.0005340576,-0.0004005432,-0.0005340576,-0.43448606,-0.017961154,9.797004,2,1683900781.4419463
-0.0428121,-0.0033212362,0.9842537,0.0005340576,-0.0004005432,-0.0005340576,-0.43479446,-0.018189656,9.79699,2,1683900781.4470794
-0.04525374,-0.0038065312,0.98449636,0.0005340576,-0.0004005432,-0.0005340576,-0.43479446,-0.018189656,9.79699,2,1683900781.4522233
-0.04402534,-0.00013648917,0.9827826,0.0005340576,-0.0004005432,-0.0005340576,-0.43479446,-0.018189656,9.79699,2,1683900781.472694
-0.04402534,-0.00013648917,0.9827826,0.0005340576,-0.0004005432,0.0005340576,-0.43479446,-0.018189656,9.79699,2,1683900781.4880593
-0.04402534,-0.00013648917,0.9827826,0.0005340576,-0.0004005432,0.0005340576,-0.43481055,-0.018023012,9.796989,2,1683900781.493181
-0.04402534,-0.00013648917,0.9827826,0.0005340576,-0.0004005432,0.0005340576,-0.43463805,-0.017963171,9.796997,2,1683900781.5033572
-0.04402534,-0.00013648917,0.9827826,0.0005340576,0.000667572,-0.0005340576,-0.43463805,-0.017963171,9.796997,2,1683900781.5238051
-0.04134105,-0.001607539,0.98229736,0.0005340576,0.000667572,-0.0005340576,-0.43463805,-0.017963171,9.796997,2,1683900781.5391448
-0.04134105,-0.001607539,0.98229736,0.0005340576,0.000667572,0.0005340576,-0.43463805,-0.017963171,9.796997,2,1683900781.5493975
-0.04134105,-0.001607539,0.98229736,0.0005340576,0.000667572,0.0005340576,-0.43441075,-0.01789971,9.797008,2,1683900781.554523
-0.04134105,-0.001607539,0.98229736,-0.0016021729,0.000667572,0.0005340576,-0.43441075,-0.01789971,9.797008,2,1683900781.574986
-0.04305475,-0.0033212362,0.9815694,-0.0016021729,0.000667572,0.0005340576,-0.43441075,-0.01789971,9.797008,2,1683900781.5852065
-0.04305475,-0.0033212362,0.9815694,-0.0016021729,0.000667572,0.0005340576,-0.43440518,-0.018102618,9.797008,2,1683900781.5903358
-0.04184151,-0.0040491787,0.98084146,-0.0016021729,0.000667572,0.0005340576,-0.43440518,-0.018102618,9.797008,2,1683900781.6723294
-0.04184151,-0.0040491787,0.98084146,0.0005340576,0.000667572,-0.0005340576,-0.43440518,-0.018102618,9.797008,2,1683900781.68769
-0.04184151,-0.0040491787,0.98084146,0.0005340576,0.000667572,-0.0005340576,-0.4344868,-0.017966466,9.797004,2,1683900781.6979532
-0.04184151,-0.0040491787,0.98084146,0.0005340576,0.000667572,-0.0005340576,-0.43460122,-0.01778156,9.796999,2,1683900781.7235997
-0.04184151,-0.0040491787,0.98084146,0.0016021729,-0.0004005432,-0.0005340576,-0.43460122,-0.01778156,9.796999,2,1683900781.728727
-0.043297395,-0.000394302,0.98181206,0.0016021729,-0.0004005432,-0.0005340576,-0.43460122,-0.01778156,9.796999,2,1683900781.7389822
-0.043297395,-0.000394302,0.98181206,-0.0005340576,-0.0004005432,0.0005340576,-0.43460122,-0.01778156,9.796999,2,1683900781.7543588
-0.0428121,-0.001607539,0.98254,-0.0005340576,-0.0004005432,0.0005340576,-0.43460122,-0.01778156,9.796999,2,1683900781.7594876
-0.0428121,-0.001607539,0.98254,-0.0005340576,-0.0004005432,0.0005340576,-0.43451843,-0.0177919,9.797002,2,1683900781.764581
-0.04305475,-0.002335481,0.9788851,-0.0005340576,-0.0004005432,0.0005340576,-0.43451843,-0.0177919,9.797002,2,1683900781.790184
-0.04305475,-0.002335481,0.9788851,-0.0005340576,-0.0004005432,0.0005340576,-0.43422532,-0.01789712,9.797016,2,1683900781.8004034
-0.04378269,-0.005019768,0.98084146,-0.0005340576,-0.0004005432,0.0005340576,-0.43422532,-0.01789712,9.797016,2,1683900781.8311436
-0.04378269,-0.005019768,0.98084146,-0.0005340576,-0.0004005432,0.0005340576,-0.43407536,-0.018156964,9.797021,2,1683900781.8465483
-0.04378269,-0.005019768,0.98084146,-0.0005340576,0.000667572,0.0016021729,-0.43407536,-0.018156964,9.797021,2,1683900781.8619058
-0.04134105,-0.000394302,0.9832831,-0.0005340576,0.000667572,0.0016021729,-0.43407536,-0.018156964,9.797021,2,1683900781.8669934
-0.04134105,-0.000394302,0.9832831,-0.0005340576,-0.0004005432,-0.0005340576,-0.43407536,-0.018156964,9.797021,2,1683900781.8772416
-0.04134105,-0.000394302,0.9832831,-0.0005340576,-0.0004005432,-0.0005340576,-0.43390545,-0.017912434,9.7970295,2,1683900781.902858
-0.04305475,0.00059145305,0.98304045,-0.0005340576,-0.0004005432,-0.0005340576,-0.43390545,-0.017912434,9.7970295,2,1683900781.9079776
-0.04305475,0.00059145305,0.98304045,0.0005340576,0.000667572,0.0005340576,-0.43390545,-0.017912434,9.7970295,2,1683900781.9182336
-0.04305475,0.00059145305,0.98304045,0.0005340576,0.000667572,0.0005340576,-0.4338602,-0.017747981,9.797032,2,1683900781.9284103
-0.042569455,-0.00013648917,0.98254,0.0005340576,0.000667572,0.0005340576,-0.4338602,-0.017747981,9.797032,2,1683900781.9437928
-0.042569455,-0.00013648917,0.98254,0.0005340576,-0.0004005432,0.0005340576,-0.4338602,-0.017747981,9.797032,2,1683900781.9694464
-0.042084157,-0.0020928339,0.9832831,0.0005340576,-0.0004005432,0.0005340576,-0.4338602,-0.017747981,9.797032,2,1683900781.974575
-0.042084157,-0.0020928339,0.9832831,0.0005340576,-0.0004005432,0.0005340576,-0.43413457,-0.017689621,9.79702,2,1683900781.9796987
-0.042084157,-0.0020928339,0.9832831,0.0005340576,-0.0004005432,0.0005340576,-0.4344194,-0.017870922,9.797007,2,1683900781.9899511
-0.043540042,-0.0035638837,0.98132676,0.0005340576,-0.0004005432,0.0005340576,-0.4344194,-0.017870922,9.797007,2,1683900782.0001411
-0.043540042,-0.0035638837,0.98132676,0.0005340576,0.000667572,-0.0016021729,-0.4344194,-0.017870922,9.797007,2,1683900782.0206354
-0.04549639,-0.0008795968,0.98181206,0.0005340576,0.000667572,-0.0016021729,-0.4344194,-0.017870922,9.797007,2,1683900782.041152
-0.04549639,-0.0008795968,0.98181206,0.0005340576,0.000667572,-0.0016021729,-0.43459937,-0.01789144,9.796999,2,1683900782.0462823
-0.04549639,-0.0008795968,0.98181206,-0.0005340576,0.000667572,-0.0005340576,-0.43459937,-0.01789144,9.796999,2,1683900782.071874
-0.04549639,-0.0008795968,0.98181206,-0.0005340576,0.000667572,-0.0005340576,-0.43472886,-0.018367454,9.796992,2,1683900782.0769982
-0.042326804,-0.002820776,0.9788851,-0.0005340576,0.000667572,-0.0005340576,-0.43472886,-0.018367454,9.796992,2,1683900782.0871935
-0.0445258,-0.0038065312,0.9815694,-0.0005340576,0.000667572,-0.0005340576,-0.43472886,-0.018367454,9.796992,2,1683900782.102568
-0.0445258,-0.0038065312,0.9815694,-0.0005340576,0.000667572,-0.0005340576,-0.43479043,-0.01850608,9.796989,2,1683900782.1127963
-0.0445258,-0.0038065312,0.9815694,0.0005340576,-0.0004005432,-0.0005340576,-0.43479043,-0.01850608,9.796989,2,1683900782.1179204
-0.042084157,0.0015620426,0.9815694,0.0005340576,-0.0004005432,-0.0005340576,-0.43479043,-0.01850608,9.796989,2,1683900782.1434903
-0.042084157,0.0015620426,0.9815694,0.0005340576,-0.0014686584,-0.0005340576,-0.43479043,-0.01850608,9.796989,2,1683900782.1486356
-0.042084157,0.0015620426,0.9815694,0.0005340576,-0.0014686584,-0.0005340576,-0.4346717,-0.01816308,9.796995,2,1683900782.1537242
-0.042084157,0.0015620426,0.9815694,0.0005340576,-0.0014686584,-0.0005340576,-0.43573257,-0.017740203,9.796949,2,1683900782.163933
-0.042084157,0.0015620426,0.9815694,0.0005340576,0.000667572,-0.0016021729,-0.43573257,-0.017740203,9.796949,2,1683900782.174247
-0.042084157,0.0015620426,0.9815694,0.0005340576,0.000667572,0.0005340576,-0.43573257,-0.017740203,9.796949,2,1683900782.189593
-0.04378269,-0.0011222442,0.98181206,0.0005340576,0.000667572,0.0005340576,-0.43573257,-0.017740203,9.796949,2,1683900782.1947281
-0.04378269,-0.0011222442,0.98181206,0.0005340576,0.000667572,0.0005340576,-0.43570057,-0.018274844,9.796949,2,1683900782.2100809
-0.04378269,-0.0011222442,0.98181206,0.0005340576,0.000667572,0.0005340576,-0.43559042,-0.018240144,9.796954,2,1683900782.220402
-0.04378269,-0.0011222442,0.98181206,0.0005340576,0.000667572,-0.0005340576,-0.43559042,-0.018240144,9.796954,2,1683900782.2255352
-0.042326804,-0.001607539,0.98084146,0.0005340576,0.000667572,-0.0005340576,-0.43559042,-0.018240144,9.796954,2,1683900782.240887
-0.042326804,-0.001607539,0.98084146,0.0016021729,-0.0004005432,0.0005340576,-0.43559042,-0.018240144,9.796954,2,1683900782.2511473
-0.042326804,-0.001607539,0.98084146,0.0016021729,-0.0004005432,0.0005340576,-0.4355548,-0.018041076,9.796956,2,1683900782.2665327
-0.043297395,-0.001607539,0.98304045,-0.0005340576,-0.0004005432,-0.0005340576,-0.43524706,-0.018181907,9.79697,2,1683900782.2717748
-0.043297395,-0.001607539,0.98304045,0.0005340576,0.000667572,0.0005340576,-0.4351747,-0.018208412,9.796973,2,1683900782.2769516
-0.043297395,-0.001607539,0.98304045,0.0005340576,0.000667572,0.0005340576,-0.4350434,-0.018597951,9.796978,2,1683900782.2821233
-0.043297395,-0.001607539,0.98304045,-0.0005340576,-0.0004005432,-0.0005340576,-0.4350434,-0.018597951,9.796978,2,1683900782.2821336
-0.04305475,-0.0057628755,0.98132676,-0.0005340576,-0.0004005432,-0.0005340576,-0.4350434,-0.018597951,9.796978,2,1683900782.2871988
-0.04305475,-0.0057628755,0.98132676,0.0016021729,-0.0004005432,0.0005340576,-0.4350434,-0.018597951,9.796978,2,1683900782.2974548
-0.04305475,-0.0057628755,0.98132676,0.0016021729,-0.0004005432,0.0005340576,-0.43485895,-0.017605206,9.796988,2,1683900782.3025794
-0.043540042,-0.002820776,0.9820547,0.0016021729,-0.0004005432,0.0005340576,-0.43485895,-0.017605206,9.796988,2,1683900782.3128474
-0.04428315,-0.0025781286,0.9827826,0.0016021729,-0.0004005432,0.0005340576,-0.43485895,-0.017605206,9.796988,2,1683900782.317974
-0.04428315,-0.0025781286,0.9827826,0.0016021729,-0.0004005432,-0.0005340576,-0.43485895,-0.017605206,9.796988,2,1683900782.3282092
-0.04428315,-0.0025781286,0.9827826,0.0016021729,-0.0004005432,-0.0005340576,-0.43461186,-0.017742462,9.796998,2,1683900782.3487155
-0.04428315,-0.0025781286,0.9827826,0.0016021729,-0.0004005432,-0.0005340576,-0.43455932,-0.017620567,9.797001,2,1683900782.358974
-0.04428315,-0.0025781286,0.9827826,0.0016021729,0.000667572,-0.0016021729,-0.43455932,-0.017620567,9.797001,2,1683900782.3794677
-0.044768445,-0.0062481705,0.98304045,0.0016021729,0.000667572,-0.0016021729,-0.43455932,-0.017620567,9.797001,2,1683900782.3896964
-0.044768445,-0.0062481705,0.98304045,0.0016021729,0.000667572,-0.0016021729,-0.43478936,-0.01781184,9.79699,2,1683900782.3999493
-0.043540042,-0.0008795968,0.9832831,0.0016021729,0.000667572,-0.0016021729,-0.43478936,-0.01781184,9.79699,2,1683900782.4204202
-0.043540042,-0.0008795968,0.9832831,0.0005340576,-0.0004005432,-0.0016021729,-0.43478936,-0.01781184,9.79699,2,1683900782.4358206
-0.043540042,-0.0008795968,0.9832831,0.0005340576,-0.0004005432,-0.0016021729,-0.43484184,-0.017421154,9.7969885,2,1683900782.4409463
-0.043540042,-0.0008795968,0.9832831,0.0005340576,-0.0004005432,-0.0016021729,-0.43508992,-0.017404933,9.796979,2,1683900782.4562929
-0.043540042,-0.0008795968,0.9832831,0.0005340576,0.000667572,0.0005340576,-0.43508992,-0.017404933,9.796979,2,1683900782.4716358
-0.046466976,-0.0018501864,0.9815694,0.0005340576,0.000667572,0.0005340576,-0.43508992,-0.017404933,9.796979,2,1683900782.4767659
-0.046466976,-0.0018501864,0.9815694,0.0005340576,0.000667572,-0.0005340576,-0.43508992,-0.017404933,9.796979,2,1683900782.4921114
-0.040855754,-0.004291826,0.98401105,0.0005340576,0.000667572,-0.0005340576,-0.43508992,-0.017404933,9.796979,2,1683900782.5023668
-0.040855754,-0.004291826,0.98401105,0.0005340576,0.000667572,-0.0005340576,-0.43500623,-0.017513521,9.796983,2,1683900782.512617
-0.040855754,-0.004291826,0.98401105,0.0005340576,0.000667572,-0.0005340576,-0.434969,-0.017647987,9.796984,2,1683900782.5280051
-0.0428121,-0.0062481705,0.980341,0.0005340576,0.000667572,-0.0005340576,-0.434969,-0.017647987,9.796984,2,1683900782.5331326
-0.0428121,-0.0062481705,0.980341,0.0016021729,0.000667572,-0.0005340576,-0.434969,-0.017647987,9.796984,2,1683900782.5484762
-0.0428121,-0.0062481705,0.980341,0.0016021729,0.000667572,-0.0005340576,-0.43478674,-0.017650137,9.79699,2,1683900782.5843132
-0.04305475,-0.001607539,0.9827826,0.0016021729,0.000667572,-0.0005340576,-0.43478674,-0.017650137,9.79699,2,1683900782.5996413
-0.04305475,-0.001607539,0.9827826,-0.0005340576,-0.0014686584,0.0016021729,-0.43478674,-0.017650137,9.79699,2,1683900782.6047697
-0.04305475,-0.001607539,0.9827826,-0.0005340576,-0.0014686584,0.0016021729,-0.4344015,-0.017818347,9.7970085,2,1683900782.6252418
-0.042084157,-0.002335481,0.9815694,-0.0005340576,-0.0014686584,0.0016021729,-0.4344015,-0.017818347,9.7970085,2,1683900782.6354609
-0.042084157,-0.002335481,0.9815694,0.0005340576,-0.0004005432,-0.0005340576,-0.4344015,-0.017818347,9.7970085,2,1683900782.6405911
-0.042084157,-0.002335481,0.9815694,0.0005340576,0.000667572,-0.0005340576,-0.4344015,-0.017818347,9.7970085,2,1683900782.6508517
-0.042084157,-0.002335481,0.9815694,0.0005340576,0.000667572,-0.0005340576,-0.43431515,-0.017839758,9.797011,2,1683900782.6764627
-0.042084157,-0.002335481,0.9815694,0.0005340576,0.000667572,-0.0005340576,-0.434437,-0.018069625,9.797006,2,1683900782.7071767
-0.042326804,-0.0020928339,0.98352575,0.0005340576,0.000667572,-0.0005340576,-0.434437,-0.018069625,9.797006,2,1683900782.7123096
-0.042326804,-0.0020928339,0.98352575,0.0005340576,0.000667572,-0.0005340576,-0.4344572,-0.01800719,9.797005,2,1683900782.7225852
-0.042326804,-0.0020928339,0.98352575,-0.0005340576,-0.0004005432,-0.0005340576,-0.4344572,-0.01800719,9.797005,2,1683900782.7277164
-0.04525374,-0.0018501864,0.98254,-0.0005340576,-0.0004005432,-0.0005340576,-0.4344572,-0.01800719,9.797005,2,1683900782.7379751
-0.04525374,-0.0018501864,0.98254,-0.0005340576,-0.0004005432,0.0005340576,-0.4344572,-0.01800719,9.797005,2,1683900782.758514
-0.042084157,0.00010615824,0.98254,-0.0005340576,-0.0004005432,0.0005340576,-0.4344572,-0.01800719,9.797005,2,1683900782.7687767
-0.042084157,0.00010615824,0.98254,-0.0005340576,-0.0004005432,0.0005340576,-0.43431506,-0.017873714,9.797011,2,1683900782.7790275
-0.042084157,0.00010615824,0.98254,0.0005340576,0.000667572,0.0005340576,-0.43431506,-0.017873714,9.797011,2,1683900782.8047264
-0.042084157,0.00010615824,0.98254,0.0005340576,0.000667572,0.0005340576,-0.43414292,-0.018061263,9.797019,2,1683900782.814989
-0.040855754,-0.0025781286,0.98181206,0.0005340576,0.000667572,0.0005340576,-0.43414292,-0.018061263,9.797019,2,1683900782.8201277
-0.040855754,-0.0025781286,0.98181206,0.0005340576,-0.0004005432,0.0005340576,-0.43414292,-0.018061263,9.797019,2,1683900782.85089
-0.040855754,-0.0025781286,0.98181206,0.0005340576,-0.0004005432,0.0005340576,-0.43440133,-0.017575022,9.7970085,2,1683900782.8559911
-0.044768445,-0.0011222442,0.9837684,0.0005340576,-0.0004005432,0.0005340576,-0.43440133,-0.017575022,9.7970085,2,1683900782.8713026
-0.044768445,-0.0011222442,0.9837684,0.0005340576,-0.0004005432,0.0005340576,-0.43436822,-0.017693942,9.797009,2,1683900782.90204
-0.044768445,-0.0011222442,0.9837684,0.0005340576,0.000667572,0.0005340576,-0.43436822,-0.017693942,9.797009,2,1683900782.9123037
-0.04378269,-0.0033212362,0.98084146,0.0005340576,0.000667572,0.0005340576,-0.43436822,-0.017693942,9.797009,2,1683900782.917442
-0.04378269,-0.0033212362,0.98084146,0.0005340576,-0.0014686584,-0.0005340576,-0.43436822,-0.017693942,9.797009,2,1683900782.943045
-0.04378269,-0.0033212362,0.98084146,0.0005340576,-0.0014686584,-0.0005340576,-0.4343023,-0.017513614,9.797013,2,1683900782.9481785
-0.043540042,0.00010615824,0.9810841,0.0005340576,-0.0014686584,-0.0005340576,-0.4343023,-0.017513614,9.797013,2,1683900782.9532707
-0.043540042,0.00010615824,0.9810841,0.0005340576,-0.0014686584,-0.0005340576,-0.43415833,-0.017699892,9.797019,2,1683900782.9584086
-0.042326804,-0.0035638837,0.98473895,0.0005340576,-0.0014686584,-0.0005340576,-0.43415833,-0.017699892,9.797019,2,1683900782.963554
-0.042326804,-0.0035638837,0.98473895,-0.0005340576,0.000667572,0.0016021729,-0.43415833,-0.017699892,9.797019,2,1683900782.9686809
-0.042326804,-0.0035638837,0.98473895,0.0005340576,0.000667572,0.0005340576,-0.43415833,-0.017699892,9.797019,2,1683900783.0199714
-0.041598864,-0.0011222442,0.98304045,0.0005340576,0.000667572,0.0005340576,-0.43415833,-0.017699892,9.797019,2,1683900783.0250869
-0.041598864,-0.0011222442,0.98304045,0.0005340576,0.000667572,0.0005340576,-0.43391347,-0.017241083,9.797031,2,1683900783.0353794
-0.041598864,-0.0011222442,0.98304045,-0.0005340576,0.000667572,0.0016021729,-0.43391347,-0.017241083,9.797031,2,1683900783.055948
-0.043540042,-0.00013648917,0.98229736,-0.0005340576,0.000667572,0.0016021729,-0.43391347,-0.017241083,9.797031,2,1683900783.0610967
-0.043540042,-0.00013648917,0.98229736,-0.0005340576,0.000667572,0.0016021729,-0.43382305,-0.017206777,9.797035,2,1683900783.086837
-0.043540042,-0.00013648917,0.98229736,-0.0005340576,0.000667572,0.0016021729,-0.43371084,-0.017445229,9.79704,2,1683900783.091972
-0.042326804,-0.004291826,0.98132676,-0.0005340576,0.000667572,0.0016021729,-0.43371084,-0.017445229,9.79704,2,1683900783.1124892
-0.042326804,-0.004291826,0.98132676,-0.0005340576,0.000667572,0.0016021729,-0.43336037,-0.017651772,9.797054,2,1683900783.1279101
-0.042326804,-0.004291826,0.98132676,-0.0005340576,-0.0004005432,0.0005340576,-0.43336037,-0.017651772,9.797054,2,1683900783.1381867
-0.04305475,-0.00063694944,0.98401105,-0.0005340576,-0.0004005432,0.0005340576,-0.43336037,-0.017651772,9.797054,2,1683900783.1433
-0.04305475,-0.00063694944,0.98401105,-0.0005340576,-0.0004005432,0.0005340576,-0.43338013,-0.017682765,9.797053,2,1683900783.1897135
-0.043297395,-0.002820776,0.9832831,-0.0005340576,-0.0004005432,0.0005340576,-0.43338013,-0.017682765,9.797053,2,1683900783.2103639
-0.046967436,-0.0038065312,0.98254,0.0005340576,-0.0004005432,-0.0005340576,-0.43357655,-0.018059503,9.797045,2,1683900783.236187
-0.042326804,-0.0038065312,0.98229736,0.0005340576,-0.0004005432,-0.0005340576,-0.43346274,-0.018200442,9.797049,2,1683900783.2414198
-0.042326804,-0.0038065312,0.98229736,0.0005340576,-0.0004005432,-0.0005340576,-0.4331531,-0.01837908,9.797062,2,1683900783.2684188
-0.041098405,-0.0008795968,0.98254,0.0005340576,-0.0004005432,-0.0005340576,-0.4331531,-0.01837908,9.797062,2,1683900783.2735603
-0.041098405,-0.0008795968,0.98254,0.0005340576,-0.0004005432,-0.0005340576,-0.43322688,-0.018210832,9.797059,2,1683900783.2991843
-0.041098405,-0.0008795968,0.98254,0.0005340576,-0.0004005432,0.0005340576,-0.43322688,-0.018210832,9.797059,2,1683900783.3094318
-0.0445258,-0.00013648917,0.98181206,0.0005340576,-0.0004005432,0.0005340576,-0.43322688,-0.018210832,9.797059,2,1683900783.3145459
-0.0445258,-0.00013648917,0.98181206,0.0005340576,0.000667572,0.0005340576,-0.43322688,-0.018210832,9.797059,2,1683900783.3401158
-0.042569455,-0.002335481,0.9820547,0.0005340576,0.000667572,0.0005340576,-0.43322688,-0.018210832,9.797059,2,1683900783.3452404
-0.042569455,-0.002335481,0.9820547,-0.0005340576,-0.0004005432,-0.0005340576,-0.43322688,-0.018210832,9.797059,2,1683900783.3760073
-0.0428121,0.0044889767,0.98084146,-0.0005340576,-0.0004005432,-0.0005340576,-0.43322688,-0.018210832,9.797059,2,1683900783.3862867
-0.0428121,0.0044889767,0.98084146,-0.0005340576,-0.0004005432,-0.0005340576,-0.4350971,-0.017696805,9.796977,2,1683900783.3965414
-0.0428121,0.0044889767,0.98084146,-0.0005340576,-0.0004005432,-0.0005340576,-0.43510807,-0.017669909,9.796978,2,1683900783.4067287
-0.0428121,0.0044889767,0.98084146,0.0005340576,-0.0004005432,-0.0005340576,-0.43510807,-0.017669909,9.796978,2,1683900783.4118214
-0.0428121,0.0044889767,0.98084146,0.0005340576,-0.0004005432,-0.0005340576,-0.4350971,-0.017696805,9.796977,2,1683900783.422076
-0.044768445,-0.002335481,0.98473895,0.0005340576,-0.0004005432,-0.0005340576,-0.4350971,-0.017696805,9.796977,2,1683900783.4323294
-0.044768445,-0.002335481,0.98473895,-0.0005340576,-0.0004005432,-0.0005340576,-0.4350971,-0.017696805,9.796977,2,1683900783.4425895
-0.040127814,-0.005019768,0.98254,-0.0005340576,-0.0004005432,-0.0005340576,-0.4350971,-0.017696805,9.796977,2,1683900783.457982
-0.040127814,-0.005019768,0.98254,-0.0005340576,-0.0004005432,-0.0005340576,-0.4348615,-0.01809928,9.796987,2,1683900783.4887686
-0.042569455,-0.001607539,0.98401105,-0.0005340576,-0.0004005432,-0.0005340576,-0.4348615,-0.01809928,9.796987,2,1683900783.4990163
-0.042569455,-0.001607539,0.98401105,-0.0005340576,-0.0004005432,-0.0005340576,-0.43438792,-0.01815484,9.7970085,2,1683900783.5092735
-0.0428121,0.00010615824,0.9815694,-0.0005340576,-0.0004005432,-0.0005340576,-0.43438792,-0.01815484,9.7970085,2,1683900783.545117
-0.0428121,0.00010615824,0.9815694,0.0005340576,-0.0014686584,0.0005340576,-0.43438792,-0.01815484,9.7970085,2,1683900783.550214
-0.0428121,0.00010615824,0.9815694,0.0005340576,-0.0014686584,0.0005340576,-0.43425974,-0.017968528,9.797014,2,1683900783.5553093
-0.0428121,0.00010615824,0.9815694,0.0005340576,-0.0004005432,-0.0005340576,-0.43425974,-0.017968528,9.797014,2,1683900783.580928
-0.0428121,0.00010615824,0.9815694,0.0005340576,-0.0004005432,0.0005340576,-0.43425974,-0.017968528,9.797014,2,1683900783.5963013
-0.044768445,-0.001607539,0.98304045,0.0005340576,-0.0004005432,0.0005340576,-0.43425974,-0.017968528,9.797014,2,1683900783.6014404
-0.044768445,-0.001607539,0.98304045,0.0005340576,-0.0004005432,0.0005340576,-0.4339279,-0.017691657,9.7970295,2,1683900783.6116643
-0.044768445,-0.001607539,0.98304045,0.0005340576,-0.0004005432,0.0005340576,-0.4339956,-0.017652923,9.797027,2,1683900783.6167922
-0.044768445,-0.001607539,0.98304045,0.0005340576,-0.0004005432,0.0016021729,-0.4339956,-0.017652923,9.797027,2,1683900783.6372688
-0.044768445,-0.001607539,0.98304045,0.0005340576,-0.0004005432,0.0016021729,-0.4346695,-0.018295707,9.796995,2,1683900783.6423979
-0.045981683,-0.0052624154,0.9827826,0.0005340576,-0.0004005432,0.0016021729,-0.4346695,-0.018295707,9.796995,2,1683900783.6577446
-0.045981683,-0.0052624154,0.9827826,0.0005340576,0.000667572,0.0016021729,-0.4346695,-0.018295707,9.796995,2,1683900783.6679766
-0.042326804,-0.0008795968,0.9837684,0.0005340576,0.000667572,0.0016021729,-0.4346695,-0.018295707,9.796995,2,1683900783.6833434
-0.042326804,-0.0008795968,0.9837684,0.0005340576,0.000667572,0.0016021729,-0.43459317,-0.018186644,9.796999,2,1683900783.6935642
-0.042326804,-0.0008795968,0.9837684,0.0005340576,0.000667572,-0.0005340576,-0.43459317,-0.018186644,9.796999,2,1683900783.7140815
-0.045981683,0.0008341004,0.98229736,0.0005340576,0.000667572,-0.0005340576,-0.43459317,-0.018186644,9.796999,2,1683900783.7192051
-0.045981683,0.0008341004,0.98229736,0.0005340576,0.000667572,-0.0005340576,-0.43500394,-0.018014194,9.796981,2,1683900783.729426
-0.045981683,0.0008341004,0.98229736,0.0005340576,0.000667572,0.0005340576,-0.43500394,-0.018014194,9.796981,2,1683900783.749892
-0.042326804,-0.00063694944,0.98449636,0.0005340576,0.000667572,0.0005340576,-0.43500394,-0.018014194,9.796981,2,1683900783.7550273
-0.042326804,-0.00063694944,0.98449636,0.0005340576,0.000667572,0.0005340576,-0.4351473,-0.018193712,9.796974,2,1683900783.760163
-0.043297395,-0.002820776,0.9827826,0.0005340576,0.000667572,0.0005340576,-0.4351473,-0.018193712,9.796974,2,1683900783.7755094
-0.043297395,-0.002820776,0.9827826,0.0005340576,0.000667572,0.0005340576,-0.43520778,-0.018074369,9.796972,2,1683900783.7857594
-0.043297395,-0.002820776,0.9827826,0.0016021729,0.000667572,-0.0005340576,-0.43520778,-0.018074369,9.796972,2,1683900783.7908938
-0.04525374,-0.004534473,0.98009837,0.0016021729,0.000667572,-0.0005340576,-0.43520778,-0.018074369,9.796972,2,1683900783.8114047
-0.04525374,-0.004534473,0.98009837,0.0016021729,0.000667572,-0.0005340576,-0.43533444,-0.01846595,9.796965,2,1683900783.8165286
-0.04525374,-0.004534473,0.98009837,-0.002670288,0.000667572,0.0005340576,-0.43533444,-0.01846595,9.796965,2,1683900783.826783
-0.04428315,-0.002820776,0.9842537,-0.002670288,0.000667572,0.0005340576,-0.43533444,-0.01846595,9.796965,2,1683900783.847251
-0.04428315,-0.002820776,0.9842537,-0.002670288,0.000667572,0.0005340576,-0.43530953,-0.018625854,9.796967,2,1683900783.8625684
-0.04428315,-0.002820776,0.9842537,-0.0016021729,-0.0014686584,-0.0005340576,-0.43530953,-0.018625854,9.796967,2,1683900783.8677018
-0.041598864,-0.0013648917,0.9820547,-0.0016021729,-0.0014686584,-0.0005340576,-0.43530953,-0.018625854,9.796967,2,1683900783.8882265
-0.041598864,-0.0013648917,0.9820547,-0.0016021729,-0.0004005432,-0.0005340576,-0.43530953,-0.018625854,9.796967,2,1683900783.898489
-0.041598864,-0.0013648917,0.9820547,0.0005340576,-0.0004005432,-0.0005340576,-0.43530953,-0.018625854,9.796967,2,1683900783.90362
-0.041598864,-0.0013648917,0.9820547,0.0005340576,-0.0004005432,-0.0005340576,-0.4349298,-0.01759227,9.796986,2,1683900783.9138784
-0.0445258,-0.0008795968,0.98181206,0.0005340576,-0.0004005432,-0.0005340576,-0.4349298,-0.01759227,9.796986,2,1683900783.9292855
-0.046967436,-0.0013648917,0.9820547,0.0005340576,-0.0004005432,-0.0005340576,-0.4349298,-0.01759227,9.796986,2,1683900783.995976
-0.046967436,-0.0013648917,0.9820547,0.002670288,0.000667572,0.0005340576,-0.4349298,-0.01759227,9.796986,2,1683900784.0011117
-0.046967436,-0.0013648917,0.9820547,0.002670288,0.000667572,0.0005340576,-0.43476778,-0.017337983,9.796992,2,1683900784.0062795
-0.0445258,-0.0020928339,0.98401105,0.002670288,0.000667572,0.0005340576,-0.43476778,-0.017337983,9.796992,2,1683900784.0165422
-0.0445258,-0.0020928339,0.98401105,0.002670288,0.000667572,0.0005340576,-0.43520817,-0.01724733,9.796973,2,1683900784.0268524
-0.0445258,-0.0020928339,0.98401105,0.0005340576,0.0017356873,-0.0005340576,-0.43520817,-0.01724733,9.796973,2,1683900784.0319598
-0.042569455,-0.004291826,0.9827826,0.0005340576,0.0017356873,-0.0005340576,-0.43520817,-0.01724733,9.796973,2,1683900784.052568
-0.042569455,-0.004291826,0.9827826,0.0005340576,0.000667572,-0.0005340576,-0.43520817,-0.01724733,9.796973,2,1683900784.0731726
-0.042569455,-0.004291826,0.9827826,0.0005340576,0.000667572,-0.0005340576,-0.435151,-0.017435526,9.796975,2,1683900784.0783143
-0.043540042,-0.0011222442,0.98449636,0.0005340576,0.000667572,-0.0005340576,-0.435151,-0.017435526,9.796975,2,1683900784.0936337
-0.043540042,-0.0011222442,0.98449636,0.0005340576,0.000667572,-0.0005340576,-0.43516207,-0.01749688,9.796974,2,1683900784.114174
-0.04305475,-0.0018501864,0.98352575,0.0005340576,0.000667572,-0.0005340576,-0.43516207,-0.01749688,9.796974,2,1683900784.1244001
-0.04305475,-0.0018501864,0.98352575,0.0005340576,0.000667572,-0.0005340576,-0.4351952,-0.01752974,9.796974,2,1683900784.1295335
-0.04305475,-0.0018501864,0.98352575,-0.0005340576,0.0017356873,0.0005340576,-0.4351952,-0.01752974,9.796974,2,1683900784.1449182
-0.04305475,-0.0018501864,0.98352575,-0.0005340576,-0.0004005432,0.0005340576,-0.4351952,-0.01752974,9.796974,2,1683900784.16031
-0.04305475,-0.0018501864,0.98352575,-0.0005340576,-0.0004005432,0.0005340576,-0.43518808,-0.01753643,9.796973,2,1683900784.1705327
-0.04305475,-0.0018501864,0.98352575,-0.0005340576,-0.0004005432,0.0005340576,-0.43621042,-0.017410036,9.796928,2,1683900784.180745
-0.043297395,0.00034880562,0.98132676,-0.0005340576,-0.0004005432,0.0005340576,-0.43621042,-0.017410036,9.796928,2,1683900784.196091
-0.043297395,0.00034880562,0.98132676,0.0005340576,0.000667572,0.0005340576,-0.43621042,-0.017410036,9.796928,2,1683900784.2012162
-0.043297395,0.00034880562,0.98132676,0.0005340576,0.000667572,0.0005340576,-0.43616238,-0.016929973,9.796931,2,1683900784.2114718
-0.043297395,0.00034880562,0.98132676,-0.0005340576,-0.0004005432,0.0005340576,-0.43616238,-0.016929973,9.796931,2,1683900784.231976
-0.04525374,-0.0013648917,0.98181206,-0.0005340576,-0.0004005432,0.0005340576,-0.43616238,-0.016929973,9.796931,2,1683900784.2371094
-0.04525374,-0.0013648917,0.98181206,-0.0005340576,-0.0004005432,0.0005340576,-0.43627185,-0.016927058,9.7969265,2,1683900784.2526157
-0.04525374,-0.0013648917,0.98181206,0.0005340576,-0.0004005432,0.0005340576,-0.43511462,-0.016884556,9.796978,2,1683900784.2662094
-0.042569455,-0.0008795968,0.98449636,0.0005340576,-0.0004005432,0.0005340576,-0.43511462,-0.016884556,9.796978,2,1683900784.266234
-0.042569455,-0.0008795968,0.98449636,0.0005340576,-0.0004005432,0.0005340576,-0.43537584,-0.016844697,9.796967,2,1683900784.2836485
-0.042569455,-0.0008795968,0.98449636,-0.0005340576,-0.0004005432,0.0016021729,-0.43537584,-0.016844697,9.796967,2,1683900784.2939355
-0.042569455,-0.0008795968,0.98449636,0.0005340576,0.000667572,0.0005340576,-0.43537584,-0.016844697,9.796967,2,1683900784.30941
-0.042569455,-0.0008795968,0.98449636,0.0005340576,0.000667572,0.0005340576,-0.43484345,-0.016972145,9.796989,2,1683900784.31456
-0.042569455,-0.0020928339,0.9798557,0.0005340576,0.000667572,0.0005340576,-0.43484345,-0.016972145,9.796989,2,1683900784.3402288
-0.042569455,-0.0020928339,0.9798557,0.0005340576,0.000667572,0.0005340576,-0.4351625,-0.01691334,9.796976,2,1683900784.3710003
-0.042569455,-0.0020928339,0.9798557,-0.0005340576,0.000667572,-0.0005340576,-0.4351625,-0.01691334,9.796976,2,1683900784.3761363
-0.04184151,-0.0033212362,0.98132676,-0.0005340576,0.000667572,-0.0005340576,-0.4351625,-0.01691334,9.796976,2,1683900784.3863604
-0.04184151,-0.0033212362,0.98132676,-0.0005340576,0.000667572,-0.0005340576,-0.43522313,-0.01716496,9.796972,2,1683900784.3966327
-0.04184151,-0.0033212362,0.98132676,-0.0016021729,0.000667572,0.0005340576,-0.43522313,-0.01716496,9.796972,2,1683900784.4068863
-0.04184151,-0.0033212362,0.98132676,0.0005340576,0.000667572,-0.0005340576,-0.43522313,-0.01716496,9.796972,2,1683900784.4222736
-0.04184151,-0.0033212362,0.98132676,0.0005340576,0.000667572,-0.0005340576,-0.43531275,-0.017247528,9.796968,2,1683900784.4324872
-0.04378269,-0.0018501864,0.9820547,0.0005340576,0.000667572,-0.0005340576,-0.43531275,-0.017247528,9.796968,2,1683900784.4529533
-0.04378269,-0.0018501864,0.9820547,-0.0005340576,0.000667572,-0.0005340576,-0.43531275,-0.017247528,9.796968,2,1683900784.463205
-0.04402534,-0.0038065312,0.980341,-0.0005340576,0.000667572,-0.0005340576,-0.43531275,-0.017247528,9.796968,2,1683900784.4837267
-0.04402534,-0.0038065312,0.980341,-0.0005340576,0.000667572,-0.0005340576,-0.4354773,-0.017133567,9.796961,2,1683900784.4888582
-0.04402534,-0.0038065312,0.980341,-0.0005340576,0.000667572,0.0005340576,-0.4354773,-0.017133567,9.796961,2,1683900784.5196083
-0.042084157,-0.005019768,0.97912776,-0.0005340576,0.000667572,0.0005340576,-0.4354773,-0.017133567,9.796961,2,1683900784.5349877
-0.042084157,-0.005019768,0.97912776,-0.0005340576,-0.0014686584,-0.0005340576,-0.4354773,-0.017133567,9.796961,2,1683900784.5401206
-0.042084157,-0.005019768,0.97912776,-0.0005340576,-0.0014686584,-0.0005340576,-0.43539596,-0.017279375,9.796966,2,1683900784.555528
-0.042084157,-0.005019768,0.97912776,0.0005340576,0.000667572,-0.0005340576,-0.43539596,-0.017279375,9.796966,2,1683900784.5657892
-0.042084157,-0.005019768,0.97912776,0.0005340576,0.000667572,-0.0005340576,-0.43513602,-0.017457698,9.796976,2,1683900784.5862753
-0.0445258,-0.002335481,0.9820547,0.0005340576,0.000667572,-0.0005340576,-0.43513602,-0.017457698,9.796976,2,1683900784.5913987
-0.0445258,-0.002335481,0.9820547,0.0005340576,0.000667572,-0.0005340576,-0.4351886,-0.017471775,9.796974,2,1683900784.5965352
-0.042084157,-0.0018501864,0.98304045,0.0005340576,0.000667572,-0.0005340576,-0.4351886,-0.017471775,9.796974,2,1683900784.6169627
-0.042084157,-0.0018501864,0.98304045,0.0005340576,-0.0004005432,0.0005340576,-0.4351886,-0.017471775,9.796974,2,1683900784.6271317
-0.042084157,-0.0018501864,0.98304045,-0.0005340576,0.000667572,0.0005340576,-0.4351886,-0.017471775,9.796974,2,1683900784.6322525
-0.04549639,-0.00013648917,0.98229736,-0.0005340576,0.000667572,0.0005340576,-0.4351886,-0.017471775,9.796974,2,1683900784.6425123
-0.04549639,-0.00013648917,0.98229736,-0.0005340576,0.000667572,0.0005340576,-0.43532065,-0.0171856,9.796968,2,1683900784.6527593
-0.04549639,-0.00013648917,0.98229736,-0.0005340576,-0.0004005432,0.0005340576,-0.43532065,-0.0171856,9.796968,2,1683900784.6681068
-0.045981683,-0.002335481,0.98229736,-0.0005340576,-0.0004005432,0.0005340576,-0.43532065,-0.0171856,9.796968,2,1683900784.693674
-0.045981683,-0.002335481,0.98229736,-0.0005340576,-0.0004005432,0.0005340576,-0.43549597,-0.01726181,9.796961,2,1683900784.698804
-0.045981683,-0.002335481,0.98229736,-0.0005340576,-0.0004005432,0.0005340576,-0.43540612,-0.017560719,9.796965,2,1683900784.7039309
-0.0428121,-0.0013648917,0.9832831,-0.0005340576,-0.0004005432,0.0005340576,-0.43540612,-0.017560719,9.796965,2,1683900784.7141922
-0.044768445,-0.002820776,0.98132676,-0.0005340576,-0.0004005432,0.0005340576,-0.43540612,-0.017560719,9.796965,2,1683900784.7551966
-0.044768445,-0.002820776,0.98132676,0.0005340576,0.000667572,0.0016021729,-0.43540612,-0.017560719,9.796965,2,1683900784.7603297
-0.044768445,-0.002820776,0.98132676,0.0005340576,0.000667572,0.0016021729,-0.43543413,-0.017944641,9.796963,2,1683900784.765461
-0.044768445,-0.002820776,0.98132676,-0.0005340576,-0.0004005432,0.0005340576,-0.43543413,-0.017944641,9.796963,2,1683900784.780811
-0.044768445,-0.002820776,0.98132676,-0.0005340576,-0.0004005432,0.0005340576,-0.4354817,-0.01781148,9.796959,2,1683900784.785941
-0.0445258,0.00010615824,0.9837684,-0.0005340576,-0.0004005432,0.0005340576,-0.4354817,-0.01781148,9.796959,2,1683900784.7962048
-0.0445258,0.00010615824,0.9837684,0.0005340576,0.000667572,-0.0005340576,-0.4354817,-0.01781148,9.796959,2,1683900784.8167458
-0.0445258,0.00010615824,0.9837684,0.0005340576,0.000667572,-0.0005340576,-0.4354991,-0.017524963,9.796959,2,1683900784.8321385
-0.04378269,-0.0013648917,0.98084146,0.0005340576,0.000667572,-0.0005340576,-0.4354991,-0.017524963,9.796959,2,1683900784.837269
-0.04378269,-0.0013648917,0.98084146,0.0005340576,0.0017356873,0.0005340576,-0.4354991,-0.017524963,9.796959,2,1683900784.8424032
-0.04378269,-0.0013648917,0.98084146,0.0005340576,0.0017356873,0.0005340576,-0.43572214,-0.017526353,9.796949,2,1683900784.8475332
-0.04402534,-0.0011222442,0.98254,0.0005340576,0.0017356873,0.0005340576,-0.43572214,-0.017526353,9.796949,2,1683900784.8680484
-0.04402534,-0.0011222442,0.98254,0.0005340576,-0.0014686584,-0.0005340576,-0.43572214,-0.017526353,9.796949,2,1683900784.8783102
-0.04402534,-0.0011222442,0.98254,0.0005340576,-0.0014686584,-0.0005340576,-0.43564224,-0.01750956,9.796953,2,1683900784.8834376
-0.043540042,-0.0018501864,0.98181206,0.0005340576,-0.0014686584,-0.0005340576,-0.43564224,-0.01750956,9.796953,2,1683900784.9090443
-0.043540042,-0.0018501864,0.98181206,0.0005340576,-0.0014686584,-0.0005340576,-0.43554825,-0.017703421,9.796958,2,1683900784.9346118
-0.043540042,-0.0018501864,0.98181206,-0.0005340576,0.000667572,0.0016021729,-0.43554825,-0.017703421,9.796958,2,1683900784.9397395
-0.04525374,-0.003078589,0.98352575,-0.0005340576,0.000667572,0.0016021729,-0.43554825,-0.017703421,9.796958,2,1683900784.9448676
-0.04525374,-0.003078589,0.98352575,-0.0005340576,0.000667572,0.0016021729,-0.43566608,-0.017705943,9.796952,2,1683900784.9551299
-0.04402534,0.00010615824,0.98254,-0.0005340576,0.000667572,0.0016021729,-0.43566608,-0.017705943,9.796952,2,1683900784.960259
-0.04402534,0.00010615824,0.98254,-0.0005340576,-0.0004005432,-0.0005340576,-0.43566608,-0.017705943,9.796952,2,1683900784.9653955
-0.04402534,0.00010615824,0.98254,0.0005340576,0.000667572,-0.0005340576,-0.43566608,-0.017705943,9.796952,2,1683900785.0012703
-0.04525374,-0.0040491787,0.98572475,0.0005340576,0.000667572,-0.0005340576,-0.43566608,-0.017705943,9.796952,2,1683900785.0115433
-0.04525374,-0.0040491787,0.98572475,0.0005340576,0.000667572,-0.0005340576,-0.43595874,-0.017457543,9.79694,2,1683900785.0167086
-0.04525374,-0.0040491787,0.98572475,0.0005340576,-0.0004005432,-0.0005340576,-0.43595874,-0.017457543,9.79694,2,1683900785.0218673
-0.047452733,-0.0008795968,0.9815694,0.0005340576,-0.0004005432,-0.0005340576,-0.43595874,-0.017457543,9.79694,2,1683900785.0270295
-0.047452733,-0.0008795968,0.9815694,0.0005340576,-0.0004005432,-0.0005340576,-0.43634748,-0.016917536,9.796924,2,1683900785.0373445
-0.043540042,0.00034880562,0.9827826,0.0005340576,-0.0004005432,-0.0005340576,-0.43634748,-0.016917536,9.796924,2,1683900785.0579913
-0.043540042,0.00034880562,0.9827826,0.0005340576,-0.0004005432,-0.0005340576,-0.43631014,-0.01677266,9.796926,2,1683900785.0683281
-0.043540042,0.00034880562,0.9827826,-0.0005340576,-0.0004005432,0.0005340576,-0.43631014,-0.01677266,9.796926,2,1683900785.0734918
-0.042569455,0.00034880562,0.98009837,-0.0005340576,-0.0004005432,0.0005340576,-0.43631014,-0.01677266,9.796926,2,1683900785.1043453
-0.042569455,0.00034880562,0.98009837,-0.0005340576,-0.0004005432,0.0005340576,-0.43621668,-0.01633741,9.796929,2,1683900785.1146069
-0.042569455,0.00034880562,0.98009837,-0.0005340576,-0.0004005432,-0.0005340576,-0.43621668,-0.01633741,9.796929,2,1683900785.1249077
-0.042569455,0.00034880562,0.98009837,-0.0005340576,-0.0004005432,-0.0005340576,-0.43637756,-0.016380168,9.796922,2,1683900785.130068
-0.042569455,0.00034880562,0.98009837,-0.0005340576,0.000667572,0.0005340576,-0.43637756,-0.016380168,9.796922,2,1683900785.1506855
-0.042569455,-0.000394302,0.9832831,-0.0005340576,0.000667572,0.0005340576,-0.43637756,-0.016380168,9.796922,2,1683900785.1764054
-0.042569455,-0.000394302,0.9832831,-0.0005340576,0.000667572,0.0005340576,-0.43631262,-0.0164743,9.796926,2,1683900785.1815317
-0.042569455,-0.000394302,0.9832831,0.0005340576,-0.0004005432,0.0016021729,-0.43631262,-0.0164743,9.796926,2,1683900785.1917791
-0.042569455,-0.000394302,0.9832831,0.0005340576,-0.0004005432,0.0016021729,-0.43629932,-0.016414452,9.7969265,2,1683900785.202031
-0.042569455,-0.000394302,0.98181206,0.0005340576,-0.0004005432,0.0016021729,-0.43629932,-0.016414452,9.7969265,2,1683900785.2072048
-0.042569455,-0.000394302,0.98181206,0.0005340576,0.000667572,0.0005340576,-0.43629932,-0.016414452,9.7969265,2,1683900785.2380614
-0.042569455,-0.000394302,0.98181206,0.0005340576,0.000667572,0.0005340576,-0.43657094,-0.016375037,9.796914,2,1683900785.2483587
-0.042569455,-0.000394302,0.98181206,-0.0005340576,-0.0014686584,0.0005340576,-0.43657094,-0.016375037,9.796914,2,1683900785.2739632
-0.043297395,-0.0013648917,0.9815694,-0.0005340576,-0.0014686584,0.0005340576,-0.43657094,-0.016375037,9.796914,2,1683900785.279058
-0.043297395,-0.0013648917,0.9815694,-0.0005340576,-0.0014686584,0.0005340576,-0.43583035,-0.01609092,9.7969475,2,1683900785.284176
-0.043297395,-0.0013648917,0.9815694,-0.0005340576,-0.0004005432,-0.0005340576,-0.43583035,-0.01609092,9.7969475,2,1683900785.3562756
-0.040613107,-0.0040491787,0.9805988,-0.0005340576,-0.0004005432,-0.0005340576,-0.43583035,-0.01609092,9.7969475,2,1683900785.3614833
-0.040613107,-0.0040491787,0.9805988,-0.0005340576,-0.0004005432,-0.0005340576,-0.43513507,-0.016513437,9.796978,2,1683900785.3819883
-0.045981683,-0.002335481,0.98009837,-0.0005340576,-0.0004005432,-0.0005340576,-0.43513507,-0.016513437,9.796978,2,1683900785.3922472
-0.045981683,-0.002335481,0.98009837,0.0005340576,-0.0004005432,0.0016021729,-0.43513507,-0.016513437,9.796978,2,1683900785.3973818
-0.045981683,-0.002335481,0.98009837,0.0005340576,-0.0004005432,0.0016021729,-0.435141,-0.016783012,9.796976,2,1683900785.4025056
-0.045981683,-0.002335481,0.98009837,0.0005340576,-0.0004005432,-0.0005340576,-0.435141,-0.016783012,9.796976,2,1683900785.407636
-0.045981683,-0.002335481,0.98009837,0.0005340576,-0.0004005432,-0.0005340576,-0.43491197,-0.017137371,9.796987,2,1683900785.4127672
-0.041098405,-0.0062481705,0.98254,0.0005340576,-0.0004005432,-0.0005340576,-0.43491197,-0.017137371,9.796987,2,1683900785.4281662
-0.041098405,-0.0062481705,0.98254,0.0005340576,-0.0004005432,-0.0005340576,-0.43490037,-0.01725703,9.796988,2,1683900785.4486818
-0.04184151,-0.002335481,0.9832831,0.0005340576,-0.0004005432,-0.0005340576,-0.43490037,-0.01725703,9.796988,2,1683900785.4640691
-0.04184151,-0.002335481,0.9832831,-0.0005340576,-0.0004005432,0.0005340576,-0.43490037,-0.01725703,9.796988,2,1683900785.4691896
-0.04184151,-0.002335481,0.9832831,-0.0005340576,-0.0014686584,-0.0005340576,-0.43490037,-0.01725703,9.796988,2,1683900785.4947886
-0.0445258,-0.0052624154,0.98084146,-0.0005340576,-0.0014686584,-0.0005340576,-0.43490037,-0.01725703,9.796988,2,1683900785.5255418
-0.045981683,-0.0025781286,0.98304045,-0.0005340576,-0.0014686584,-0.0005340576,-0.43490037,-0.01725703,9.796988,2,1683900785.5409312
-0.045981683,-0.0025781286,0.98304045,0.0005340576,-0.0014686584,0.0016021729,-0.43490037,-0.01725703,9.796988,2,1683900785.5460634
-0.045981683,-0.0025781286,0.98304045,0.0005340576,-0.0014686584,0.0016021729,-0.4353618,-0.01758598,9.796966,2,1683900785.551194
-0.045981683,-0.0025781286,0.98304045,-0.0005340576,-0.0014686584,-0.0005340576,-0.4353618,-0.01758598,9.796966,2,1683900785.5563204
-0.045981683,-0.0025781286,0.98304045,-0.0005340576,-0.0014686584,-0.0005340576,-0.4352957,-0.017328108,9.796969,2,1683900785.5768254
-0.045981683,-0.0025781286,0.98304045,-0.0005340576,-0.0004005432,-0.0005340576,-0.4352957,-0.017328108,9.796969,2,1683900785.592216
-0.045981683,-0.0025781286,0.98304045,-0.0005340576,-0.0004005432,-0.0005340576,-0.43596378,-0.017559525,9.79694,2,1683900785.6024797
-0.045981683,-0.0025781286,0.98304045,-0.0005340576,-0.0014686584,-0.0005340576,-0.43596378,-0.017559525,9.79694,2,1683900785.6075692
-0.043297395,-0.00063694944,0.98132676,-0.0005340576,-0.0014686584,-0.0005340576,-0.43596378,-0.017559525,9.79694,2,1683900785.6177404
-0.043297395,-0.00063694944,0.98132676,-0.0005340576,-0.0014686584,-0.0005340576,-0.435914,-0.017629672,9.796941,2,1683900785.6330855
-0.043297395,-0.00063694944,0.98132676,0.0005340576,-0.0004005432,-0.0005340576,-0.435914,-0.017629672,9.796941,2,1683900785.6740994
-0.04184151,-0.0011222442,0.9827826,0.0005340576,-0.0004005432,-0.0005340576,-0.435914,-0.017629672,9.796941,2,1683900785.694561
-0.04184151,-0.0011222442,0.9827826,0.0005340576,-0.0004005432,-0.0005340576,-0.43494174,-0.0173933,9.796986,2,1683900785.6996915
-0.04184151,-0.0011222442,0.9827826,-0.0005340576,0.000667572,-0.0016021729,-0.43494174,-0.0173933,9.796986,2,1683900785.7355597
-0.041598864,-0.0067334655,0.98084146,-0.0005340576,0.000667572,-0.0016021729,-0.43494174,-0.0173933,9.796986,2,1683900785.7509418
-0.041598864,-0.0067334655,0.98084146,-0.0005340576,0.000667572,-0.0016021729,-0.43481296,-0.01783771,9.796989,2,1683900785.7560487
-0.041598864,-0.0067334655,0.98084146,0.0005340576,-0.0004005432,-0.0005340576,-0.43481296,-0.01783771,9.796989,2,1683900785.7713637
-0.042569455,-0.0020928339,0.98621005,0.0005340576,-0.0004005432,-0.0005340576,-0.43481296,-0.01783771,9.796989,2,1683900785.7866685
-0.042569455,-0.0020928339,0.98621005,0.0005340576,-0.0004005432,-0.0005340576,-0.43485618,-0.017889045,9.796988,2,1683900785.791812
-0.04134105,-0.0033212362,0.9827826,0.0005340576,-0.0004005432,-0.0005340576,-0.43485618,-0.017889045,9.796988,2,1683900785.8276658
-0.04134105,-0.0033212362,0.9827826,-0.0005340576,-0.0004005432,0.0016021729,-0.43485618,-0.017889045,9.796988,2,1683900785.8327603
-0.046466976,-0.00063694944,0.98473895,-0.0005340576,-0.0004005432,0.0016021729,-0.43485618,-0.017889045,9.796988,2,1683900785.8378904
-0.046466976,-0.00063694944,0.98473895,-0.0005340576,-0.0004005432,0.0016021729,-0.43513775,-0.017839957,9.796976,2,1683900785.863411
-0.0445258,-0.00013648917,0.98254,-0.0005340576,-0.0004005432,0.0016021729,-0.43513775,-0.017839957,9.796976,2,1683900785.8736494
-0.0445258,-0.00013648917,0.98254,-0.0005340576,0.000667572,0.0005340576,-0.43513775,-0.017839957,9.796976,2,1683900785.8941915
-0.0445258,-0.00013648917,0.98254,-0.0005340576,0.000667572,0.0005340576,-0.4354363,-0.017916625,9.796962,2,1683900785.8992894
-0.0445258,-0.00013648917,0.98254,-0.0016021729,-0.0014686584,-0.0005340576,-0.4354363,-0.017916625,9.796962,2,1683900785.9095402
-0.0445258,-0.00013648917,0.98254,-0.0016021729,-0.0014686584,-0.0005340576,-0.43523687,-0.017999945,9.79697,2,1683900785.9146743
-0.042084157,-0.0018501864,0.9820547,-0.0016021729,-0.0014686584,-0.0005340576,-0.43523687,-0.017999945,9.79697,2,1683900785.9351861
-0.041098405,-0.0018501864,0.98181206,-0.0016021729,-0.0014686584,-0.0005340576,-0.43523687,-0.017999945,9.79697,2,1683900785.945415
-0.041098405,-0.0018501864,0.98181206,-0.0005340576,-0.0004005432,0.0005340576,-0.43523687,-0.017999945,9.79697,2,1683900785.950553
-0.04378269,-0.00063694944,0.98229736,-0.0005340576,-0.0004005432,0.0005340576,-0.43523687,-0.017999945,9.79697,2,1683900785.9761891
-0.04378269,-0.00063694944,0.98229736,-0.0005340576,-0.0004005432,0.0005340576,-0.43390346,-0.018712439,9.797029,2,1683900785.9813225
-0.042326804,-0.00013648917,0.98229736,-0.0005340576,-0.0004005432,0.0005340576,-0.43390346,-0.018712439,9.797029,2,1683900785.9966598
-0.042326804,-0.00013648917,0.98229736,-0.0005340576,0.0017356873,0.0005340576,-0.43390346,-0.018712439,9.797029,2,1683900786.0171673
-0.042326804,-0.00013648917,0.98229736,-0.0005340576,0.0017356873,0.0005340576,-0.43357268,-0.018821022,9.797042,2,1683900786.0223053
-0.042084157,-0.0040491787,0.9832831,-0.0005340576,0.0017356873,0.0005340576,-0.43357268,-0.018821022,9.797042,2,1683900786.0324855
-0.042084157,-0.0040491787,0.9832831,-0.0005340576,0.0017356873,0.0005340576,-0.43334287,-0.01870751,9.797053,2,1683900786.0427337
-0.042084157,-0.0040491787,0.9832831,-0.0005340576,-0.0004005432,0.0005340576,-0.43334287,-0.01870751,9.797053,2,1683900786.0529573
-0.042084157,-0.0040491787,0.9832831,-0.0005340576,-0.0004005432,0.0005340576,-0.43336734,-0.01856821,9.797052,2,1683900786.058052
-0.042084157,-0.0040491787,0.9832831,-0.0005340576,0.000667572,0.0005340576,-0.43336734,-0.01856821,9.797052,2,1683900786.0734546
-0.043297395,0.00010615824,0.98132676,-0.0005340576,0.000667572,0.0005340576,-0.43336734,-0.01856821,9.797052,2,1683900786.088838
-0.0428121,0.00010615824,0.9842537,-0.0005340576,0.000667572,0.0005340576,-0.43336734,-0.01856821,9.797052,2,1683900786.0990996
-0.0428121,0.00010615824,0.9842537,-0.0005340576,0.000667572,0.0005340576,-0.43350664,-0.018611647,9.797047,2,1683900786.1195936
-0.0428121,0.00010615824,0.9842537,-0.0016021729,0.000667572,-0.0005340576,-0.43350664,-0.018611647,9.797047,2,1683900786.1246908
-0.04402534,-0.0018501864,0.98473895,-0.0016021729,0.000667572,-0.0005340576,-0.43350664,-0.018611647,9.797047,2,1683900786.1451893
-0.04402534,-0.0018501864,0.98473895,0.0005340576,-0.0014686584,0.0005340576,-0.43350664,-0.018611647,9.797047,2,1683900786.1605327
-0.04402534,-0.0018501864,0.98473895,0.0005340576,-0.0014686584,0.0005340576,-0.43311623,-0.018842435,9.797063,2,1683900786.1656659
-0.04402534,-0.0018501864,0.98473895,0.0005340576,-0.0004005432,0.0005340576,-0.43311623,-0.018842435,9.797063,2,1683900786.1759255
-0.039885167,-0.005019768,0.9842537,0.0005340576,-0.0004005432,0.0005340576,-0.43311623,-0.018842435,9.797063,2,1683900786.186146
-0.039885167,-0.005019768,0.9842537,-0.0005340576,0.000667572,-0.0016021729,-0.43311623,-0.018842435,9.797063,2,1683900786.2014842
-0.04184151,-0.0035638837,0.9810841,-0.0005340576,0.000667572,-0.0016021729,-0.43311623,-0.018842435,9.797063,2,1683900786.2066493
-0.04184151,-0.0035638837,0.9810841,0.0005340576,-0.0004005432,0.0005340576,-0.43311623,-0.018842435,9.797063,2,1683900786.2323267
-0.04184151,-0.0035638837,0.9810841,-0.0005340576,0.000667572,0.0005340576,-0.43311623,-0.018842435,9.797063,2,1683900786.2425091
-0.04305475,-0.0011222442,0.98304045,-0.0005340576,0.000667572,0.0005340576,-0.43311623,-0.018842435,9.797063,2,1683900786.2476332
-0.04305475,-0.0011222442,0.98304045,0.0005340576,-0.0004005432,0.0005340576,-0.43311623,-0.018842435,9.797063,2,1683900786.2783995
-0.04305475,-0.0011222442,0.98304045,0.0005340576,-0.0004005432,0.0005340576,-0.43361947,-0.01896548,9.797041,2,1683900786.283542
-0.043297395,-0.000394302,0.98449636,0.0005340576,-0.0004005432,0.0005340576,-0.43361947,-0.01896548,9.797041,2,1683900786.2938094
-0.043297395,-0.000394302,0.98449636,0.0005340576,0.000667572,-0.0005340576,-0.43361947,-0.01896548,9.797041,2,1683900786.304063
-0.043297395,-0.000394302,0.98449636,0.0005340576,0.000667572,-0.0005340576,-0.43377966,-0.019065218,9.797033,2,1683900786.3245304
-0.041598864,-0.0033212362,0.9842537,0.0005340576,0.000667572,-0.0005340576,-0.43377966,-0.019065218,9.797033,2,1683900786.3296652
-0.046466976,-0.000394302,0.98084146,0.0005340576,0.000667572,-0.0005340576,-0.43377966,-0.019065218,9.797033,2,1683900786.3450465
-0.046466976,-0.000394302,0.98084146,-0.0005340576,0.000667572,-0.0005340576,-0.43377966,-0.019065218,9.797033,2,1683900786.3501728
-0.046466976,-0.000394302,0.98084146,-0.0005340576,0.000667572,-0.0005340576,-0.43411833,-0.019255608,9.797018,2,1683900786.3603985
-0.046466976,-0.000394302,0.98084146,-0.0005340576,-0.0004005432,0.0005340576,-0.43411833,-0.019255608,9.797018,2,1683900786.3706563
-0.04428315,-0.0025781286,0.98473895,-0.0005340576,-0.0004005432,0.0005340576,-0.43411833,-0.019255608,9.797018,2,1683900786.3757548
-0.04428315,-0.0025781286,0.98473895,-0.0005340576,-0.0004005432,0.0005340576,-0.43415305,-0.019334475,9.797016,2,1683900786.3808482
-0.042084157,-0.0020928339,0.9827826,-0.0005340576,-0.0004005432,0.0005340576,-0.43415305,-0.019334475,9.797016,2,1683900786.4115613
-0.042084157,-0.0020928339,0.9827826,0.0005340576,-0.0004005432,-0.0005340576,-0.43415305,-0.019334475,9.797016,2,1683900786.4166985
-0.042084157,-0.0020928339,0.9827826,0.0005340576,-0.0004005432,-0.0005340576,-0.43388167,-0.018895395,9.797029,2,1683900786.4218326
-0.04525374,0.0013193953,0.9832831,0.0005340576,-0.0004005432,-0.0005340576,-0.43388167,-0.018895395,9.797029,2,1683900786.4730685
-0.04525374,0.0013193953,0.9832831,-0.0005340576,-0.0004005432,-0.0005340576,-0.43388167,-0.018895395,9.797029,2,1683900786.4935114
-0.04184151,-0.0035638837,0.98304045,-0.0005340576,-0.0004005432,-0.0005340576,-0.43388167,-0.018895395,9.797029,2,1683900786.4986427
-0.04184151,-0.0035638837,0.98304045,0.0005340576,-0.0004005432,0.0005340576,-0.43388167,-0.018895395,9.797029,2,1683900786.5037723
-0.04184151,-0.0035638837,0.98304045,0.0005340576,-0.0004005432,0.0005340576,-0.43431264,-0.01678352,9.797014,2,1683900786.524258
-0.04184151,-0.0035638837,0.98304045,0.0005340576,-0.0004005432,0.0005340576,-0.43438244,-0.016789475,9.797011,2,1683900786.5396209
-0.04184151,-0.0013648917,0.98229736,0.0005340576,-0.0004005432,0.0005340576,-0.43438244,-0.016789475,9.797011,2,1683900786.544753
-0.04184151,-0.0013648917,0.98229736,-0.0005340576,0.000667572,0.0005340576,-0.43438244,-0.016789475,9.797011,2,1683900786.5498843
-0.0428121,0.00180469,0.9805988,-0.0005340576,0.000667572,0.0005340576,-0.43438244,-0.016789475,9.797011,2,1683900786.5703433
-0.0428121,0.00180469,0.9805988,-0.0005340576,0.000667572,0.0005340576,-0.43437842,-0.016360873,9.797012,2,1683900786.5857108
-0.0428121,0.00180469,0.9805988,0.0005340576,0.0017356873,0.0005340576,-0.43437842,-0.016360873,9.797012,2,1683900786.5908406
-0.04402534,0.00010615824,0.98401105,0.0005340576,0.0017356873,0.0005340576,-0.43437842,-0.016360873,9.797012,2,1683900786.6164043
-0.04402534,0.00010615824,0.98401105,-0.0005340576,-0.0004005432,0.0016021729,-0.43437842,-0.016360873,9.797012,2,1683900786.6215403
-0.04402534,0.00010615824,0.98401105,-0.0005340576,-0.0004005432,0.0016021729,-0.43441382,-0.016099533,9.79701,2,1683900786.6266382
-0.0445258,-0.0018501864,0.98132676,-0.0005340576,-0.0004005432,0.0016021729,-0.43441382,-0.016099533,9.79701,2,1683900786.6471531
-0.0445258,-0.0018501864,0.98132676,0.0005340576,0.000667572,0.0005340576,-0.43441382,-0.016099533,9.79701,2,1683900786.6573687
-0.0445258,-0.0018501864,0.98132676,0.0005340576,0.000667572,0.0005340576,-0.43467212,-0.01623708,9.796999,2,1683900786.6675937
-0.04525374,-0.0011222442,0.9827826,0.0005340576,0.000667572,0.0005340576,-0.43467212,-0.01623708,9.796999,2,1683900786.6726851
-0.04525374,-0.0011222442,0.9827826,0.0016021729,0.000667572,-0.0005340576,-0.43467212,-0.01623708,9.796999,2,1683900786.6983392
-0.04525374,-0.0011222442,0.9827826,0.0016021729,0.000667572,-0.0005340576,-0.43484196,-0.016118519,9.796991,2,1683900786.7034266
-0.04525374,-0.0011222442,0.9827826,-0.0005340576,0.000667572,-0.0005340576,-0.43484196,-0.016118519,9.796991,2,1683900786.7085605
-0.043297395,-0.0033212362,0.9815694,-0.0005340576,0.000667572,-0.0005340576,-0.43484196,-0.016118519,9.796991,2,1683900786.7341392
-0.043297395,-0.0033212362,0.9815694,-0.0005340576,0.000667572,-0.0005340576,-0.43495834,-0.016298963,9.796986,2,1683900786.7391982
-0.0428121,-0.0064908178,0.98304045,-0.0005340576,0.000667572,-0.0005340576,-0.43495834,-0.016298963,9.796986,2,1683900786.7443259
-0.0428121,-0.0064908178,0.98304045,-0.0005340576,0.0017356873,-0.0016021729,-0.43495834,-0.016298963,9.796986,2,1683900786.7545927
-0.0428121,-0.0064908178,0.98304045,-0.0005340576,-0.0004005432,-0.0005340576,-0.43495834,-0.016298963,9.796986,2,1683900786.7751176
-0.0428121,-0.0064908178,0.98304045,-0.0005340576,-0.0004005432,-0.0005340576,-0.43278274,-0.017517347,9.79708,2,1683900786.780248
-0.0428121,-0.0064908178,0.98304045,0.0005340576,0.000667572,-0.0005340576,-0.43278274,-0.017517347,9.79708,2,1683900786.7853448
-0.041598864,-0.0020928339,0.9820547,0.0005340576,0.000667572,-0.0005340576,-0.43278274,-0.017517347,9.79708,2,1683900786.7956092
-0.041598864,-0.0020928339,0.9820547,0.0005340576,0.000667572,-0.0005340576,-0.43266156,-0.017515482,9.797085,2,1683900786.8007352
-0.03817147,-0.002820776,0.98304045,0.0005340576,0.000667572,-0.0005340576,-0.43266156,-0.017515482,9.797085,2,1683900786.8212452
-0.04305475,-0.00063694944,0.98181206,0.0005340576,0.000667572,-0.0005340576,-0.43266156,-0.017515482,9.797085,2,1683900786.8314981
-0.04305475,-0.00063694944,0.98181206,0.0005340576,0.0017356873,0.0005340576,-0.43266156,-0.017515482,9.797085,2,1683900786.8417459
-0.04305475,-0.00063694944,0.98181206,0.0005340576,0.0017356873,0.0005340576,-0.43275377,-0.017596915,9.797081,2,1683900786.8468792
-0.044768445,-0.00013648917,0.98254,0.0005340576,0.0017356873,0.0005340576,-0.43275377,-0.017596915,9.797081,2,1683900786.872478
-0.044768445,-0.00013648917,0.98254,-0.0005340576,-0.0004005432,-0.0005340576,-0.43275377,-0.017596915,9.797081,2,1683900786.8776002
-0.044768445,-0.00013648917,0.98254,-0.0005340576,-0.0004005432,-0.0005340576,-0.43273976,-0.017684082,9.797082,2,1683900786.8827293
-0.044768445,-0.00013648917,0.98254,-0.0005340576,-0.0004005432,0.0005340576,-0.43273976,-0.017684082,9.797082,2,1683900786.9031978
-0.044768445,-0.00013648917,0.98254,-0.0005340576,-0.0004005432,0.0005340576,-0.43269908,-0.01775623,9.797083,2,1683900786.9083285
-0.04305475,-0.002335481,0.98084146,-0.0005340576,-0.0004005432,0.0005340576,-0.43269908,-0.01775623,9.797083,2,1683900786.9186027
-0.04305475,-0.002335481,0.98084146,0.0005340576,0.000667572,0.0005340576,-0.43269908,-0.01775623,9.797083,2,1683900786.9339936
-0.04672479,-0.002820776,0.9815694,0.0005340576,0.000667572,0.0005340576,-0.43269908,-0.01775623,9.797083,2,1683900786.9442563
-0.04672479,-0.002820776,0.9815694,0.0005340576,0.000667572,0.0005340576,-0.43327513,-0.017447123,9.797058,2,1683900786.964732
-0.0428121,-0.00063694944,0.9815694,0.0005340576,0.000667572,0.0005340576,-0.43327513,-0.017447123,9.797058,2,1683900786.9749942
-0.0428121,-0.00063694944,0.9815694,0.0005340576,0.000667572,0.0005340576,-0.4329965,-0.01768948,9.7970705,2,1683900786.9801297
-0.04134105,-0.0035638837,0.98304045,0.002670288,-0.0004005432,0.0005340576,-0.4355805,-0.018899003,9.796954,2,1683900786.985911
-0.04134105,-0.0035638837,0.98304045,0.002670288,-0.0004005432,0.0005340576,-0.435921,-0.018662672,9.796939,2,1683900786.9910748
-0.0445258,-0.0025781286,1.0164651,0.002670288,-0.0004005432,0.0005340576,-0.435921,-0.018662672,9.796939,2,1683900787.0065038
-0.0445258,-0.0025781286,1.0164651,0.005874634,0.008144379,0.0016021729,-0.435921,-0.018662672,9.796939,2,1683900787.0218582
-0.039885167,0.0057173795,0.98254,0.005874634,0.008144379,0.0016021729,-0.435921,-0.018662672,9.796939,2,1683900787.032073
-0.039885167,0.0057173795,0.98254,-0.0037384033,-0.013217926,0.0016021729,-0.435921,-0.018662672,9.796939,2,1683900787.0474565
-0.039885167,0.0057173795,0.98254,-0.0037384033,-0.013217926,0.0016021729,-0.43496117,-0.018307876,9.796982,2,1683900787.057665
-0.039885167,0.0057173795,0.98254,-0.0037384033,-0.013217926,0.0016021729,-0.4336598,-0.017766824,9.797041,2,1683900787.0627916
-0.039885167,0.0057173795,0.98254,-0.005874634,-0.013217926,-0.0005340576,-0.4336598,-0.017766824,9.797041,2,1683900787.0679185
-0.03475924,0.008159019,0.96253675,-0.005874634,-0.013217926,-0.0005340576,-0.4336598,-0.017766824,9.797041,2,1683900787.093516
-0.03475924,0.008159019,0.96253675,-0.005874634,-0.013217926,-0.0005340576,-0.43342057,-0.017889824,9.797051,2,1683900787.0986423
-0.03475924,0.008159019,0.96253675,0.0016021729,0.015621185,0.0005340576,-0.43342057,-0.017889824,9.797051,2,1683900787.11404
-0.041598864,-0.0057628755,0.98669535,0.0016021729,0.015621185,0.0005340576,-0.43342057,-0.017889824,9.797051,2,1683900787.1294503
-0.041598864,-0.0057628755,0.98669535,-0.0016021729,-0.0068092346,-0.0005340576,-0.43342057,-0.017889824,9.797051,2,1683900787.134581
-0.04402534,-0.0060055233,0.98304045,-0.0016021729,-0.0068092346,-0.0005340576,-0.43342057,-0.017889824,9.797051,2,1683900787.1448448
-0.04402534,-0.0060055233,0.98304045,0.0005340576,0.004940033,0.0005340576,-0.43342057,-0.017889824,9.797051,2,1683900787.1602442
-0.03964252,0.0022899848,0.9886517,0.0005340576,0.004940033,0.0005340576,-0.43342057,-0.017889824,9.797051,2,1683900787.170505
-0.03964252,0.0022899848,0.9886517,0.0005340576,0.004940033,0.0005340576,-0.4352947,-0.020218711,9.796964,2,1683900787.1874988
-0.04549639,-0.0064908178,0.9771714,0.0016021729,-0.004673004,0.0005340576,-0.4352947,-0.020218711,9.796964,2,1683900787.187523
-0.043540042,-0.0038065312,0.9766861,0.0016021729,-0.004673004,0.0005340576,-0.4352947,-0.020218711,9.796964,2,1683900787.1931648
-0.043540042,-0.0038065312,0.9766861,0.0016021729,-0.004673004,0.0005340576,-0.43508285,-0.020288913,9.796973,2,1683900787.1986585
-0.042084157,-0.004777121,0.9788851,0.0016021729,-0.004673004,0.0005340576,-0.43508285,-0.020288913,9.796973,2,1683900787.267222
-0.042084157,-0.004777121,0.9788851,-0.0005340576,-0.0014686584,0.0016021729,-0.43508285,-0.020288913,9.796973,2,1683900787.2877228
-0.039885167,-0.0038065312,0.98181206,-0.0005340576,-0.0014686584,0.0016021729,-0.43508285,-0.020288913,9.796973,2,1683900787.2980146
-0.039885167,-0.0038065312,0.98181206,-0.0005340576,-0.0014686584,0.0016021729,-0.43504295,-0.016208962,9.796983,2,1683900787.3184078
-0.039885167,-0.0038065312,0.98181206,-0.0005340576,-0.0014686584,0.0016021729,-0.4357685,-0.015847545,9.796951,2,1683900787.3235455
-0.039885167,-0.0038065312,0.98181206,-0.002670288,-0.0014686584,0.0005340576,-0.4357685,-0.015847545,9.796951,2,1683900787.3338249
-0.04428315,-0.0008795968,0.9837684,-0.002670288,-0.0014686584,0.0005340576,-0.4357685,-0.015847545,9.796951,2,1683900787.3491993
-0.04428315,-0.0008795968,0.9837684,-0.002670288,-0.003604889,-0.0005340576,-0.4357685,-0.015847545,9.796951,2,1683900787.3543086
-0.03572983,-0.0067334655,0.97912776,-0.002670288,-0.003604889,-0.0005340576,-0.4357685,-0.015847545,9.796951,2,1683900787.3645606
-0.03572983,-0.0067334655,0.97912776,-0.002670288,-0.003604889,-0.0005340576,-0.433503,-0.017232355,9.7970495,2,1683900787.3799376
-0.03572983,-0.0067334655,0.97912776,-0.002670288,-0.003604889,-0.0005340576,-0.43243563,-0.017977854,9.797094,2,1683900787.3850646
-0.03939987,-0.0064908178,0.98009837,-0.002670288,-0.003604889,-0.0005340576,-0.43243563,-0.017977854,9.797094,2,1683900787.390195
-0.03939987,-0.0064908178,0.98009837,0.0016021729,-0.0014686584,0.0005340576,-0.43243563,-0.017977854,9.797094,2,1683900787.395299
-0.03623029,-0.0064908178,0.9815694,0.0016021729,-0.0014686584,0.0005340576,-0.43243563,-0.017977854,9.797094,2,1683900787.426038
-0.03623029,-0.0064908178,0.9815694,0.0016021729,-0.0014686584,0.0005340576,-0.43187955,-0.018340707,9.797119,2,1683900787.4311776
-0.03623029,-0.0064908178,0.9815694,0.0005340576,0.000667572,0.0005340576,-0.43187955,-0.018340707,9.797119,2,1683900787.451677
-0.044768445,0.00059145305,0.98181206,0.0005340576,0.000667572,0.0005340576,-0.43187955,-0.018340707,9.797119,2,1683900787.4619384
-0.044768445,0.00059145305,0.98181206,0.0005340576,0.000667572,0.0005340576,-0.43147638,-0.017890006,9.797137,2,1683900787.482403
-0.044768445,0.00059145305,0.98181206,0.0016021729,0.000667572,0.0016021729,-0.43147638,-0.017890006,9.797137,2,1683900787.4875271
-0.048180673,0.00327574,0.98181206,0.0016021729,0.000667572,0.0016021729,-0.43147638,-0.017890006,9.797137,2,1683900787.497778
-0.048180673,0.00327574,0.98181206,0.0005340576,0.000667572,0.0005340576,-0.43147638,-0.017890006,9.797137,2,1683900787.5080383
-0.048180673,0.00327574,0.98181206,0.0005340576,0.000667572,0.0005340576,-0.43251285,-0.016665688,9.797093,2,1683900787.5233493
-0.051592905,-0.00063694944,0.9810841,0.0005340576,0.000667572,0.0005340576,-0.43251285,-0.016665688,9.797093,2,1683900787.54385
-0.051592905,-0.00063694944,0.9810841,0.0005340576,0.000667572,0.0005340576,-0.4331819,-0.016606383,9.797064,2,1683900787.554101
-0.051592905,-0.00063694944,0.9810841,0.002670288,0.000667572,-0.0016021729,-0.4331819,-0.016606383,9.797064,2,1683900787.5694876
-0.046466976,0.0057173795,0.9849816,0.002670288,0.000667572,-0.0016021729,-0.4331819,-0.016606383,9.797064,2,1683900787.5797439
-0.046466976,0.0057173795,0.9849816,0.002670288,0.000667572,-0.0016021729,-0.4350521,-0.017103666,9.796981,2,1683900787.590008
-0.046466976,0.0057173795,0.9849816,0.002670288,0.000667572,-0.0016021729,-0.43535116,-0.016483588,9.796968,2,1683900787.6002662
-0.046466976,0.0057173795,0.9849816,-0.0005340576,0.000667572,-0.0005340576,-0.43535116,-0.016483588,9.796968,2,1683900787.6054008
-0.039885167,0.00059145305,0.9810841,-0.0005340576,0.000667572,-0.0005340576,-0.43535116,-0.016483588,9.796968,2,1683900787.6259358
-0.039885167,0.00059145305,0.9810841,-0.0005340576,0.000667572,-0.0005340576,-0.43488386,-0.016357632,9.796989,2,1683900787.6310618
-0.043297395,-0.0018501864,0.98304045,-0.0005340576,0.000667572,-0.0005340576,-0.43488386,-0.016357632,9.796989,2,1683900787.6413186
-0.043297395,-0.0018501864,0.98304045,-0.0005340576,-0.0014686584,-0.0005340576,-0.43488386,-0.016357632,9.796989,2,1683900787.6515722
-0.043297395,-0.0018501864,0.98304045,0.0005340576,-0.0014686584,-0.0005340576,-0.43488386,-0.016357632,9.796989,2,1683900787.6874244
-0.040855754,-0.0033212362,0.98229736,0.0005340576,-0.0014686584,-0.0005340576,-0.43488386,-0.016357632,9.796989,2,1683900787.6925182
-0.040855754,-0.0033212362,0.98229736,0.0005340576,-0.0014686584,-0.0005340576,-0.43458644,-0.016472187,9.797002,2,1683900787.6976478
-0.039885167,-0.0035638837,0.980341,0.0005340576,-0.0014686584,-0.0005340576,-0.43458644,-0.016472187,9.797002,2,1683900787.7181625
-0.039885167,-0.0035638837,0.980341,0.0005340576,-0.0014686584,-0.0005340576,-0.43351787,-0.016729102,9.797049,2,1683900787.7283769
-0.039885167,-0.0035638837,0.980341,0.0005340576,-0.0004005432,-0.0005340576,-0.43351787,-0.016729102,9.797049,2,1683900787.7335033
-0.039885167,-0.0035638837,0.980341,0.0016021729,-0.0004005432,-0.0005340576,-0.43351787,-0.016729102,9.797049,2,1683900787.7539763
-0.039885167,-0.0035638837,0.980341,0.0016021729,-0.0004005432,-0.0005340576,-0.43320918,-0.016809663,9.797062,2,1683900787.7590683
-0.039885167,-0.0035638837,0.980341,0.0016021729,-0.0004005432,-0.0005340576,-0.4323101,-0.016001856,9.797104,2,1683900787.7795334
-0.039885167,-0.0035638837,0.980341,0.0005340576,0.000667572,0.0016021729,-0.4323101,-0.016001856,9.797104,2,1683900787.789749
-0.04525374,0.0025477977,0.9871806,0.0005340576,0.000667572,0.0016021729,-0.4323101,-0.016001856,9.797104,2,1683900787.80514
-0.04525374,-0.0008795968,0.98401105,0.0005340576,0.000667572,0.0016021729,-0.4323101,-0.016001856,9.797104,2,1683900787.815382
-0.04525374,-0.0008795968,0.98401105,-0.0005340576,0.000667572,-0.0005340576,-0.4323101,-0.016001856,9.797104,2,1683900787.8205066
-0.04525374,-0.0008795968,0.98401105,-0.0005340576,0.000667572,-0.0005340576,-0.43273464,-0.016255854,9.797085,2,1683900787.8563073
-0.0428121,0.0015620426,0.9820547,-0.0005340576,0.000667572,-0.0005340576,-0.43273464,-0.016255854,9.797085,2,1683900787.8665679
-0.0428121,0.0015620426,0.9820547,0.0005340576,0.000667572,0.0005340576,-0.43273464,-0.016255854,9.797085,2,1683900787.871699
-0.0428121,0.0015620426,0.9820547,-0.002670288,-0.0004005432,0.0005340576,-0.43273464,-0.016255854,9.797085,2,1683900787.8819594
-0.0428121,-0.0052624154,0.9832831,-0.002670288,-0.0004005432,0.0005340576,-0.43273464,-0.016255854,9.797085,2,1683900787.887089
-0.0428121,-0.0052624154,0.9832831,-0.002670288,-0.0004005432,0.0005340576,-0.43282863,-0.01703288,9.797079,2,1683900787.892215
-0.0428121,-0.0052624154,0.9832831,0.0005340576,-0.0004005432,0.0005340576,-0.43282863,-0.01703288,9.797079,2,1683900787.9229777
-0.0428121,-0.0052624154,0.9832831,0.0005340576,-0.0004005432,0.0005340576,-0.43290243,-0.017200343,9.797075,2,1683900787.9280996
-0.0445258,-0.0040491787,0.98254,0.0005340576,-0.0004005432,0.0005340576,-0.43290243,-0.017200343,9.797075,2,1683900787.9332068
-0.045739036,-0.004291826,0.98132676,0.0005340576,-0.0004005432,0.0005340576,-0.43290243,-0.017200343,9.797075,2,1683900787.9690077
-0.045739036,-0.004291826,0.98132676,0.0005340576,-0.0004005432,0.0005340576,-0.4348167,-0.017990917,9.7969885,2,1683900787.9843204
-0.045739036,-0.004291826,0.98132676,-0.0005340576,0.000667572,0.0005340576,-0.4348167,-0.017990917,9.7969885,2,1683900787.989452
-0.045739036,-0.004291826,0.98132676,0.0005340576,0.000667572,-0.0016021729,-0.4348167,-0.017990917,9.7969885,2,1683900787.9997115
-0.045739036,-0.004291826,0.98132676,0.0005340576,0.000667572,-0.0016021729,-0.43412712,-0.018153189,9.797019,2,1683900788.004849
-0.047938026,-0.0033212362,0.9810841,0.0005340576,0.000667572,-0.0016021729,-0.43412712,-0.018153189,9.797019,2,1683900788.0099816
-0.0428121,-0.00013648917,0.9832831,0.0005340576,0.000667572,-0.0016021729,-0.43412712,-0.018153189,9.797019,2,1683900788.0304775
-0.0428121,-0.00013648917,0.9832831,0.0016021729,0.000667572,0.0005340576,-0.43412712,-0.018153189,9.797019,2,1683900788.0356104
-0.0428121,-0.00013648917,0.9832831,0.0016021729,0.000667572,0.0005340576,-0.43478143,-0.017773759,9.796991,2,1683900788.0458589
-0.0445258,-0.003078589,0.98352575,0.0016021729,0.000667572,0.0005340576,-0.43478143,-0.017773759,9.796991,2,1683900788.0509863
-0.0445258,-0.003078589,0.98352575,0.0005340576,-0.0014686584,-0.0005340576,-0.43498334,-0.018087843,9.796982,2,1683900788.0612662
-0.039157223,-0.0057628755,0.98352575,-0.0005340576,0.000667572,-0.0005340576,-0.43412167,-0.017887607,9.79702,2,1683900788.0664377
-0.042084157,-0.0025781286,0.9849816,0.0005340576,0.0028038025,-0.0005340576,-0.4346211,-0.018049503,9.796998,2,1683900788.0716782
-0.042084157,-0.0025781286,0.9849816,0.0005340576,0.000667572,-0.0005340576,-0.4346211,-0.018049503,9.796998,2,1683900788.0921912
-0.04549639,-0.0040491787,0.9854669,0.0005340576,0.000667572,-0.0005340576,-0.4346211,-0.018049503,9.796998,2,1683900788.0972884
-0.043540042,-0.0033212362,0.9810841,0.0005340576,0.000667572,-0.0005340576,-0.4346211,-0.018049503,9.796998,2,1683900788.1227975
-0.043540042,-0.0033212362,0.9810841,0.0005340576,-0.0004005432,-0.0005340576,-0.4346211,-0.018049503,9.796998,2,1683900788.127922
-0.043540042,-0.0033212362,0.9810841,0.0005340576,-0.0004005432,-0.0005340576,-0.4345864,-0.018613279,9.796998,2,1683900788.133056
-0.043540042,-0.0033212362,0.9810841,0.0005340576,-0.0004005432,-0.0005340576,-0.4346125,-0.018784013,9.796996,2,1683900788.1484113
-0.043540042,-0.0033212362,0.9810841,0.0005340576,0.000667572,0.0005340576,-0.4346125,-0.018784013,9.796996,2,1683900788.1535451
-0.043297395,-0.0040491787,0.9832831,0.0005340576,0.000667572,0.0005340576,-0.4346125,-0.018784013,9.796996,2,1683900788.1689072
-0.043297395,-0.0040491787,0.9832831,0.0005340576,0.000667572,0.0005340576,-0.43461934,-0.01893676,9.796996,2,1683900788.1842885
-0.038914576,-0.002335481,0.98132676,0.0005340576,0.000667572,0.0005340576,-0.43461934,-0.01893676,9.796996,2,1683900788.2201726
-0.038914576,-0.002335481,0.98132676,0.0005340576,-0.0004005432,0.0005340576,-0.43461934,-0.01893676,9.796996,2,1683900788.230434
-0.04402534,-0.0020928339,0.9837684,0.0005340576,-0.0004005432,0.0005340576,-0.43461934,-0.01893676,9.796996,2,1683900788.250942
-0.04402534,-0.0020928339,0.9837684,0.0005340576,-0.0004005432,0.0005340576,-0.43409586,-0.018092277,9.797021,2,1683900788.2560701
-0.04402534,-0.0020928339,0.9837684,0.0005340576,0.000667572,-0.0005340576,-0.43409586,-0.018092277,9.797021,2,1683900788.2611978
-0.04428315,-0.0008795968,0.98229736,0.0005340576,0.000667572,-0.0005340576,-0.43409586,-0.018092277,9.797021,2,1683900788.266332
-0.04428315,-0.0008795968,0.98229736,0.0005340576,0.0017356873,0.0016021729,-0.43409586,-0.018092277,9.797021,2,1683900788.271451
-0.04428315,-0.0008795968,0.98229736,0.0005340576,0.0017356873,0.0016021729,-0.4343127,-0.01788336,9.79701,2,1683900788.2970505
-0.04428315,-0.0008795968,0.98229736,0.0005340576,0.0017356873,0.0005340576,-0.4343127,-0.01788336,9.79701,2,1683900788.3175519
-0.0428121,-0.0025781286,0.9779145,0.0005340576,0.0017356873,0.0005340576,-0.4343127,-0.01788336,9.79701,2,1683900788.3226936
-0.0428121,-0.0025781286,0.9779145,0.0005340576,0.0017356873,0.0005340576,-0.4346146,-0.017910253,9.796998,2,1683900788.3278284
-0.04037046,-0.0013648917,0.9876659,0.0005340576,0.0017356873,0.0005340576,-0.4346146,-0.017910253,9.796998,2,1683900788.3431957
-0.04037046,-0.0013648917,0.9876659,0.0016021729,0.0028038025,0.0016021729,-0.4346146,-0.017910253,9.796998,2,1683900788.348288
-0.04037046,-0.0013648917,0.9876659,0.0016021729,0.0028038025,0.0016021729,-0.43449366,-0.018142514,9.797004,2,1683900788.3636227
-0.04402534,0.0025477977,0.98304045,0.0016021729,0.0028038025,0.0016021729,-0.43449366,-0.018142514,9.797004,2,1683900788.4046085
-0.04402534,0.0025477977,0.98304045,-0.0005340576,-0.0025367737,-0.0005340576,-0.43449366,-0.018142514,9.797004,2,1683900788.4097319
-0.04402534,0.0025477977,0.98304045,-0.0005340576,-0.0025367737,-0.0005340576,-0.43414488,-0.017342236,9.797021,2,1683900788.4251134
-0.04402534,0.0025477977,0.98304045,-0.0005340576,-0.0025367737,-0.0005340576,-0.43355447,-0.016710378,9.797047,2,1683900788.4455805
-0.04402534,0.0025477977,0.98304045,-0.0005340576,0.000667572,-0.0005340576,-0.43355447,-0.016710378,9.797047,2,1683900788.4558375
-0.038656764,-0.0025781286,0.98522425,-0.0005340576,0.000667572,-0.0005340576,-0.43355447,-0.016710378,9.797047,2,1683900788.4609652
-0.041598864,-0.0033212362,0.9827826,-0.0005340576,0.000667572,-0.0005340576,-0.43355447,-0.016710378,9.797047,2,1683900788.4712114
-0.041598864,-0.0033212362,0.9827826,-0.0005340576,0.000667572,-0.0005340576,-0.4334823,-0.016923519,9.79705,2,1683900788.4916925
-0.041598864,-0.0033212362,0.9827826,-0.0016021729,0.0017356873,0.0005340576,-0.4334823,-0.016923519,9.79705,2,1683900788.5019727
-0.041598864,-0.0033212362,0.9827826,-0.0016021729,-0.003604889,-0.0005340576,-0.4334823,-0.016923519,9.79705,2,1683900788.5122304
-0.04037046,-0.0052624154,0.9779145,-0.0016021729,-0.003604889,-0.0005340576,-0.4334823,-0.016923519,9.79705,2,1683900788.5328321
-0.04037046,-0.0052624154,0.9779145,-0.0016021729,-0.0004005432,0.0005340576,-0.4334823,-0.016923519,9.79705,2,1683900788.5379725
-0.04037046,-0.0052624154,0.9779145,-0.0016021729,-0.0004005432,0.0005340576,-0.43470374,-0.018456852,9.796993,2,1683900788.5533237
-0.040613107,-0.0035638837,0.97864246,-0.0016021729,-0.0004005432,0.0005340576,-0.43470374,-0.018456852,9.796993,2,1683900788.5584586
-0.040613107,-0.0035638837,0.97864246,-0.0005340576,-0.0004005432,0.0005340576,-0.43470374,-0.018456852,9.796993,2,1683900788.5686898
-0.040613107,-0.0035638837,0.97864246,-0.0005340576,-0.0004005432,0.0005340576,-0.4344523,-0.018624451,9.797005,2,1683900788.589192
-0.042326804,-0.0033212362,0.98473895,-0.0005340576,-0.0004005432,0.0005340576,-0.4344523,-0.018624451,9.797005,2,1683900788.594336
-0.042326804,-0.0033212362,0.98473895,0.0005340576,0.000667572,-0.0016021729,-0.4344523,-0.018624451,9.797005,2,1683900788.604576
-0.042326804,-0.0033212362,0.98473895,0.0005340576,0.000667572,-0.0016021729,-0.43430558,-0.018643793,9.79701,2,1683900788.6558244
-0.042326804,-0.0033212362,0.98473895,-0.0005340576,-0.0004005432,0.0005340576,-0.43430558,-0.018643793,9.79701,2,1683900788.6609573
-0.042326804,-0.0033212362,0.98473895,-0.0005340576,-0.0004005432,0.0005340576,-0.4349125,-0.01830872,9.796984,2,1683900788.6660898
-0.045739036,-0.0018501864,0.98009837,-0.0005340576,-0.0004005432,0.0005340576,-0.4349125,-0.01830872,9.796984,2,1683900788.6763206
-0.045739036,-0.0018501864,0.98009837,-0.0005340576,-0.0004005432,0.0005340576,-0.43513033,-0.01811056,9.796974,2,1683900788.7019217
-0.043540042,-0.0038065312,0.9886517,-0.0005340576,-0.0004005432,0.0005340576,-0.43513033,-0.01811056,9.796974,2,1683900788.712183
-0.043540042,-0.0038065312,0.9886517,0.0005340576,0.000667572,0.0005340576,-0.43513033,-0.01811056,9.796974,2,1683900788.722406
-0.04378269,-0.000394302,0.97547287,0.0005340576,0.000667572,0.0005340576,-0.43513033,-0.01811056,9.796974,2,1683900788.732627
-0.04378269,-0.000394302,0.97547287,0.0005340576,0.000667572,0.0005340576,-0.43520197,-0.017965974,9.796972,2,1683900788.758269
-0.04378269,-0.000394302,0.97547287,0.0005340576,0.000667572,0.0005340576,-0.43516034,-0.018536806,9.796972,2,1683900788.7736528
-0.04378269,-0.000394302,0.97547287,-0.0005340576,0.0028038025,0.0005340576,-0.43516034,-0.018536806,9.796972,2,1683900788.7838986
-0.042569455,-0.0013648917,0.98913693,-0.0005340576,0.0028038025,0.0005340576,-0.43516034,-0.018536806,9.796972,2,1683900788.7890325
-0.04402534,-0.0020928339,0.9776567,-0.0005340576,0.0028038025,0.0005340576,-0.43516034,-0.018536806,9.796972,2,1683900788.7991946
-0.04402534,-0.0020928339,0.9776567,0.0005340576,0.0017356873,0.0005340576,-0.43516034,-0.018536806,9.796972,2,1683900788.8145838
-0.04402534,-0.0020928339,0.9776567,0.0005340576,0.0017356873,0.0005340576,-0.43409884,-0.017279994,9.797023,2,1683900788.82997
-0.04402534,-0.0020928339,0.9776567,0.0016021729,-0.0004005432,0.0005340576,-0.43409884,-0.017279994,9.797023,2,1683900788.8453658
-0.04402534,-0.0020928339,0.9776567,0.0016021729,-0.0004005432,0.0005340576,-0.4347324,-0.017244184,9.796995,2,1683900788.8556252
-0.047938026,-0.0040491787,0.98304045,0.0016021729,-0.0004005432,0.0005340576,-0.4347324,-0.017244184,9.796995,2,1683900788.8658106
-0.04769538,0.0008341004,0.9827826,0.0016021729,-0.0004005432,0.0005340576,-0.4347324,-0.017244184,9.796995,2,1683900788.8709407
-0.04769538,0.0008341004,0.9827826,0.0005340576,0.000667572,0.0016021729,-0.4347324,-0.017244184,9.796995,2,1683900788.8811982
-0.04769538,0.0008341004,0.9827826,0.0005340576,0.000667572,0.0016021729,-0.43510464,-0.017001849,9.796978,2,1683900788.8965492
-0.04305475,0.0022899848,0.9832831,0.0005340576,0.000667572,0.0016021729,-0.43510464,-0.017001849,9.796978,2,1683900788.906793
-0.04305475,0.0022899848,0.9832831,-0.0016021729,-0.0014686584,-0.0005340576,-0.43510464,-0.017001849,9.796978,2,1683900788.9323924
-0.04305475,0.0022899848,0.9832831,-0.0016021729,-0.0014686584,-0.0005340576,-0.43476933,-0.01636318,9.796993,2,1683900788.9375186
-0.04402534,-0.000394302,0.98084146,-0.0016021729,-0.0014686584,-0.0005340576,-0.43476933,-0.01636318,9.796993,2,1683900788.983643
-0.04402534,-0.000394302,0.98084146,-0.002670288,-0.003604889,-0.0005340576,-0.43476933,-0.01636318,9.796993,2,1683900788.988772
-0.04402534,-0.000394302,0.98084146,-0.002670288,-0.0025367737,0.0005340576,-0.43476933,-0.01636318,9.796993,2,1683900788.9990318
-0.04184151,-0.001607539,0.9820547,-0.002670288,-0.0025367737,0.0005340576,-0.43476933,-0.01636318,9.796993,2,1683900789.01443
-0.04184151,-0.001607539,0.9820547,-0.002670288,-0.0025367737,0.0005340576,-0.43453303,-0.015864301,9.797006,2,1683900789.0246816
-0.04184151,-0.001607539,0.9820547,-0.002670288,-0.0025367737,0.0005340576,-0.4339914,-0.016054241,9.7970295,2,1683900789.045119
-0.04184151,-0.001607539,0.9820547,-0.002670288,-0.0025367737,0.0005340576,-0.4339172,-0.016226185,9.797032,2,1683900789.06046
-0.04305475,-0.0020928339,0.9732739,-0.002670288,-0.0025367737,0.0005340576,-0.4339172,-0.016226185,9.797032,2,1683900789.0706854
-0.044768445,0.0015620426,0.98449636,-0.002670288,-0.0025367737,0.0005340576,-0.4339172,-0.016226185,9.797032,2,1683900789.1014223
-0.044768445,0.0015620426,0.98449636,-0.002670288,-0.0025367737,0.0005340576,-0.43322068,-0.01801171,9.79706,2,1683900789.1065557
-0.044768445,0.0015620426,0.98449636,0.0005340576,-0.0004005432,-0.0005340576,-0.43322068,-0.01801171,9.79706,2,1683900789.1116834
-0.044768445,0.0015620426,0.98449636,0.0016021729,0.000667572,0.0005340576,-0.43322068,-0.01801171,9.79706,2,1683900789.137243
-0.044768445,0.0015620426,0.98449636,0.0016021729,0.000667572,0.0005340576,-0.43302125,-0.01746428,9.79707,2,1683900789.1423411
-0.042569455,-0.0008795968,0.97961307,0.0016021729,0.000667572,0.0005340576,-0.43302125,-0.01746428,9.79707,2,1683900789.1474485
-0.042569455,0.0013193953,0.98473895,0.0016021729,0.000667572,0.0005340576,-0.43302125,-0.01746428,9.79707,2,1683900789.1628318
-0.042569455,0.0013193953,0.98473895,0.0016021729,0.000667572,0.0005340576,-0.4329393,-0.017438801,9.797074,2,1683900789.1782186
-0.0428121,-0.0008795968,0.9837684,0.0016021729,0.000667572,0.0005340576,-0.4329393,-0.017438801,9.797074,2,1683900789.1884465
-0.0428121,-0.0008795968,0.9837684,-0.0005340576,-0.0004005432,-0.0016021729,-0.4329393,-0.017438801,9.797074,2,1683900789.1987245
-0.0428121,-0.0008795968,0.9837684,-0.0005340576,-0.0004005432,-0.0016021729,-0.43287772,-0.016628655,9.797078,2,1683900789.2191935
-0.0428121,-0.0008795968,0.9837684,-0.0005340576,-0.0004005432,-0.0016021729,-0.43294567,-0.01667344,9.797074,2,1683900789.2397757
-0.0428121,-0.0008795968,0.9837684,-0.0005340576,0.000667572,-0.0005340576,-0.43294567,-0.01667344,9.797074,2,1683900789.244968
-0.046466976,-0.002820776,0.9837684,-0.0005340576,0.000667572,-0.0005340576,-0.43294567,-0.01667344,9.797074,2,1683900789.2500842
-0.04305475,-0.0011222442,0.9810841,-0.0005340576,0.000667572,-0.0005340576,-0.43294567,-0.01667344,9.797074,2,1683900789.2602782
-0.04305475,-0.0011222442,0.9810841,-0.0005340576,0.000667572,-0.0005340576,-0.43290234,-0.0166007,9.797075,2,1683900789.265443
-0.04305475,-0.0011222442,0.9810841,0.0005340576,-0.0004005432,0.0005340576,-0.43290234,-0.0166007,9.797075,2,1683900789.2756798
-0.043297395,-0.0057628755,0.9832831,0.0005340576,-0.0004005432,0.0005340576,-0.43290234,-0.0166007,9.797075,2,1683900789.2859056
-0.043297395,-0.0057628755,0.9832831,-0.002670288,-0.0014686584,-0.0005340576,-0.43290234,-0.0166007,9.797075,2,1683900789.2910416
-0.043297395,-0.0057628755,0.9832831,-0.002670288,-0.0014686584,-0.0005340576,-0.43319896,-0.017163275,9.797062,2,1683900789.3013036
-0.043297395,-0.0057628755,0.9832831,-0.0016021729,-0.0014686584,-0.0005340576,-0.43319896,-0.017163275,9.797062,2,1683900789.3269806
-0.04037046,-0.0060055233,0.9820547,-0.0016021729,-0.0014686584,-0.0005340576,-0.43319896,-0.017163275,9.797062,2,1683900789.342324
-0.04378269,-0.0025781286,0.9820547,-0.0016021729,-0.0014686584,-0.0005340576,-0.43319896,-0.017163275,9.797062,2,1683900789.3526344
-0.04378269,-0.0025781286,0.9820547,-0.0005340576,0.000667572,-0.0016021729,-0.43319896,-0.017163275,9.797062,2,1683900789.3577986
-0.04378269,-0.0025781286,0.9820547,-0.0005340576,0.000667572,-0.0016021729,-0.4337625,-0.016071491,9.797039,2,1683900789.373248
-0.04378269,-0.0025781286,0.9820547,-0.0005340576,0.000667572,-0.0016021729,-0.43368253,-0.016261457,9.797043,2,1683900789.388661
-0.04378269,-0.0025781286,0.9820547,-0.0005340576,-0.0004005432,0.0005340576,-0.43368253,-0.016261457,9.797043,2,1683900789.399056
-0.042326804,-0.0020928339,0.9810841,-0.0005340576,-0.0004005432,0.0005340576,-0.43368253,-0.016261457,9.797043,2,1683900789.4042068
-0.042326804,-0.0020928339,0.9810841,-0.0005340576,-0.0004005432,0.0005340576,-0.43366742,-0.016131183,9.797043,2,1683900789.4247515
-0.042326804,-0.0020928339,0.9810841,0.0005340576,-0.0004005432,0.0005340576,-0.43366742,-0.016131183,9.797043,2,1683900789.4298792
-0.043540042,-0.000394302,0.9827826,0.0005340576,-0.0004005432,0.0005340576,-0.43366742,-0.016131183,9.797043,2,1683900789.4453437
-0.043540042,-0.000394302,0.9827826,0.0016021729,-0.0004005432,-0.0005340576,-0.43366742,-0.016131183,9.797043,2,1683900789.465984
-0.043540042,-0.000394302,0.9827826,-0.0005340576,-0.0004005432,0.0005340576,-0.43366742,-0.016131183,9.797043,2,1683900789.4711664
-0.043540042,-0.000394302,0.9827826,-0.0005340576,-0.0004005432,0.0005340576,-0.43364972,-0.015706666,9.797045,2,1683900789.4814966
-0.044768445,0.00034880562,0.98473895,-0.0005340576,-0.0004005432,0.0005340576,-0.43364972,-0.015706666,9.797045,2,1683900789.486622
-0.04378269,-0.0008795968,0.9837684,-0.0005340576,-0.0004005432,0.0005340576,-0.43364972,-0.015706666,9.797045,2,1683900789.4917693
-0.04378269,-0.0008795968,0.9837684,-0.0005340576,-0.0004005432,0.0005340576,-0.43370974,-0.015426579,9.797043,2,1683900789.5071695
-0.045739036,-0.002820776,0.98084146,-0.0005340576,-0.0004005432,0.0005340576,-0.43370974,-0.015426579,9.797043,2,1683900789.527681
-0.045739036,-0.002820776,0.98084146,0.0005340576,-0.0014686584,0.0005340576,-0.43370974,-0.015426579,9.797043,2,1683900789.5328407
-0.045739036,-0.002820776,0.98084146,0.0005340576,-0.0014686584,0.0005340576,-0.43383247,-0.015506168,9.797037,2,1683900789.5533814
-0.045739036,-0.002820776,0.98084146,0.0005340576,-0.0014686584,0.0005340576,-0.43331182,-0.015264247,9.797061,2,1683900789.5840573
-0.04184151,-0.0018501864,0.98669535,0.0005340576,-0.0014686584,0.0005340576,-0.43331182,-0.015264247,9.797061,2,1683900789.5891688
-0.04184151,-0.0018501864,0.98669535,-0.0005340576,-0.0004005432,0.0005340576,-0.43331182,-0.015264247,9.797061,2,1683900789.5942712
-0.04184151,-0.0018501864,0.98669535,0.0005340576,-0.0004005432,-0.0016021729,-0.43331182,-0.015264247,9.797061,2,1683900789.6045127
-0.041098405,-0.0013648917,0.9805988,0.0005340576,-0.0004005432,-0.0016021729,-0.43331182,-0.015264247,9.797061,2,1683900789.609701
-0.041098405,-0.0013648917,0.9805988,0.0005340576,-0.0004005432,-0.0016021729,-0.4331051,-0.015228164,9.79707,2,1683900789.6303225
-0.041098405,-0.0013648917,0.9805988,-0.0005340576,-0.0004005432,-0.0016021729,-0.4331051,-0.015228164,9.79707,2,1683900789.635491
-0.04037046,0.00010615824,0.98084146,-0.0005340576,-0.0004005432,-0.0016021729,-0.4331051,-0.015228164,9.79707,2,1683900789.6457715
-0.04037046,0.00010615824,0.98084146,-0.0005340576,-0.0004005432,-0.0016021729,-0.4327791,-0.015586142,9.797084,2,1683900789.6612642
-0.04037046,0.00010615824,0.98084146,-0.0005340576,-0.0004005432,-0.0016021729,-0.4329416,-0.01563089,9.797076,2,1683900789.666411
-0.045739036,-0.0008795968,0.98254,-0.0005340576,-0.0004005432,-0.0016021729,-0.4329416,-0.01563089,9.797076,2,1683900789.676706
-0.045739036,-0.0008795968,0.98254,-0.0005340576,-0.0004005432,-0.0016021729,-0.43309104,-0.015619736,9.79707,2,1683900789.6921883
-0.045739036,-0.0008795968,0.98254,0.0005340576,0.000667572,-0.0005340576,-0.43309104,-0.015619736,9.79707,2,1683900789.697365
-0.045739036,-0.0008795968,0.98254,0.0005340576,-0.0004005432,-0.0005340576,-0.43309104,-0.015619736,9.79707,2,1683900789.8003337
-0.045739036,-0.0008795968,0.98254,0.0005340576,-0.0004005432,-0.0005340576,-0.4328498,-0.015874859,9.797079,2,1683900789.810629
-0.04134105,-0.0038065312,0.9783998,0.0005340576,-0.0004005432,-0.0005340576,-0.4328498,-0.015874859,9.797079,2,1683900789.815775
-0.04134105,-0.0038065312,0.9783998,-0.0005340576,0.000667572,-0.0005340576,-0.4328498,-0.015874859,9.797079,2,1683900789.8260329
-0.04134105,-0.0038065312,0.9783998,0.0005340576,-0.0004005432,-0.0005340576,-0.4328498,-0.015874859,9.797079,2,1683900789.8517554
-0.04305475,-0.002820776,0.98181206,0.0005340576,-0.0004005432,-0.0005340576,-0.4328498,-0.015874859,9.797079,2,1683900789.8568935
-0.04305475,-0.002820776,0.98181206,0.0005340576,-0.0004005432,-0.0005340576,-0.43282598,-0.015796768,9.797081,2,1683900789.877518
-0.04305475,-0.002820776,0.98181206,0.0005340576,-0.0004005432,-0.0005340576,-0.43294376,-0.016110208,9.797075,2,1683900789.8878288
-0.04184151,-0.003078589,0.98084146,0.0005340576,-0.0004005432,-0.0005340576,-0.43294376,-0.016110208,9.797075,2,1683900789.8981345
-0.04184151,-0.003078589,0.98084146,-0.0005340576,0.000667572,0.0005340576,-0.43294376,-0.016110208,9.797075,2,1683900789.9185982
-0.04184151,-0.003078589,0.98084146,-0.0005340576,-0.0004005432,0.0005340576,-0.43294376,-0.016110208,9.797075,2,1683900789.9237576
-0.043540042,-0.0020928339,0.97961307,-0.0005340576,-0.0004005432,0.0005340576,-0.43294376,-0.016110208,9.797075,2,1683900789.9289367
-0.043540042,-0.0020928339,0.97961307,-0.0005340576,-0.0004005432,0.0005340576,-0.4329464,-0.016175319,9.797075,2,1683900789.9495447
-0.042569455,0.00010615824,0.9827826,-0.0005340576,-0.0004005432,0.0005340576,-0.4329464,-0.016175319,9.797075,2,1683900789.95986
-0.042569455,0.00010615824,0.9827826,0.0005340576,-0.0004005432,-0.0005340576,-0.4329464,-0.016175319,9.797075,2,1683900789.9650195
-0.042569455,0.00010615824,0.9827826,0.0005340576,-0.0004005432,-0.0005340576,-0.43303114,-0.015784673,9.797071,2,1683900789.990776
-0.042569455,0.00010615824,0.9827826,-0.0016021729,-0.0004005432,-0.0016021729,-0.43303114,-0.015784673,9.797071,2,1683900790.0062413
-0.04305475,-0.0018501864,0.9820547,-0.0016021729,-0.0004005432,-0.0016021729,-0.43303114,-0.015784673,9.797071,2,1683900790.011381
-0.04305475,-0.0018501864,0.9820547,-0.0016021729,-0.0004005432,-0.0016021729,-0.43303826,-0.01601799,9.7970705,2,1683900790.023044
-0.04305475,-0.0018501864,0.9820547,-0.0016021729,-0.0004005432,-0.0016021729,-0.43305308,-0.015689177,9.7970705,2,1683900790.0282893
-0.04305475,-0.0018501864,0.9820547,0.0005340576,-0.0004005432,-0.0005340576,-0.43305308,-0.015689177,9.7970705,2,1683900790.0334244
-0.04378269,0.0020473374,0.9815694,0.0005340576,-0.0004005432,-0.0005340576,-0.43305308,-0.015689177,9.7970705,2,1683900790.0438452
-0.04378269,0.0020473374,0.9815694,0.0005340576,-0.0004005432,-0.0005340576,-0.43128404,-0.015801901,9.797149,2,1683900790.0594225
-0.04378269,0.0020473374,0.9815694,-0.0048065186,-0.0472641,-0.0016021729,-0.43128404,-0.015801901,9.797149,2,1683900790.06466
-0.043540042,-0.0011222442,0.98962224,-0.025100708,-0.12283325,-0.0005340576,-0.42530766,-0.016980944,9.797409,2,1683900790.0699942
-0.04037046,-0.0018501864,0.9915786,-0.0048065186,-0.021629333,-0.0005340576,-0.42530766,-0.016980944,9.797409,2,1683900790.0752344
