acc_x,acc_y,acc_z,gyr_x,gyr_y,gyr_z,grav_x,grav_y,grav_z,label,timestamp
-0.008415125,0.02792846,0.9978631,0.0013744468,-0.00061086525,0.0009162979,-0.08367821,0.25902265,9.806223,2,1683969879.7035427
-0.008415125,0.02792846,0.9978631,0.0013744468,-0.0018325958,-0.00030543262,-0.08367821,0.25902265,9.806223,2,1683969879.7812154
-0.0060369377,0.02792846,1.0012779,-0.0010690142,0.0018325958,0.0009162979,-0.083511636,0.25937092,9.806215,2,1683969879.7864408
-0.0060369377,0.02792846,1.0012779,-0.0010690142,0.0018325958,0.0009162979,-0.08327711,0.259517,9.806213,2,1683969879.7916071
-0.0075004376,0.02792846,1.0012779,-0.0010690142,0.0018325958,0.0009162979,-0.08327711,0.259517,9.806213,2,1683969879.791616
-0.0075004376,0.02792846,1.0012779,0.00015271631,-0.004276057,0.0009162979,-0.08327711,0.259517,9.806213,2,1683969879.8018577
-0.0074394583,0.027440626,0.998351,0.00015271631,-0.004276057,0.0009162979,-0.08327711,0.259517,9.806213,2,1683969879.8223884
-0.0074394583,0.027440626,0.998351,0.00015271631,-0.004276057,0.0009162979,-0.08312673,0.2594814,9.806215,2,1683969879.8275151
-0.0074394583,0.027440626,0.998351,0.0013744468,-0.00061086525,-0.0015271631,-0.08312673,0.2594814,9.806215,2,1683969879.832651
-0.0074394583,0.027440626,0.998351,-0.0010690142,-0.0030543262,-0.00030543262,-0.08312673,0.2594814,9.806215,2,1683969879.8429074
-0.0074394583,0.027440626,0.998351,-0.0010690142,-0.0030543262,-0.00030543262,-0.082972646,0.2594667,9.806217,2,1683969879.8582718
-0.009878625,0.027440626,0.9993266,-0.0010690142,-0.0030543262,-0.00030543262,-0.082972646,0.2594667,9.806217,2,1683969879.8736172
-0.008902958,0.025001459,0.9993266,-0.0010690142,-0.0030543262,-0.00030543262,-0.082972646,0.2594667,9.806217,2,1683969879.8787472
-0.008902958,0.025001459,0.9993266,-0.0010690142,-0.0030543262,-0.00030543262,-0.082829766,0.25936657,9.806221,2,1683969879.8890219
-0.008902958,0.025001459,0.9993266,-0.0010690142,0.0030543262,0.0021380284,-0.082829766,0.25936657,9.806221,2,1683969879.9043756
-0.009939604,0.025977125,1.0003022,-0.0010690142,0.0030543262,0.0021380284,-0.082829766,0.25936657,9.806221,2,1683969879.9248972
-0.009939604,0.025977125,1.0003022,-0.0010690142,-0.00061086525,0.0009162979,-0.082829766,0.25936657,9.806221,2,1683969879.9402878
-0.009939604,0.025977125,1.0003022,-0.0010690142,-0.00061086525,0.0009162979,-0.08295865,0.25908533,9.806228,2,1683969879.945419
-0.007927292,0.024513626,0.9978631,-0.0010690142,-0.00061086525,0.0009162979,-0.08295865,0.25908533,9.806228,2,1683969879.955678
-0.007927292,0.024513626,0.9978631,0.00015271631,-0.004276057,0.0009162979,-0.08295865,0.25908533,9.806228,2,1683969879.960808
-0.007927292,0.024513626,0.9978631,0.00015271631,-0.004276057,0.0009162979,-0.08288337,0.2589862,9.806231,2,1683969879.981284
-0.008415125,0.024513626,0.9945092,0.00015271631,-0.004276057,0.0009162979,-0.08288337,0.2589862,9.806231,2,1683969879.986415
-0.008415125,0.024513626,0.9945092,0.00015271631,-0.004276057,0.0009162979,-0.08272011,0.25894645,9.806233,2,1683969879.99666
-0.008415125,0.024513626,0.9945092,-0.0022907446,-0.0032070426,0.0009162979,-0.08272011,0.25894645,9.806233,2,1683969880.0120306
-0.008902958,0.024513626,0.9998144,-0.0022907446,-0.0032070426,0.0009162979,-0.08272011,0.25894645,9.806233,2,1683969880.0325456
-0.008902958,0.024513626,0.9998144,-0.0022907446,-0.0032070426,0.0009162979,-0.08256218,0.25888875,9.806236,2,1683969880.037676
-0.008902958,0.024513626,0.9998144,0.0013744468,-0.00061086525,-0.00030543262,-0.08256218,0.25888875,9.806236,2,1683969880.0428033
-0.009451771,0.02646496,0.9998144,0.0013744468,-0.00061086525,-0.00030543262,-0.08256218,0.25888875,9.806236,2,1683969880.0632775
-0.009451771,0.02646496,0.9998144,0.0013744468,-0.00061086525,-0.00030543262,-0.08251898,0.2590483,9.806232,2,1683969880.078663
-0.009451771,0.02646496,0.9998144,0.0050396384,-0.004276057,0.0022907446,-0.08251898,0.2590483,9.806232,2,1683969880.0838032
-0.009451771,0.02646496,0.9998144,0.0013744468,-0.00061086525,0.0009162979,-0.08251898,0.2590483,9.806232,2,1683969880.0940638
-0.009451771,0.02646496,0.9998144,0.0013744468,-0.00061086525,0.0009162979,-0.08236728,0.25936192,9.806225,2,1683969880.0991905
-0.008415125,0.025001459,0.9988388,0.0013744468,-0.00061086525,0.0009162979,-0.08236728,0.25936192,9.806225,2,1683969880.109448
-0.008415125,0.02646496,0.9988388,0.0013744468,-0.00061086525,0.0009162979,-0.08236728,0.25936192,9.806225,2,1683969880.1350803
-0.008415125,0.02646496,0.9988388,0.0013744468,-0.00061086525,0.0009162979,-0.08230373,0.2594735,9.806223,2,1683969880.1504726
-0.008415125,0.02646496,0.9988388,0.00015271631,-0.0018325958,-0.00030543262,-0.08230373,0.2594735,9.806223,2,1683969880.1606934
-0.0069516255,0.02695279,0.9998144,0.00015271631,-0.0018325958,-0.00030543262,-0.08230373,0.2594735,9.806223,2,1683969880.1812093
-0.0069516255,0.02695279,0.9998144,0.00015271631,-0.0018325958,-0.00030543262,-0.08218324,0.25950497,9.806223,2,1683969880.1863427
-0.0069516255,0.02695279,0.9998144,-0.0022907446,-0.00061086525,0.0009162979,-0.08218324,0.25950497,9.806223,2,1683969880.1914666
-0.00798827,0.029879792,0.9998144,-0.0022907446,-0.00061086525,0.0009162979,-0.08218324,0.25950497,9.806223,2,1683969880.2068424
-0.00798827,0.029879792,0.9998144,-0.0022907446,-0.00061086525,0.0009162979,-0.08210243,0.25943807,9.806226,2,1683969880.2119625
-0.00798827,0.029879792,0.9998144,-0.0010690142,0.00061086525,-0.00030543262,-0.08210243,0.25943807,9.806226,2,1683969880.222186
-0.00798827,0.029879792,0.9998144,-0.0010690142,0.00061086525,-0.00030543262,-0.082011744,0.25937772,9.806229,2,1683969880.2426121
-0.0064637917,0.02695279,0.998351,-0.0010690142,0.00061086525,-0.00030543262,-0.082011744,0.25937772,9.806229,2,1683969880.252866
-0.0064637917,0.02695279,0.998351,0.00015271631,0.0018325958,-0.00030543262,-0.082011744,0.25937772,9.806229,2,1683969880.257996
-0.008415125,0.025489293,0.998351,0.00015271631,0.0018325958,-0.00030543262,-0.082011744,0.25937772,9.806229,2,1683969880.273393
-0.008415125,0.025489293,0.998351,-0.0022907446,-0.0032070426,0.0009162979,-0.082011744,0.25937772,9.806229,2,1683969880.2785192
-0.008415125,0.025489293,0.998351,-0.0022907446,-0.0032070426,0.0009162979,-0.08217992,0.2593394,9.806228,2,1683969880.2989311
-0.008415125,0.025489293,0.998351,-0.0022907446,-0.0032070426,0.0009162979,-0.082151584,0.2592697,9.806231,2,1683969880.3091033
-0.008415125,0.025489293,0.998351,0.00015271631,0.00061086525,-0.00030543262,-0.082151584,0.2592697,9.806231,2,1683969880.3141918
-0.009878625,0.027440626,0.9988388,0.00015271631,0.00061086525,-0.00030543262,-0.082151584,0.2592697,9.806231,2,1683969880.3345191
-0.008415125,0.025977125,0.998351,0.00015271631,0.00061086525,-0.00030543262,-0.082151584,0.2592697,9.806231,2,1683969880.344777
-0.008415125,0.025977125,0.998351,-0.0010690142,0.0018325958,0.0021380284,-0.082151584,0.2592697,9.806231,2,1683969880.3499076
-0.008415125,0.025977125,0.998351,-0.0010690142,0.0018325958,0.0021380284,-0.08225355,0.2592501,9.806229,2,1683969880.3704224
-0.008415125,0.025977125,0.998351,-0.0010690142,0.0018325958,0.0021380284,-0.08231124,0.25929144,9.806228,2,1683969880.3806832
-0.008415125,0.025977125,0.998351,0.00015271631,-0.00061086525,0.0009162979,-0.08231124,0.25929144,9.806228,2,1683969880.390906
-0.009878625,0.025489293,0.9978631,0.00015271631,-0.00061086525,0.0009162979,-0.08231124,0.25929144,9.806228,2,1683969880.4112806
-0.009878625,0.025489293,0.9978631,0.00015271631,-0.00061086525,0.0009162979,-0.082311705,0.25928238,9.806229,2,1683969880.4164116
-0.009878625,0.025489293,0.9978631,-0.0010690142,0.0018325958,0.0009162979,-0.082311705,0.25928238,9.806229,2,1683969880.4215386
-0.007927292,0.025001459,0.9988388,-0.0010690142,0.0018325958,0.0009162979,-0.082311705,0.25928238,9.806229,2,1683969880.4420528
-0.008415125,0.025489293,0.9993266,-0.0010690142,0.0018325958,0.0009162979,-0.082311705,0.25928238,9.806229,2,1683969880.4523077
-0.008415125,0.025489293,0.9993266,0.00015271631,0.00061086525,-0.00030543262,-0.082311705,0.25928238,9.806229,2,1683969880.457412
-0.008415125,0.025489293,0.9993266,0.00015271631,0.00061086525,-0.00030543262,-0.08220175,0.25923225,9.806231,2,1683969880.467625
-0.008902958,0.023537958,0.9978631,0.00015271631,0.00061086525,-0.00030543262,-0.08220175,0.25923225,9.806231,2,1683969880.4983435
-0.008902958,0.023537958,0.9978631,0.00015271631,-0.00061086525,-0.00030543262,-0.08220175,0.25923225,9.806231,2,1683969880.508541
-0.008902958,0.023537958,0.9978631,0.00015271631,-0.00061086525,-0.00030543262,-0.08231888,0.2592115,9.80623,2,1683969880.518794
-0.008902958,0.023537958,0.9978631,0.00015271631,-0.00061086525,-0.00030543262,-0.082291454,0.25922918,9.80623,2,1683969880.5238907
-0.008902958,0.02695279,0.9978631,0.00015271631,-0.00061086525,-0.00030543262,-0.082291454,0.25922918,9.80623,2,1683969880.5391998
-0.008902958,0.02695279,0.9978631,0.00015271631,-0.0056505036,-0.00030543262,-0.082291454,0.25922918,9.80623,2,1683969880.5494466
-0.009939604,0.025489293,0.9998144,0.00015271631,-0.0056505036,-0.00030543262,-0.082291454,0.25922918,9.80623,2,1683969880.5750926
-0.009939604,0.025489293,0.9998144,0.0013744468,0.00061086525,0.0009162979,-0.0820703,0.25927097,9.806231,2,1683969880.580204
-0.008902958,0.025977125,0.9968874,0.0013744468,0.00061086525,0.0009162979,-0.0820703,0.25927097,9.806231,2,1683969880.5904558
-0.008902958,0.025977125,0.9968874,0.0013744468,0.00061086525,0.0009162979,-0.08189318,0.25955066,9.806224,2,1683969880.6006434
-0.008902958,0.025977125,0.9968874,-0.0010690142,-0.0056505036,-0.0015271631,-0.08189318,0.25955066,9.806224,2,1683969880.6108487
-0.008902958,0.025977125,0.9968874,-0.0010690142,-0.0056505036,-0.0015271631,-0.08183599,0.25952664,9.806226,2,1683969880.6210597
-0.008902958,0.025977125,0.9968874,0.00015271631,0.0030543262,0.0009162979,-0.08183599,0.25952664,9.806226,2,1683969880.6414855
-0.0074394583,0.025001459,0.998351,0.00015271631,0.0030543262,0.0009162979,-0.08183599,0.25952664,9.806226,2,1683969880.6466248
-0.0074394583,0.025977125,0.9988388,0.00015271631,0.0030543262,0.0009162979,-0.08183599,0.25952664,9.806226,2,1683969880.651755
-0.0074394583,0.025977125,0.9988388,0.00015271631,-0.0018325958,-0.0015271631,-0.08183599,0.25952664,9.806226,2,1683969880.6620064
-0.0074394583,0.025977125,0.9988388,0.00015271631,-0.0018325958,-0.0015271631,-0.08186687,0.25951904,9.806225,2,1683969880.6773894
-0.008415125,0.025977125,0.998351,0.00015271631,-0.0018325958,-0.0015271631,-0.08186687,0.25951904,9.806225,2,1683969880.6927803
-0.008415125,0.025977125,0.998351,0.0013744468,-0.004276057,0.0009162979,-0.08186687,0.25951904,9.806225,2,1683969880.7029626
-0.008415125,0.025977125,0.998351,0.0013744468,-0.004276057,0.0009162979,-0.08178001,0.2595213,9.806226,2,1683969880.708098
-0.008415125,0.025977125,0.998351,0.00015271631,0.004276057,0.0009162979,-0.08178001,0.2595213,9.806226,2,1683969880.7439265
-0.008415125,0.025977125,0.998351,0.00015271631,0.004276057,0.0009162979,-0.08169862,0.25958616,9.806225,2,1683969880.749059
-0.007927292,0.02695279,0.998351,0.00015271631,0.004276057,0.0009162979,-0.08169862,0.25958616,9.806225,2,1683969880.7541943
-0.009939604,0.02695279,0.9998144,0.00015271631,0.004276057,0.0009162979,-0.08169862,0.25958616,9.806225,2,1683969880.759284
-0.009939604,0.02695279,0.9998144,0.0013744468,-0.0030543262,0.0009162979,-0.08169862,0.25958616,9.806225,2,1683969880.7746797
-0.009939604,0.02695279,0.9998144,0.0013744468,-0.0030543262,0.0009162979,-0.08186919,0.25961307,9.806223,2,1683969880.7849374
-0.008415125,0.025001459,0.9973753,0.0013744468,-0.0030543262,0.0009162979,-0.08186919,0.25961307,9.806223,2,1683969880.7951784
-0.008415125,0.025001459,0.9973753,-0.0010690142,-0.00061086525,-0.00030543262,-0.08186919,0.25961307,9.806223,2,1683969880.8104517
-0.008415125,0.025001459,0.9973753,-0.0010690142,-0.00061086525,-0.00030543262,-0.08169646,0.2596318,9.806224,2,1683969880.820637
-0.009390792,0.024513626,0.9968874,-0.0010690142,-0.00061086525,-0.00030543262,-0.08169646,0.2596318,9.806224,2,1683969880.8411522
-0.009390792,0.024513626,0.9968874,0.0013744468,0.0018325958,0.0009162979,-0.08169646,0.2596318,9.806224,2,1683969880.8514
-0.009390792,0.024513626,0.9968874,0.0013744468,0.0018325958,0.0009162979,-0.08179794,0.25957996,9.806224,2,1683969880.8616645
-0.009390792,0.024513626,0.9968874,0.0013744468,0.0018325958,0.0009162979,-0.08191086,0.2595109,9.806226,2,1683969880.866796
-0.009390792,0.024513626,0.9968874,0.0025961774,-0.00061086525,0.0021380284,-0.08191086,0.2595109,9.806226,2,1683969880.8719382
-0.008902958,0.025001459,0.9998144,0.0025961774,-0.00061086525,0.0021380284,-0.08191086,0.2595109,9.806226,2,1683969880.887287
-0.008415125,0.023537958,0.9963996,0.0025961774,-0.00061086525,0.0021380284,-0.08191086,0.2595109,9.806226,2,1683969880.9026697
-0.008415125,0.023537958,0.9963996,0.0025961774,-0.00061086525,0.0021380284,-0.08189315,0.25962263,9.806223,2,1683969880.9231362
-0.008415125,0.023537958,0.9963996,-0.0022907446,0.00061086525,0.0021380284,-0.08189315,0.25962263,9.806223,2,1683969880.9333947
-0.008415125,0.023537958,0.9963996,-0.0022907446,0.00061086525,0.0021380284,-0.0819076,0.25959548,9.806223,2,1683969880.9436529
-0.008415125,0.023537958,0.9963996,0.0013744468,0.00061086525,0.0009162979,-0.0819076,0.25959548,9.806223,2,1683969880.9487953
-0.008902958,0.02646496,0.9973753,0.0013744468,0.00061086525,0.0009162979,-0.0819076,0.25959548,9.806223,2,1683969880.9539192
-0.008902958,0.02646496,0.9993266,0.0013744468,0.00061086525,0.0009162979,-0.0819076,0.25959548,9.806223,2,1683969880.9949174
-0.008902958,0.02646496,0.9993266,0.0013744468,0.00061086525,0.0009162979,-0.08199123,0.2595814,9.806223,2,1683969881.0000067
-0.008902958,0.02646496,0.9993266,0.00015271631,-0.0030543262,-0.00030543262,-0.08199123,0.2595814,9.806223,2,1683969881.0051444
-0.008902958,0.02646496,0.9993266,0.00015271631,-0.0030543262,-0.00030543262,-0.08176495,0.25965637,9.806223,2,1683969881.020497
-0.008415125,0.025489293,0.9993266,0.00015271631,-0.0030543262,-0.00030543262,-0.08176495,0.25965637,9.806223,2,1683969881.025589
-0.008415125,0.025489293,0.9993266,-0.0010690142,-0.00061086525,0.0009162979,-0.08176495,0.25965637,9.806223,2,1683969881.030721
-0.008415125,0.025489293,0.9993266,0.0013744468,0.00061086525,-0.0015271631,-0.08176495,0.25965637,9.806223,2,1683969881.0563364
-0.0069516255,0.02695279,0.9993266,0.0013744468,0.00061086525,-0.0015271631,-0.08176495,0.25965637,9.806223,2,1683969881.0665977
-0.0069516255,0.02695279,0.9993266,0.0013744468,0.00061086525,-0.0015271631,-0.08174091,0.25963724,9.806224,2,1683969881.076859
-0.008415125,0.02792846,0.9978631,0.0013744468,0.00061086525,-0.0015271631,-0.08174091,0.25963724,9.806224,2,1683969881.0820165
-0.008415125,0.02792846,0.9978631,0.0013744468,0.00061086525,-0.0015271631,-0.081692845,0.25961643,9.806224,2,1683969881.097402
-0.008415125,0.02792846,0.9978631,0.0013744468,0.0018325958,0.0009162979,-0.081692845,0.25961643,9.806224,2,1683969881.102532
-0.008415125,0.02792846,0.9978631,0.0013744468,0.0018325958,0.0009162979,-0.08165176,0.25957033,9.806226,2,1683969881.1179075
-0.010427438,0.025977125,0.9998144,0.0013744468,0.0018325958,0.0009162979,-0.08165176,0.25957033,9.806226,2,1683969881.1229987
-0.0074394583,0.02695279,0.998351,0.0013744468,0.0018325958,0.0009162979,-0.08165176,0.25957033,9.806226,2,1683969881.1434247
-0.0074394583,0.02695279,0.998351,0.0013744468,0.0018325958,0.0009162979,-0.081742175,0.259705,9.806221,2,1683969881.148556
-0.0074394583,0.02695279,0.998351,-0.0010690142,0.00061086525,0.0009162979,-0.081742175,0.259705,9.806221,2,1683969881.153651
-0.0074394583,0.02695279,0.998351,0.00015271631,0.0018325958,-0.0015271631,-0.081742175,0.259705,9.806221,2,1683969881.1895156
-0.009390792,0.025977125,0.9988388,0.00015271631,0.0018325958,-0.0015271631,-0.081742175,0.259705,9.806221,2,1683969881.1946383
-0.009390792,0.025977125,0.9988388,0.00015271631,0.0018325958,-0.0015271631,-0.081820354,0.2596622,9.806222,2,1683969881.1997716
-0.009390792,0.025977125,0.9988388,-0.0035124752,0.0030543262,-0.00030543262,-0.081820354,0.2596622,9.806222,2,1683969881.2151425
-0.0074394583,0.025977125,0.9973753,-0.0035124752,0.0030543262,-0.00030543262,-0.081820354,0.2596622,9.806222,2,1683969881.2304914
-0.0074394583,0.025977125,0.9973753,-0.0035124752,0.0030543262,-0.00030543262,-0.0816494,0.2597414,9.806221,2,1683969881.2356076
-0.0074394583,0.025977125,0.9973753,0.00015271631,-0.004276057,-0.00030543262,-0.0816494,0.2597414,9.806221,2,1683969881.2561224
-0.0074394583,0.025977125,0.9973753,0.00015271631,-0.004276057,-0.00030543262,-0.081518374,0.25966427,9.806224,2,1683969881.2612529
-0.0074394583,0.027440626,0.9988388,0.00015271631,-0.004276057,-0.00030543262,-0.081518374,0.25966427,9.806224,2,1683969881.2663877
-0.0074394583,0.027440626,0.9988388,0.00015271631,-0.004276057,-0.00030543262,-0.08144761,0.2596517,9.806226,2,1683969881.2919474
-0.010366458,0.024513626,0.9968874,0.00015271631,-0.004276057,-0.00030543262,-0.08144761,0.2596517,9.806226,2,1683969881.297044
-0.010366458,0.024513626,0.9968874,0.0013744468,-0.00061086525,-0.00030543262,-0.08144761,0.2596517,9.806226,2,1683969881.3072507
-0.010366458,0.024513626,0.9968874,0.00015271631,0.00061086525,-0.0015271631,-0.08144761,0.2596517,9.806226,2,1683969881.3276684
-0.007927292,0.02695279,0.9993266,0.00015271631,0.00061086525,-0.0015271631,-0.08144761,0.2596517,9.806226,2,1683969881.3379135
-0.007927292,0.02695279,0.9993266,0.00015271631,0.00061086525,-0.0015271631,-0.081524774,0.2596894,9.806224,2,1683969881.3430393
-0.007927292,0.02695279,0.9993266,0.00015271631,0.00061086525,-0.0015271631,-0.08160037,0.2598698,9.806218,2,1683969881.3481345
-0.009390792,0.02695279,0.9973753,0.00015271631,0.00061086525,-0.0015271631,-0.08160037,0.2598698,9.806218,2,1683969881.3532703
-0.009390792,0.02695279,0.9973753,0.0013744468,-0.00061086525,0.0009162979,-0.08160037,0.2598698,9.806218,2,1683969881.3737357
-0.00798827,0.02792846,0.9998144,0.0013744468,-0.00061086525,0.0009162979,-0.08160037,0.2598698,9.806218,2,1683969881.4146438
-0.00798827,0.02792846,0.9998144,-0.0022907446,-0.001985312,-0.00030543262,-0.08160037,0.2598698,9.806218,2,1683969881.4197345
-0.00798827,0.02792846,0.9998144,-0.0022907446,-0.001985312,-0.00030543262,-0.08198228,0.25990397,9.806214,2,1683969881.4299252
-0.008415125,0.02646496,0.9973753,-0.0022907446,-0.001985312,-0.00030543262,-0.08198228,0.25990397,9.806214,2,1683969881.4350388
-0.008415125,0.02646496,0.9973753,0.00015271631,0.0018325958,-0.0027488936,-0.08198228,0.25990397,9.806214,2,1683969881.4504206
-0.008415125,0.02646496,0.9973753,0.00015271631,0.0018325958,-0.0027488936,-0.081724845,0.2598163,9.806219,2,1683969881.460602
-0.008415125,0.02646496,0.9973753,-0.0022907446,0.0018325958,0.0009162979,-0.081724845,0.2598163,9.806219,2,1683969881.4913306
-0.008415125,0.02646496,0.9973753,-0.0022907446,0.0018325958,0.0009162979,-0.08177858,0.2597838,9.80622,2,1683969881.4964204
-0.009390792,0.025489293,0.998351,-0.0022907446,0.0018325958,0.0009162979,-0.08177858,0.2597838,9.80622,2,1683969881.501547
-0.009390792,0.025489293,0.998351,-0.0010690142,-0.00061086525,-0.00030543262,-0.08177858,0.2597838,9.80622,2,1683969881.5066805
-0.009390792,0.025489293,0.998351,-0.0010690142,-0.00061086525,-0.00030543262,-0.08191125,0.25975582,9.806219,2,1683969881.516903
-0.009390792,0.027440626,0.9978631,-0.0010690142,-0.00061086525,-0.00030543262,-0.08191125,0.25975582,9.806219,2,1683969881.537311
-0.009390792,0.027440626,0.9978631,0.00015271631,0.00061086525,-0.00030543262,-0.08191125,0.25975582,9.806219,2,1683969881.5578122
-0.009390792,0.02792846,0.9978631,0.00015271631,0.00061086525,-0.00030543262,-0.08191125,0.25975582,9.806219,2,1683969881.562971
-0.009390792,0.02792846,0.9978631,0.00015271631,0.00061086525,-0.00030543262,-0.08191072,0.2597564,9.806219,2,1683969881.5732234
-0.0074394583,0.024513626,0.9964606,0.00015271631,0.00061086525,-0.00030543262,-0.08191072,0.2597564,9.806219,2,1683969881.5937295
-0.0074394583,0.024513626,0.9964606,0.00015271631,0.00061086525,-0.00030543262,-0.082083784,0.25970116,9.806218,2,1683969881.5988622
-0.0074394583,0.024513626,0.9964606,-0.0010690142,-0.0018325958,0.0009162979,-0.082083784,0.25970116,9.806218,2,1683969881.603989
-0.0074394583,0.024513626,0.9964606,0.00015271631,-0.0018325958,-0.0015271631,-0.082083784,0.25970116,9.806218,2,1683969881.614203
-0.009878625,0.025001459,0.9993266,0.00015271631,-0.0018325958,-0.0015271631,-0.082083784,0.25970116,9.806218,2,1683969881.6192977
-0.009878625,0.025001459,0.9993266,0.00015271631,-0.0018325958,-0.0015271631,-0.081978396,0.25965533,9.806221,2,1683969881.6397605
-0.009878625,0.025001459,0.9993266,0.00015271631,-0.0018325958,-0.0015271631,-0.08188147,0.25964886,9.806221,2,1683969881.660242
-0.009878625,0.025001459,0.9993266,-0.0022907446,-0.001985312,-0.0015271631,-0.08188147,0.25964886,9.806221,2,1683969881.6653686
-0.008902958,0.025977125,0.9973753,-0.0022907446,-0.001985312,-0.0015271631,-0.08188147,0.25964886,9.806221,2,1683969881.6704876
-0.009390792,0.024513626,0.9988388,-0.0022907446,-0.001985312,-0.0015271631,-0.08188147,0.25964886,9.806221,2,1683969881.6807597
-0.009390792,0.024513626,0.9988388,-0.0012217305,-0.0030543262,-0.00030543262,-0.08188147,0.25964886,9.806221,2,1683969881.69102
-0.009390792,0.024513626,0.9988388,-0.0012217305,-0.0030543262,-0.00030543262,-0.081563056,0.25938246,9.8062315,2,1683969881.696149
-0.009390792,0.024513626,0.9988388,-0.0012217305,-0.0030543262,-0.00030543262,-0.08150192,0.25929,9.806234,2,1683969881.7115312
-0.0074394583,0.025977125,0.9978631,-0.0012217305,-0.0030543262,-0.00030543262,-0.08150192,0.25929,9.806234,2,1683969881.7371411
-0.0074394583,0.025977125,0.9978631,-0.0012217305,-0.00045814895,-0.00030543262,-0.08150192,0.25929,9.806234,2,1683969881.7422657
-0.007927292,0.025001459,0.9973753,-0.0012217305,-0.00045814895,-0.00030543262,-0.08150192,0.25929,9.806234,2,1683969881.762697
-0.007927292,0.025001459,0.9973753,0.0012217305,0.00076358154,-0.00030543262,-0.08150192,0.25929,9.806234,2,1683969881.7678251
-0.007927292,0.025001459,0.9973753,0.0012217305,0.00076358154,-0.00030543262,-0.08158891,0.2591644,9.806237,2,1683969881.7780826
-0.007927292,0.025001459,0.9973753,0.002443461,0.0032070426,-0.0015271631,-0.08158891,0.2591644,9.806237,2,1683969881.793444
-0.007927292,0.025001459,0.9973753,0.002443461,0.0032070426,-0.0015271631,-0.08155254,0.25930536,9.806233,2,1683969881.7985723
-0.009390792,0.024025792,0.9993266,0.002443461,0.0032070426,-0.0015271631,-0.08155254,0.25930536,9.806233,2,1683969881.8037019
-0.009390792,0.024025792,0.9993266,-0.0012217305,0.0032070426,0.0009162979,-0.08155254,0.25930536,9.806233,2,1683969881.8242047
-0.009390792,0.024025792,0.9993266,-0.0012217305,0.0032070426,0.0009162979,-0.08166786,0.25933865,9.8062315,2,1683969881.839605
-0.009390792,0.025489293,0.9988388,-0.0012217305,0.0032070426,0.0009162979,-0.08166786,0.25933865,9.8062315,2,1683969881.844737
-0.008415125,0.02646496,0.9978631,-0.0012217305,0.0032070426,0.0009162979,-0.08166786,0.25933865,9.8062315,2,1683969881.8652308
-0.008415125,0.02646496,0.9978631,0.0012217305,-0.00045814895,-0.00030543262,-0.08166786,0.25933865,9.8062315,2,1683969881.8703644
-0.008415125,0.02646496,0.9978631,0.0012217305,-0.00045814895,-0.00030543262,-0.08180151,0.25931334,9.8062315,2,1683969881.880621
-0.008902958,0.02646496,0.9988388,0.0012217305,-0.00045814895,-0.00030543262,-0.08180151,0.25931334,9.8062315,2,1683969881.906265
-0.008902958,0.02646496,0.9988388,0.0,0.00076358154,0.0009162979,-0.08180151,0.25931334,9.8062315,2,1683969881.9113576
-0.008902958,0.02646496,0.9988388,0.0,0.00076358154,0.0009162979,-0.08179667,0.25933734,9.806231,2,1683969881.9164898
-0.008902958,0.02646496,0.9988388,0.0,0.00076358154,-0.00030543262,-0.08179667,0.25933734,9.806231,2,1683969881.9370105
-0.0075004376,0.02792846,0.9998144,0.0,0.00076358154,-0.00030543262,-0.08179667,0.25933734,9.806231,2,1683969881.9471982
-0.0075004376,0.02792846,0.9998144,0.0,0.00076358154,-0.00030543262,-0.08253288,0.25934076,9.806225,2,1683969881.957459
-0.0075004376,0.02792846,0.9998144,0.0012217305,-0.00045814895,-0.00030543262,-0.08253288,0.25934076,9.806225,2,1683969881.972847
-0.0075004376,0.02792846,0.9998144,0.0012217305,-0.00045814895,-0.00030543262,-0.08265346,0.25939032,9.806223,2,1683969881.9779782
-0.008902958,0.027440626,0.9978631,0.0012217305,-0.00045814895,-0.00030543262,-0.08265346,0.25939032,9.806223,2,1683969881.9831169
-0.008902958,0.027440626,0.9978631,0.0012217305,-0.00045814895,-0.00030543262,-0.082684696,0.25946403,9.80622,2,1683969882.0036342
-0.009939604,0.02695279,1.0012779,0.0012217305,-0.00045814895,-0.00030543262,-0.082684696,0.25946403,9.80622,2,1683969882.0087597
-0.009939604,0.02695279,1.0012779,0.002443461,0.001985312,-0.0027488936,-0.082684696,0.25946403,9.80622,2,1683969882.0241513
-0.009939604,0.02695279,1.0012779,0.002443461,0.0032070426,0.0009162979,-0.082684696,0.25946403,9.80622,2,1683969882.0446641
-0.009939604,0.02695279,1.0012779,0.002443461,0.0032070426,0.0009162979,-0.08271948,0.25934434,9.806223,2,1683969882.0600157
-0.0070126047,0.02646496,1.0003022,0.002443461,0.0032070426,0.0009162979,-0.08271948,0.25934434,9.806223,2,1683969882.0702813
-0.0070126047,0.02646496,1.0003022,-0.0012217305,-0.00045814895,-0.00030543262,-0.08271948,0.25934434,9.806223,2,1683969882.0805366
-0.009390792,0.02792846,0.9988388,-0.0012217305,-0.00045814895,-0.00030543262,-0.08271948,0.25934434,9.806223,2,1683969882.0907955
-0.009390792,0.02792846,0.9988388,-0.0012217305,-0.00045814895,-0.00030543262,-0.082824275,0.25948465,9.806218,2,1683969882.106142
-0.009390792,0.02792846,0.9988388,-0.0012217305,-0.00045814895,-0.00030543262,-0.082640365,0.25952777,9.806218,2,1683969882.1265862
-0.008902958,0.028904125,0.998351,-0.0012217305,-0.00045814895,-0.00030543262,-0.082640365,0.25952777,9.806218,2,1683969882.1317205
-0.008902958,0.028904125,0.998351,0.0,0.00076358154,-0.00030543262,-0.082640365,0.25952777,9.806218,2,1683969882.1419814
-0.008902958,0.028904125,0.998351,0.0,0.001985312,-0.0015271631,-0.082640365,0.25952777,9.806218,2,1683969882.1522045
-0.008902958,0.028904125,0.998351,0.0,0.001985312,-0.0015271631,-0.08272065,0.2595182,9.806218,2,1683969882.1727104
-0.009878625,0.025001459,0.9978631,0.0,0.001985312,-0.0015271631,-0.08272065,0.2595182,9.806218,2,1683969882.1778407
-0.00798827,0.025001459,1.0007901,0.0,0.001985312,-0.0015271631,-0.08272065,0.2595182,9.806218,2,1683969882.1983514
-0.00798827,0.025001459,1.0007901,0.0,-0.00290161,-0.0015271631,-0.08272065,0.2595182,9.806218,2,1683969882.2034664
-0.00798827,0.025001459,1.0007901,0.0,-0.00290161,-0.0015271631,-0.08271733,0.25949037,9.806219,2,1683969882.2137299
-0.0059759584,0.024513626,0.9988388,0.0,-0.00290161,-0.0015271631,-0.08271733,0.25949037,9.806219,2,1683969882.2240057
-0.009390792,0.02695279,0.998351,0.0,-0.00290161,-0.0015271631,-0.08271733,0.25949037,9.806219,2,1683969882.2393544
-0.009390792,0.02695279,0.998351,0.0,-0.00290161,-0.0015271631,-0.08349466,0.25918496,9.806221,2,1683969882.2444859
-0.009390792,0.02695279,0.998351,0.0,-0.0016798794,-0.0015271631,-0.08349466,0.25918496,9.806221,2,1683969882.254744
-0.009390792,0.02695279,0.998351,0.0,-0.0016798794,-0.0015271631,-0.083424404,0.25910175,9.806224,2,1683969882.2649639
-0.009390792,0.02695279,0.998351,0.0,0.001985312,-0.00030543262,-0.083424404,0.25910175,9.806224,2,1683969882.2700958
-0.0075004376,0.027440626,1.0003022,0.0,0.001985312,-0.00030543262,-0.083424404,0.25910175,9.806224,2,1683969882.2854314
-0.007927292,0.025489293,0.9993266,0.0,0.001985312,-0.00030543262,-0.083424404,0.25910175,9.806224,2,1683969882.3110235
-0.007927292,0.025489293,0.9993266,0.0,0.001985312,-0.00030543262,-0.08355695,0.2591996,9.80622,2,1683969882.3212056
-0.007927292,0.025489293,0.9993266,-0.0012217305,-0.00045814895,-0.00030543262,-0.08355695,0.2591996,9.80622,2,1683969882.3314433
-0.010366458,0.02646496,0.9988388,-0.0012217305,-0.00045814895,-0.00030543262,-0.08355695,0.2591996,9.80622,2,1683969882.3468566
-0.010366458,0.02646496,0.9988388,0.0012217305,0.00076358154,-0.00030543262,-0.08355695,0.2591996,9.80622,2,1683969882.3519883
-0.010366458,0.02646496,0.9988388,0.0012217305,0.00076358154,-0.00030543262,-0.0836358,0.25919202,9.806219,2,1683969882.3622513
-0.0074394583,0.02646496,0.9988388,0.0012217305,0.00076358154,-0.00030543262,-0.0836358,0.25919202,9.806219,2,1683969882.3776014
-0.0074394583,0.02646496,0.9988388,0.0012217305,0.00076358154,-0.00030543262,-0.08360133,0.2592842,9.806216,2,1683969882.3929849
-0.0074394583,0.02646496,0.9988388,0.0012217305,0.001985312,-0.00030543262,-0.08360133,0.2592842,9.806216,2,1683969882.398068
-0.0074394583,0.02646496,0.9988388,0.002443461,-0.00045814895,0.0009162979,-0.08360133,0.2592842,9.806216,2,1683969882.4185653
-0.007927292,0.027440626,0.9988388,0.002443461,-0.00045814895,0.0009162979,-0.08360133,0.2592842,9.806216,2,1683969882.4236999
-0.007927292,0.027440626,0.9988388,0.002443461,-0.00045814895,0.0009162979,-0.083611585,0.2593499,9.806215,2,1683969882.4339614
-0.009390792,0.024025792,0.9978631,0.002443461,-0.00045814895,0.0009162979,-0.083611585,0.2593499,9.806215,2,1683969882.4492567
-0.009390792,0.024025792,0.9978631,0.0,0.0032070426,0.0009162979,-0.083611585,0.2593499,9.806215,2,1683969882.4543493
-0.009390792,0.024025792,0.9978631,0.0,0.0032070426,0.0009162979,-0.08354091,0.2594525,9.806213,2,1683969882.4594395
-0.009390792,0.024025792,0.9978631,0.0,0.0032070426,0.0009162979,-0.08395393,0.25955504,9.806207,2,1683969882.490164
-0.009390792,0.024025792,0.9978631,-0.0012217305,0.00076358154,0.0009162979,-0.08395393,0.25955504,9.806207,2,1683969882.5003428
-0.008902958,0.02695279,0.9988388,-0.0012217305,0.00076358154,0.0009162979,-0.08395393,0.25955504,9.806207,2,1683969882.5106106
-0.008902958,0.02695279,0.9988388,-0.0012217305,0.00076358154,0.0009162979,-0.08409828,0.25878978,9.806226,2,1683969882.5208647
-0.008902958,0.02695279,0.9988388,-0.0036651916,-0.0030543262,0.0009162979,-0.08409828,0.25878978,9.806226,2,1683969882.5362592
-0.008902958,0.02695279,0.9988388,0.0,-0.0016798794,0.0009162979,-0.08409828,0.25878978,9.806226,2,1683969882.5566983
-0.008902958,0.02695279,0.9988388,0.0,-0.0016798794,0.0009162979,-0.084006876,0.25853497,9.806233,2,1683969882.566926
-0.007927292,0.02695279,0.9978631,0.0,-0.0016798794,0.0009162979,-0.084006876,0.25853497,9.806233,2,1683969882.5720193
-0.007927292,0.02695279,0.9978631,-0.0012217305,-0.00045814895,0.0009162979,-0.084006876,0.25853497,9.806233,2,1683969882.5924962
-0.007927292,0.02695279,0.9978631,-0.0012217305,-0.00045814895,0.0009162979,-0.08405433,0.25853223,9.806232,2,1683969882.5976245
-0.010427438,0.02646496,0.9998144,-0.0012217305,-0.00045814895,0.0009162979,-0.08405433,0.25853223,9.806232,2,1683969882.6027582
-0.010427438,0.02646496,0.9998144,-0.0012217305,0.001985312,-0.0027488936,-0.08405433,0.25853223,9.806232,2,1683969882.6130102
-0.007927292,0.025977125,0.9988388,-0.0012217305,0.001985312,-0.0027488936,-0.08405433,0.25853223,9.806232,2,1683969882.6231897
-0.007927292,0.025977125,0.9988388,-0.0012217305,0.001985312,-0.0027488936,-0.08389162,0.25849107,9.806235,2,1683969882.6385746
-0.007927292,0.025977125,0.9988388,-0.0012217305,0.001985312,-0.0027488936,-0.083878845,0.2583198,9.80624,2,1683969882.648756
-0.008415125,0.027440626,0.9978631,-0.0012217305,0.001985312,-0.0027488936,-0.083878845,0.2583198,9.80624,2,1683969882.6538534
-0.008415125,0.027440626,0.9978631,0.0,0.001985312,0.0009162979,-0.083878845,0.2583198,9.80624,2,1683969882.6691847
-0.008415125,0.027440626,0.9978631,0.0012217305,-0.00045814895,-0.00030543262,-0.083878845,0.2583198,9.80624,2,1683969882.6896596
-0.008902958,0.025977125,0.9959728,0.0012217305,-0.00045814895,-0.00030543262,-0.083878845,0.2583198,9.80624,2,1683969882.694791
-0.008902958,0.025977125,0.9959728,0.0012217305,-0.00045814895,-0.00030543262,-0.08407371,0.2582976,9.806239,2,1683969882.7101276
-0.008902958,0.025977125,0.9959728,-0.0012217305,0.001985312,0.0009162979,-0.08407371,0.2582976,9.806239,2,1683969882.7306223
-0.00798827,0.028904125,1.0017658,-0.0012217305,0.001985312,0.0009162979,-0.08407371,0.2582976,9.806239,2,1683969882.7357516
-0.00798827,0.028904125,1.0017658,-0.0012217305,0.001985312,0.0009162979,-0.0838562,0.25835213,9.806239,2,1683969882.7510662
-0.0069516255,0.025977125,0.998351,-0.0012217305,0.001985312,0.0009162979,-0.0838562,0.25835213,9.806239,2,1683969882.7663832
-0.0069516255,0.025977125,0.998351,-0.0012217305,0.001985312,0.0009162979,-0.0838567,0.25828096,9.806241,2,1683969882.7715049
-0.0069516255,0.025977125,0.998351,-0.0012217305,-0.00045814895,-0.00030543262,-0.0838567,0.25828096,9.806241,2,1683969882.7817643
-0.00798827,0.025001459,1.0003022,-0.0012217305,-0.00045814895,-0.00030543262,-0.0838567,0.25828096,9.806241,2,1683969882.7920244
-0.00798827,0.025001459,1.0003022,0.0,-0.00290161,-0.00030543262,-0.0838567,0.25828096,9.806241,2,1683969882.7971592
-0.00798827,0.025001459,1.0003022,0.0,-0.00290161,-0.00030543262,-0.0845665,0.25827062,9.806235,2,1683969882.8125017
-0.00798827,0.025001459,1.0003022,0.0,0.00076358154,0.0009162979,-0.0845665,0.25827062,9.806235,2,1683969882.8330579
-0.00798827,0.025001459,1.0003022,0.0,0.00076358154,0.0009162979,-0.084462054,0.25827017,9.806236,2,1683969882.8432803
-0.007927292,0.02646496,0.9968874,0.0,0.00076358154,0.0009162979,-0.084462054,0.25827017,9.806236,2,1683969882.8535357
-0.009390792,0.02841629,0.9988388,0.0,0.00076358154,0.0009162979,-0.084462054,0.25827017,9.806236,2,1683969882.8586607
-0.009390792,0.02841629,0.9988388,0.002443461,-0.00045814895,-0.0027488936,-0.084462054,0.25827017,9.806236,2,1683969882.8842745
-0.009390792,0.02841629,0.9988388,0.002443461,-0.00045814895,-0.0027488936,-0.08469023,0.25813735,9.806238,2,1683969882.8894043
-0.010915271,0.02695279,0.9998144,0.002443461,-0.00045814895,-0.0027488936,-0.08469023,0.25813735,9.806238,2,1683969882.9047465
-0.010915271,0.02695279,0.9998144,0.0,0.001985312,-0.00030543262,-0.08469023,0.25813735,9.806238,2,1683969882.909883
-0.010915271,0.02695279,0.9998144,0.0,0.001985312,-0.00030543262,-0.084676884,0.25823087,9.806235,2,1683969882.9201398
-0.010915271,0.02695279,0.9998144,0.0012217305,-0.00290161,-0.00030543262,-0.084676884,0.25823087,9.806235,2,1683969882.9406526
-0.010915271,0.02695279,0.9998144,0.0012217305,-0.00290161,-0.00030543262,-0.08482585,0.25826475,9.806233,2,1683969882.9509082
-0.009390792,0.02646496,0.9978631,0.0012217305,-0.00290161,-0.00030543262,-0.08482585,0.25826475,9.806233,2,1683969882.9611623
-0.00798827,0.02841629,0.9998144,0.0012217305,-0.00290161,-0.00030543262,-0.08482585,0.25826475,9.806233,2,1683969882.9713767
-0.00798827,0.02841629,0.9998144,0.0012217305,-0.00290161,-0.00030543262,-0.08483526,0.25831944,9.8062315,2,1683969882.976505
-0.00798827,0.02841629,0.9998144,-0.0012217305,0.004428773,-0.00030543262,-0.08483526,0.25831944,9.8062315,2,1683969882.9867742
-0.009451771,0.02646496,1.0012169,-0.0012217305,0.004428773,-0.00030543262,-0.08483526,0.25831944,9.8062315,2,1683969883.0123303
-0.009451771,0.02646496,1.0012169,0.0012217305,-0.00045814895,-0.0015271631,-0.08483526,0.25831944,9.8062315,2,1683969883.0174592
-0.009451771,0.02646496,1.0012169,0.0012217305,-0.00045814895,-0.0015271631,-0.084803686,0.25831157,9.806232,2,1683969883.0277247
-0.0074394583,0.02792846,0.9968874,0.0012217305,-0.00045814895,-0.0015271631,-0.084803686,0.25831157,9.806232,2,1683969883.048242
-0.0074394583,0.02792846,0.9968874,-0.0012217305,0.0056505036,-0.00030543262,-0.084803686,0.25831157,9.806232,2,1683969883.053369
-0.0074394583,0.02792846,0.9968874,-0.0012217305,0.0056505036,-0.00030543262,-0.084862515,0.25832653,9.8062315,2,1683969883.0585058
-0.0074394583,0.02792846,0.9968874,-0.0012217305,0.0056505036,-0.00030543262,-0.08496255,0.25844932,9.806228,2,1683969883.063634
-0.0074394583,0.02792846,0.9968874,0.0012217305,-0.00045814895,0.0009162979,-0.08496255,0.25844932,9.806228,2,1683969883.0738437
-0.00798827,0.02841629,1.0007291,0.0012217305,-0.00045814895,0.0009162979,-0.08496255,0.25844932,9.806228,2,1683969883.0789757
-0.00798827,0.02841629,1.0007291,0.0012217305,-0.00045814895,0.0009162979,-0.08481248,0.25861624,9.806224,2,1683969883.0943284
-0.00798827,0.02841629,1.0007291,-0.0036651916,-0.005497787,0.0021380284,-0.08481248,0.25861624,9.806224,2,1683969883.104581
-0.009451771,0.02841629,1.0002413,-0.0036651916,-0.005497787,0.0021380284,-0.08481248,0.25861624,9.806224,2,1683969883.1097147
-0.008476105,0.02792846,1.0007291,-0.0036651916,-0.005497787,0.0021380284,-0.08481248,0.25861624,9.806224,2,1683969883.119977
-0.008476105,0.02792846,1.0007291,-0.0012217305,0.00076358154,0.0009162979,-0.08481248,0.25861624,9.806224,2,1683969883.1302352
-0.008476105,0.02792846,1.0007291,-0.0012217305,0.00076358154,0.0009162979,-0.08464934,0.25857154,9.806227,2,1683969883.1506984
-0.008476105,0.02792846,1.0007291,0.0036651916,-0.00045814895,-0.0027488936,-0.08464934,0.25857154,9.806227,2,1683969883.1660895
-0.008476105,0.02792846,1.0007291,0.0036651916,-0.00045814895,-0.0027488936,-0.08481352,0.258534,9.806227,2,1683969883.1763096
-0.0069516255,0.025977125,0.9978631,0.0036651916,-0.00045814895,-0.0027488936,-0.08481352,0.258534,9.806227,2,1683969883.186562
-0.0069516255,0.025977125,0.9978631,0.0036651916,-0.00045814895,-0.0027488936,-0.08475017,0.25862676,9.806224,2,1683969883.2019508
-0.008963938,0.02646496,1.0012169,0.0036651916,-0.00045814895,-0.0027488936,-0.08475017,0.25862676,9.806224,2,1683969883.2070804
-0.008963938,0.02646496,1.0012169,0.0012217305,0.00076358154,0.0009162979,-0.08475017,0.25862676,9.806224,2,1683969883.2223744
-0.008963938,0.02646496,1.0012169,0.0012217305,0.00076358154,0.0009162979,-0.08485044,0.2586953,9.806222,2,1683969883.2428472
-0.0070126047,0.02792846,1.0003022,0.0012217305,0.00076358154,0.0009162979,-0.08485044,0.2586953,9.806222,2,1683969883.2479813
-0.0070126047,0.02792846,1.0003022,0.0012217305,-0.0016798794,0.0033597588,-0.08485044,0.2586953,9.806222,2,1683969883.2582014
-0.0070126047,0.02792846,1.0003022,0.0012217305,0.0056505036,0.0009162979,-0.08485044,0.2586953,9.806222,2,1683969883.2735562
-0.00798827,0.02792846,0.9998144,0.0012217305,0.0056505036,0.0009162979,-0.08485044,0.2586953,9.806222,2,1683969883.2786877
-0.00798827,0.02792846,0.9998144,0.0012217305,0.0056505036,0.0009162979,-0.08475627,0.25880817,9.80622,2,1683969883.2889445
-0.00798827,0.02792846,0.9998144,0.0012217305,0.0032070426,0.0009162979,-0.08475627,0.25880817,9.80622,2,1683969883.3043242
-0.00798827,0.02792846,0.9998144,0.0012217305,0.0032070426,0.0009162979,-0.084902085,0.2589136,9.806215,2,1683969883.3094583
-0.008902958,0.02646496,0.9993266,0.0012217305,0.0032070426,0.0009162979,-0.084902085,0.2589136,9.806215,2,1683969883.3145924
-0.008902958,0.02646496,0.9993266,0.0012217305,0.0032070426,0.0009162979,-0.084214106,0.25838852,9.806235,2,1683969883.3350303
-0.009390792,0.027440626,0.9988388,0.0012217305,0.0032070426,0.0009162979,-0.084214106,0.25838852,9.806235,2,1683969883.340166
-0.009390792,0.027440626,0.9988388,0.00015271631,0.00061086525,-0.00015271631,-0.084214106,0.25838852,9.806235,2,1683969883.345296
-0.008415125,0.024513626,0.9988388,0.00015271631,0.00061086525,-0.00015271631,-0.084214106,0.25838852,9.806235,2,1683969883.3863094
-0.008415125,0.024513626,0.9988388,0.00015271631,0.00061086525,-0.00015271631,-0.08412829,0.2584358,9.806234,2,1683969883.3914328
-0.008415125,0.024513626,0.9988388,0.00015271631,-0.00061086525,0.0010690142,-0.08412829,0.2584358,9.806234,2,1683969883.3965747
-0.008415125,0.024513626,0.9988388,0.00015271631,-0.00061086525,0.0010690142,-0.08406315,0.25841755,9.806236,2,1683969883.4068325
-0.010366458,0.025977125,0.9988388,0.00015271631,-0.00061086525,0.0010690142,-0.08406315,0.25841755,9.806236,2,1683969883.427266
-0.010366458,0.025977125,0.9988388,0.00015271631,-0.00061086525,-0.00015271631,-0.08406315,0.25841755,9.806236,2,1683969883.4375215
-0.008902958,0.02646496,0.9978631,0.00015271631,-0.00061086525,-0.00015271631,-0.08406315,0.25841755,9.806236,2,1683969883.4529092
-0.008902958,0.02646496,0.9978631,0.00015271631,-0.00061086525,-0.00015271631,-0.084073976,0.2585055,9.806233,2,1683969883.4631345
-0.008902958,0.02646496,0.9978631,0.00015271631,-0.00061086525,-0.00015271631,-0.083977304,0.25857407,9.806232,2,1683969883.499024
-0.008902958,0.02646496,0.9978631,0.0013744468,-0.00061086525,-0.0013744468,-0.083977304,0.25857407,9.806232,2,1683969883.5041578
-0.008415125,0.025977125,0.9988388,0.0013744468,-0.00061086525,-0.0013744468,-0.083977304,0.25857407,9.806232,2,1683969883.5093439
-0.007927292,0.025001459,0.9973753,0.0013744468,-0.00061086525,-0.0013744468,-0.083977304,0.25857407,9.806232,2,1683969883.5195963
-0.007927292,0.025001459,0.9973753,0.0013744468,0.0018325958,-0.0013744468,-0.083977304,0.25857407,9.806232,2,1683969883.5247314
-0.007927292,0.025001459,0.9973753,0.0013744468,0.0018325958,-0.0013744468,-0.08405109,0.25860488,9.8062315,2,1683969883.53499
-0.007927292,0.025001459,0.9973753,0.0013744468,0.0018325958,-0.0013744468,-0.08414778,0.25871426,9.806228,2,1683969883.5554535
-0.009939604,0.025489293,1.0012779,0.0013744468,0.0018325958,-0.0013744468,-0.08414778,0.25871426,9.806228,2,1683969883.565714
-0.009939604,0.025489293,1.0012779,-0.0010690142,-0.00061086525,-0.00015271631,-0.08414778,0.25871426,9.806228,2,1683969883.5759234
-0.009939604,0.025489293,1.0012779,-0.0010690142,-0.00061086525,-0.00015271631,-0.08419869,0.25868613,9.806228,2,1683969883.6015196
-0.009451771,0.025489293,1.0012779,-0.0010690142,-0.00061086525,-0.00015271631,-0.08419869,0.25868613,9.806228,2,1683969883.6066523
-0.0070126047,0.02695279,1.0012779,-0.0010690142,-0.00061086525,-0.00015271631,-0.08419869,0.25868613,9.806228,2,1683969883.6117423
-0.0070126047,0.02695279,1.0012779,-0.0022907446,-0.0032070426,-0.0013744468,-0.08419869,0.25868613,9.806228,2,1683969883.6168392
-0.0070126047,0.02695279,1.0012779,-0.0022907446,-0.0032070426,-0.0013744468,-0.08447869,0.2587547,9.806224,2,1683969883.621974
-0.008963938,0.025977125,1.0003022,-0.0022907446,-0.0032070426,-0.0013744468,-0.08447869,0.2587547,9.806224,2,1683969883.668075
-0.008963938,0.025977125,1.0003022,-0.0022907446,-0.004428773,-0.00015271631,-0.08447869,0.2587547,9.806224,2,1683969883.6732066
-0.008963938,0.025977125,1.0003022,-0.0022907446,-0.004428773,-0.00015271631,-0.0843582,0.25874442,9.806225,2,1683969883.678381
-0.008963938,0.025977125,1.0003022,-0.0022907446,-0.0018325958,0.0022907446,-0.0843582,0.25874442,9.806225,2,1683969883.6937633
-0.008963938,0.025977125,1.0003022,-0.0022907446,-0.0018325958,0.0022907446,-0.08415088,0.2586793,9.806229,2,1683969883.6988971
-0.007927292,0.02695279,0.9993266,-0.0022907446,-0.0018325958,0.0022907446,-0.08415088,0.2586793,9.806229,2,1683969883.7040281
-0.008415125,0.028904125,0.9968874,-0.0022907446,-0.0018325958,0.0022907446,-0.08415088,0.2586793,9.806229,2,1683969883.7399015
-0.008415125,0.028904125,0.9968874,-0.0022907446,-0.0018325958,0.0022907446,-0.084042355,0.25859872,9.8062315,2,1683969883.744995
-0.008415125,0.028904125,0.9968874,0.00015271631,-0.004276057,0.0010690142,-0.084042355,0.25859872,9.8062315,2,1683969883.7501206
-0.008902958,0.02646496,0.9988388,0.00015271631,-0.004276057,0.0010690142,-0.084042355,0.25859872,9.8062315,2,1683969883.7552152
-0.008902958,0.02646496,0.9988388,0.00015271631,-0.00061086525,-0.00015271631,-0.084042355,0.25859872,9.8062315,2,1683969883.7654805
-0.008902958,0.02646496,0.9988388,0.00015271631,-0.00061086525,-0.00015271631,-0.083866216,0.25845572,9.806236,2,1683969883.7859821
-0.007927292,0.02646496,0.998351,0.00015271631,-0.00061086525,-0.00015271631,-0.083866216,0.25845572,9.806236,2,1683969883.7911196
-0.007927292,0.02646496,0.998351,0.00015271631,-0.00061086525,-0.00015271631,-0.08378377,0.25842193,9.806238,2,1683969883.8065064
-0.007927292,0.02646496,0.998351,0.0013744468,0.005497787,-0.00015271631,-0.08378377,0.25842193,9.806238,2,1683969883.8219018
-0.009390792,0.025489293,0.9988388,0.0013744468,0.005497787,-0.00015271631,-0.08378377,0.25842193,9.806238,2,1683969883.842383
-0.009390792,0.025489293,0.9988388,0.00015271631,-0.0018325958,-0.00015271631,-0.08378377,0.25842193,9.806238,2,1683969883.847521
-0.009390792,0.025489293,0.9988388,0.00015271631,-0.0018325958,-0.00015271631,-0.084148966,0.25833496,9.806238,2,1683969883.8577704
-0.0069516255,0.02646496,0.998351,0.00015271631,-0.0018325958,-0.00015271631,-0.084148966,0.25833496,9.806238,2,1683969883.8731182
-0.0069516255,0.02646496,0.998351,0.0025961774,-0.0018325958,-0.00015271631,-0.084148966,0.25833496,9.806238,2,1683969883.888521
-0.007927292,0.02646496,0.9973753,0.0025961774,-0.0018325958,-0.00015271631,-0.084148966,0.25833496,9.806238,2,1683969883.9039016
-0.007927292,0.02646496,0.9973753,0.0025961774,-0.0018325958,-0.00015271631,-0.08351737,0.25853977,9.806238,2,1683969883.9295096
-0.007927292,0.02646496,0.9973753,0.00015271631,-0.0018325958,0.0010690142,-0.08351737,0.25853977,9.806238,2,1683969883.9397576
-0.0064637917,0.025489293,0.9998144,0.00015271631,-0.0018325958,0.0010690142,-0.08351737,0.25853977,9.806238,2,1683969883.9448876
-0.007927292,0.025489293,0.998351,0.00015271631,-0.0018325958,0.0010690142,-0.08351737,0.25853977,9.806238,2,1683969883.955146
-0.007927292,0.025489293,0.998351,0.00015271631,-0.0018325958,0.0010690142,-0.08354171,0.25841123,9.80624,2,1683969883.970528
-0.007927292,0.025489293,0.998351,0.00015271631,0.0018325958,-0.00015271631,-0.08354171,0.25841123,9.80624,2,1683969883.9756517
-0.007927292,0.02646496,0.9978631,0.00015271631,0.0018325958,-0.00015271631,-0.08354171,0.25841123,9.80624,2,1683969883.9961634
-0.007927292,0.02646496,0.9978631,-0.0010690142,0.0018325958,-0.00015271631,-0.08354171,0.25841123,9.80624,2,1683969884.001295
-0.007927292,0.02646496,0.9978631,-0.0010690142,0.0018325958,-0.00015271631,-0.08359297,0.25844318,9.806239,2,1683969884.0166738
-0.009451771,0.025977125,1.0012779,-0.0010690142,0.0018325958,-0.00015271631,-0.08359297,0.25844318,9.806239,2,1683969884.0320542
-0.009451771,0.025977125,1.0012779,-0.0010690142,0.0018325958,-0.00015271631,-0.08348259,0.2583674,9.806242,2,1683969884.0371795
-0.009451771,0.025977125,1.0012779,0.00015271631,-0.0018325958,0.0010690142,-0.08348259,0.2583674,9.806242,2,1683969884.0423036
-0.009451771,0.025977125,1.0012779,-0.0010690142,-0.0018325958,-0.00015271631,-0.08348259,0.2583674,9.806242,2,1683969884.067922
-0.009451771,0.025977125,1.0012779,-0.0010690142,-0.0018325958,-0.00015271631,-0.08333184,0.25831425,9.806246,2,1683969884.0781753
-0.008902958,0.027440626,0.998351,-0.0010690142,-0.0018325958,-0.00015271631,-0.08333184,0.25831425,9.806246,2,1683969884.0884142
-0.009451771,0.025977125,0.998351,-0.0010690142,-0.0018325958,-0.00015271631,-0.08333184,0.25831425,9.806246,2,1683969884.1037943
-0.009451771,0.025977125,0.998351,-0.0010690142,-0.0018325958,-0.00015271631,-0.08315623,0.25817087,9.80625,2,1683969884.1140563
-0.009451771,0.025977125,0.998351,0.0013744468,0.00061086525,0.0010690142,-0.08315623,0.25817087,9.80625,2,1683969884.1191974
-0.007927292,0.027440626,0.9993266,0.0013744468,0.0018325958,-0.00015271631,-0.08319856,0.25814447,9.806251,2,1683969884.1244085
-0.007927292,0.027440626,0.9993266,0.0013744468,0.0018325958,-0.00015271631,-0.08251392,0.2583268,9.806252,2,1683969884.1346576
-0.007927292,0.027440626,0.9993266,-0.0010690142,0.0018325958,-0.0013744468,-0.08251392,0.2583268,9.806252,2,1683969884.1449125
-0.007927292,0.027440626,0.9993266,-0.0010690142,0.0018325958,-0.0013744468,-0.082440905,0.25842106,9.80625,2,1683969884.1500413
-0.009390792,0.025977125,0.9988388,-0.0010690142,0.0018325958,-0.0013744468,-0.082440905,0.25842106,9.80625,2,1683969884.1756856
-0.008415125,0.02695279,0.9993266,-0.0010690142,0.0018325958,-0.0013744468,-0.082440905,0.25842106,9.80625,2,1683969884.1961846
-0.008415125,0.02695279,0.9993266,-0.0010690142,0.00061086525,0.0010690142,-0.082440905,0.25842106,9.80625,2,1683969884.2013144
-0.008415125,0.02695279,0.9993266,-0.0010690142,0.00061086525,0.0010690142,-0.082549624,0.25833791,9.806251,2,1683969884.2064452
-0.0064637917,0.02646496,0.9973753,-0.0010690142,0.00061086525,0.0010690142,-0.082549624,0.25833791,9.806251,2,1683969884.237168
-0.0064637917,0.02646496,0.9973753,0.00015271631,0.0030543262,-0.0013744468,-0.082549624,0.25833791,9.806251,2,1683969884.2422574
-0.0064637917,0.02646496,0.9973753,0.00015271631,0.0030543262,-0.0013744468,-0.08247333,0.25827193,9.8062525,2,1683969884.2473505
-0.007927292,0.028904125,0.9988388,0.00015271631,0.0030543262,-0.0013744468,-0.08247333,0.25827193,9.8062525,2,1683969884.2627323
-0.007927292,0.028904125,0.9988388,0.00015271631,0.0030543262,-0.0013744468,-0.082633175,0.2582933,9.806252,2,1683969884.2678618
-0.007927292,0.028904125,0.9988388,-0.0010690142,-0.00061086525,0.0010690142,-0.082633175,0.2582933,9.806252,2,1683969884.283185
-0.007927292,0.028904125,0.9988388,0.00015271631,0.005497787,0.0010690142,-0.082633175,0.2582933,9.806252,2,1683969884.2934427
-0.008415125,0.02646496,0.9978631,0.00015271631,0.005497787,0.0010690142,-0.082633175,0.2582933,9.806252,2,1683969884.2985737
-0.008415125,0.02646496,0.9978631,0.00015271631,0.005497787,0.0010690142,-0.08265025,0.2582326,9.8062525,2,1683969884.3037057
-0.00798827,0.02792846,0.9998144,0.00015271631,0.005497787,0.0010690142,-0.08265025,0.2582326,9.8062525,2,1683969884.3344736
-0.00798827,0.02792846,0.9998144,0.00015271631,0.005497787,0.0010690142,-0.082882434,0.25820673,9.806252,2,1683969884.3498585
-0.00798827,0.02792846,0.9998144,0.00015271631,0.00061086525,0.0010690142,-0.082882434,0.25820673,9.806252,2,1683969884.3549902
-0.00798827,0.027440626,0.9998144,0.00015271631,0.00061086525,0.0010690142,-0.082882434,0.25820673,9.806252,2,1683969884.3601203
-0.00798827,0.027440626,0.9998144,0.00015271631,0.00061086525,0.0010690142,-0.08305139,0.25828373,9.806248,2,1683969884.3857582
-0.00798827,0.027440626,0.9998144,0.0013744468,-0.00061086525,-0.0013744468,-0.08305139,0.25828373,9.806248,2,1683969884.3908901
-0.008476105,0.027440626,0.9998144,0.0013744468,-0.00061086525,-0.0013744468,-0.08305139,0.25828373,9.806248,2,1683969884.4113522
-0.008476105,0.02695279,1.0003022,0.0013744468,-0.00061086525,-0.0013744468,-0.08305139,0.25828373,9.806248,2,1683969884.4369514
-0.008476105,0.02695279,1.0003022,0.0013744468,-0.0018325958,0.0022907446,-0.08305139,0.25828373,9.806248,2,1683969884.4420803
-0.008476105,0.02695279,1.0003022,0.0013744468,-0.0018325958,0.0022907446,-0.08269341,0.258173,9.806254,2,1683969884.4471967
-0.008476105,0.02695279,1.0003022,0.0013744468,0.00061086525,-0.00015271631,-0.08269341,0.258173,9.806254,2,1683969884.4573894
-0.0070126047,0.027440626,0.9998144,0.0013744468,0.00061086525,-0.00015271631,-0.08269341,0.258173,9.806254,2,1683969884.467646
-0.0070126047,0.027440626,0.9998144,0.0013744468,0.00061086525,-0.00015271631,-0.082802095,0.25821012,9.8062525,2,1683969884.4829814
-0.009878625,0.02646496,0.9988388,0.0013744468,0.00061086525,-0.00015271631,-0.082802095,0.25821012,9.8062525,2,1683969884.4983683
-0.009878625,0.02646496,0.9988388,0.0013744468,0.00061086525,-0.00015271631,-0.08287766,0.258162,9.8062525,2,1683969884.5137506
-0.009878625,0.02646496,0.9988388,0.0025961774,0.00061086525,-0.00015271631,-0.08287766,0.258162,9.8062525,2,1683969884.5188808
-0.009878625,0.02646496,0.9988388,0.00015271631,0.00061086525,-0.0013744468,-0.08287766,0.258162,9.8062525,2,1683969884.5342722
-0.009878625,0.02646496,0.9988388,0.00015271631,0.00061086525,-0.0013744468,-0.08282388,0.25815567,9.806253,2,1683969884.5393646
-0.007927292,0.025489293,0.998351,0.00015271631,0.00061086525,-0.0013744468,-0.08282388,0.25815567,9.806253,2,1683969884.5444963
-0.007927292,0.025489293,0.998351,0.0013744468,0.00061086525,-0.00015271631,-0.08282388,0.25815567,9.806253,2,1683969884.564973
-0.007927292,0.025489293,0.998351,0.0013744468,0.00061086525,-0.00015271631,-0.082828574,0.25811628,9.806254,2,1683969884.570056
-0.008415125,0.02695279,0.9959117,0.0013744468,0.00061086525,-0.00015271631,-0.082828574,0.25811628,9.806254,2,1683969884.5803416
-0.009939604,0.025489293,1.0007901,0.0013744468,0.00061086525,-0.00015271631,-0.082828574,0.25811628,9.806254,2,1683969884.611117
-0.009939604,0.025489293,1.0007901,0.0013744468,0.0030543262,-0.00015271631,-0.082828574,0.25811628,9.806254,2,1683969884.6162498
-0.009939604,0.025489293,1.0007901,0.0013744468,0.0030543262,-0.00015271631,-0.0829322,0.2581215,9.806253,2,1683969884.6265192
-0.009390792,0.025489293,0.998351,0.0013744468,0.0030543262,-0.00015271631,-0.0829322,0.2581215,9.806253,2,1683969884.6367767
-0.009390792,0.025489293,0.998351,0.0013744468,-0.00061086525,0.0010690142,-0.0829322,0.2581215,9.806253,2,1683969884.6470413
-0.009390792,0.025489293,0.998351,0.0013744468,-0.00061086525,0.0010690142,-0.08320388,0.2581218,9.806252,2,1683969884.6624255
-0.0059759584,0.02695279,0.9978631,0.0013744468,-0.00061086525,0.0010690142,-0.08320388,0.2581218,9.806252,2,1683969884.6675558
-0.0059759584,0.02695279,0.9978631,0.0013744468,0.00061086525,-0.00015271631,-0.08320388,0.2581218,9.806252,2,1683969884.6726878
-0.008415125,0.02646496,0.9978631,0.0013744468,0.00061086525,-0.00015271631,-0.08320388,0.2581218,9.806252,2,1683969884.6932137
-0.008415125,0.02646496,0.9978631,0.0013744468,0.00061086525,-0.00015271631,-0.082121395,0.25826308,9.806256,2,1683969884.7136464
-0.008415125,0.02646496,0.9978631,-0.0010690142,0.00061086525,0.0009162979,-0.082121395,0.25826308,9.806256,2,1683969884.718733
-0.008415125,0.02646496,0.9978631,0.00015271631,0.0030543262,0.0021380284,-0.082121395,0.25826308,9.806256,2,1683969884.7341053
-0.008415125,0.02646496,0.9978631,0.00015271631,0.0030543262,0.0021380284,-0.08226172,0.258127,9.806259,2,1683969884.7391908
-0.008415125,0.025977125,0.9978631,0.00015271631,0.0030543262,0.0021380284,-0.08226172,0.258127,9.806259,2,1683969884.7443173
-0.008415125,0.025977125,0.9978631,0.00015271631,0.00061086525,-0.0015271631,-0.08226172,0.258127,9.806259,2,1683969884.7648222
-0.010366458,0.029391957,0.9988388,0.00015271631,0.00061086525,-0.0015271631,-0.08226172,0.258127,9.806259,2,1683969884.7802541
-0.010366458,0.029391957,0.9988388,0.00015271631,0.00061086525,-0.0015271631,-0.082288206,0.25822368,9.806256,2,1683969884.7904627
-0.010366458,0.029391957,0.9988388,0.00015271631,0.00061086525,-0.0015271631,-0.08239488,0.258303,9.8062525,2,1683969884.7955563
-0.009878625,0.025977125,0.998351,0.00015271631,0.00061086525,-0.0015271631,-0.08239488,0.258303,9.8062525,2,1683969884.8159688
-0.009878625,0.025977125,0.998351,-0.0010690142,0.00061086525,-0.00030543262,-0.08239488,0.258303,9.8062525,2,1683969884.8262284
-0.009878625,0.025977125,0.998351,0.0025961774,0.0030543262,0.0009162979,-0.08239488,0.258303,9.8062525,2,1683969884.8364468
-0.009878625,0.025977125,0.998351,0.0025961774,0.0030543262,0.0009162979,-0.08245865,0.25829026,9.8062525,2,1683969884.8466628
-0.0070126047,0.025977125,1.0003022,0.0025961774,0.0030543262,0.0009162979,-0.08245865,0.25829026,9.8062525,2,1683969884.8568752
-0.0074394583,0.027440626,0.9993266,0.0025961774,0.0030543262,0.0009162979,-0.08245865,0.25829026,9.8062525,2,1683969884.877367
-0.0074394583,0.027440626,0.9993266,0.0025961774,0.0030543262,0.0009162979,-0.08250138,0.25855252,9.806246,2,1683969884.882496
-0.0074394583,0.027440626,0.9993266,0.00015271631,-0.0030543262,-0.00030543262,-0.08250138,0.25855252,9.806246,2,1683969884.8876266
-0.0069516255,0.02646496,0.9993266,0.00015271631,-0.0030543262,-0.00030543262,-0.08250138,0.25855252,9.806246,2,1683969884.9081368
-0.0069516255,0.02646496,0.9993266,0.0013744468,-0.004428773,-0.003970624,-0.08250138,0.25855252,9.806246,2,1683969884.9132662
-0.0069516255,0.02646496,0.9993266,0.0013744468,-0.004428773,-0.003970624,-0.08221102,0.2585338,9.806249,2,1683969884.928655
-0.0069516255,0.02646496,0.9993266,0.0013744468,-0.0018325958,-0.00030543262,-0.08221102,0.2585338,9.806249,2,1683969884.9491868
-0.008902958,0.02792846,0.9968874,0.0013744468,-0.0018325958,-0.00030543262,-0.08221102,0.2585338,9.806249,2,1683969884.959438
-0.008902958,0.02792846,0.9968874,0.00015271631,-0.006872234,-0.00030543262,-0.08221102,0.2585338,9.806249,2,1683969884.9696996
-0.008902958,0.02792846,0.9968874,0.00015271631,-0.006872234,-0.00030543262,-0.08209127,0.2591007,9.806234,2,1683969884.9748366
-0.007927292,0.02646496,0.9998144,0.00015271631,-0.006872234,-0.00030543262,-0.08209127,0.2591007,9.806234,2,1683969884.9799676
-0.007927292,0.02646496,0.9998144,-0.0010690142,-0.00061086525,-0.0015271631,-0.08209127,0.2591007,9.806234,2,1683969884.9902256
-0.008902958,0.025977125,0.9988388,-0.0010690142,-0.00061086525,-0.0015271631,-0.08209127,0.2591007,9.806234,2,1683969884.995316
-0.008902958,0.025977125,0.9988388,-0.0010690142,-0.00061086525,-0.0015271631,-0.08176135,0.2591001,9.806237,2,1683969885.000412
-0.008963938,0.027440626,1.0007901,-0.0010690142,-0.00061086525,-0.0015271631,-0.08176135,0.2591001,9.806237,2,1683969885.0258389
-0.008963938,0.027440626,1.0007901,0.00015271631,0.0018325958,-0.00030543262,-0.08176135,0.2591001,9.806237,2,1683969885.041217
-0.008963938,0.027440626,1.0007901,0.00015271631,0.0018325958,-0.00030543262,-0.08183007,0.25909266,9.806236,2,1683969885.0514684
-0.0069516255,0.025977125,0.998351,0.00015271631,0.0018325958,-0.00030543262,-0.08183007,0.25909266,9.806236,2,1683969885.0565977
-0.0069516255,0.025977125,0.998351,-0.0010690142,0.00061086525,-0.00030543262,-0.08183007,0.25909266,9.806236,2,1683969885.0719035
-0.0069516255,0.025977125,0.998351,-0.0010690142,0.00061086525,-0.00030543262,-0.08184553,0.25904804,9.806238,2,1683969885.077034
-0.0069516255,0.025977125,0.998351,-0.0010690142,0.00061086525,-0.00030543262,-0.08184928,0.2589822,9.80624,2,1683969885.107681
-0.0069516255,0.025977125,0.998351,-0.0010690142,-0.00061086525,-0.00030543262,-0.08184928,0.2589822,9.80624,2,1683969885.112777
-0.007927292,0.025977125,0.998351,-0.0010690142,-0.00061086525,-0.00030543262,-0.08184928,0.2589822,9.80624,2,1683969885.1178641
-0.007927292,0.025977125,0.998351,-0.0010690142,-0.00061086525,-0.00030543262,-0.08182761,0.25896335,9.806241,2,1683969885.143403
-0.007927292,0.025977125,0.998351,0.0013744468,0.005497787,-0.0015271631,-0.08182761,0.25896335,9.806241,2,1683969885.1587884
-0.007927292,0.025977125,0.998351,-0.0010690142,-0.0018325958,0.0009162979,-0.08182761,0.25896335,9.806241,2,1683969885.1792612
-0.007927292,0.025977125,0.998351,-0.0010690142,-0.0018325958,0.0009162979,-0.08190988,0.2589401,9.80624,2,1683969885.184392
-0.007927292,0.025977125,0.9973753,-0.0010690142,-0.0018325958,0.0009162979,-0.08190988,0.2589401,9.80624,2,1683969885.1946483
-0.007927292,0.025977125,0.9973753,-0.0010690142,-0.0018325958,0.0009162979,-0.08191613,0.25888357,9.806242,2,1683969885.220201
-0.007927292,0.025977125,0.9973753,-0.0010690142,0.0018325958,-0.0015271631,-0.08191613,0.25888357,9.806242,2,1683969885.2253318
-0.0074394583,0.02646496,0.9993266,-0.0010690142,0.0018325958,-0.0015271631,-0.08191613,0.25888357,9.806242,2,1683969885.230465
-0.0074394583,0.02646496,0.9993266,-0.0010690142,0.0018325958,-0.0015271631,-0.08151067,0.25866237,9.806252,2,1683969885.250932
-0.007927292,0.02646496,0.9963996,-0.0010690142,0.0018325958,-0.0015271631,-0.08151067,0.25866237,9.806252,2,1683969885.2611897
-0.007927292,0.02646496,0.9963996,-0.0010690142,-0.0018325958,0.0021380284,-0.08151067,0.25866237,9.806252,2,1683969885.2714107
-0.007927292,0.02646496,0.9963996,0.00015271631,-0.0030543262,0.0009162979,-0.08151067,0.25866237,9.806252,2,1683969885.276537
-0.010427438,0.02792846,0.9993266,0.00015271631,-0.0030543262,0.0009162979,-0.08151067,0.25866237,9.806252,2,1683969885.2918954
-0.010427438,0.02792846,0.9993266,0.00015271631,-0.0030543262,0.0009162979,-0.08141491,0.25861016,9.8062525,2,1683969885.3072443
-0.007927292,0.02646496,0.9978631,0.00015271631,-0.0030543262,0.0009162979,-0.08141491,0.25861016,9.8062525,2,1683969885.3174164
-0.007927292,0.02646496,0.9978631,-0.0022907446,-0.00061086525,0.0009162979,-0.08141491,0.25861016,9.8062525,2,1683969885.3225372
-0.007927292,0.02646496,0.9978631,-0.0022907446,-0.00061086525,0.0009162979,-0.08144677,0.25867176,9.806252,2,1683969885.3430538
-0.008902958,0.025977125,0.998351,-0.0022907446,-0.00061086525,0.0009162979,-0.08144677,0.25867176,9.806252,2,1683969885.3533304
-0.008902958,0.025977125,0.998351,0.0013744468,-0.0018325958,0.0009162979,-0.08144677,0.25867176,9.806252,2,1683969885.358457
-0.008902958,0.025977125,0.998351,0.0013744468,-0.0018325958,0.0009162979,-0.081410736,0.25857076,9.806254,2,1683969885.3789866
-0.008902958,0.025977125,0.998351,0.0013744468,-0.0018325958,0.0009162979,-0.08139752,0.25857952,9.806254,2,1683969885.3994663
-0.008902958,0.025977125,0.998351,0.0013744468,0.00061086525,-0.00030543262,-0.08139752,0.25857952,9.806254,2,1683969885.4046044
-0.007927292,0.025977125,0.9973753,0.0013744468,0.00061086525,-0.00030543262,-0.08139752,0.25857952,9.806254,2,1683969885.4097388
-0.007927292,0.025489293,0.9973753,0.0013744468,0.00061086525,-0.00030543262,-0.08139752,0.25857952,9.806254,2,1683969885.425079
-0.007927292,0.025489293,0.9973753,0.0013744468,0.00061086525,-0.00030543262,-0.08146505,0.2587083,9.806251,2,1683969885.4353013
-0.007927292,0.025489293,0.9973753,0.0025961774,0.00061086525,-0.0015271631,-0.08146505,0.2587083,9.806251,2,1683969885.4404268
-0.007927292,0.025489293,0.9973753,0.0025961774,0.00061086525,-0.0015271631,-0.08143239,0.25882384,9.806248,2,1683969885.471106
-0.007927292,0.025001459,0.998351,0.0025961774,0.00061086525,-0.0015271631,-0.08143239,0.25882384,9.806248,2,1683969885.4813612
-0.007927292,0.025001459,0.998351,0.0013744468,-0.004276057,-0.0015271631,-0.08143239,0.25882384,9.806248,2,1683969885.4864864
-0.007927292,0.025001459,0.998351,-0.0010690142,0.0018325958,-0.00030543262,-0.08143239,0.25882384,9.806248,2,1683969885.4967573
-0.009390792,0.02646496,0.9993266,-0.0010690142,0.0018325958,-0.00030543262,-0.08143239,0.25882384,9.806248,2,1683969885.507021
-0.009390792,0.02646496,0.9993266,-0.0010690142,0.0018325958,-0.00030543262,-0.081552744,0.25880283,9.806247,2,1683969885.512158
-0.009390792,0.02646496,0.9993266,0.00015271631,-0.0030543262,0.0021380284,-0.081552744,0.25880283,9.806247,2,1683969885.5274904
-0.009390792,0.02646496,0.9993266,0.00015271631,-0.0030543262,0.0021380284,-0.081747,0.25863227,9.80625,2,1683969885.5377772
-0.008963938,0.02792846,1.0003022,0.00015271631,-0.0030543262,0.0021380284,-0.081747,0.25863227,9.80625,2,1683969885.5479956
-0.008963938,0.02792846,1.0003022,0.00015271631,-0.0030543262,0.0021380284,-0.081650645,0.25866666,9.80625,2,1683969885.5633388
-0.008963938,0.02792846,1.0003022,-0.0010690142,-0.0018325958,0.0021380284,-0.081650645,0.25866666,9.80625,2,1683969885.5684693
-0.0059759584,0.02695279,0.9993266,-0.0010690142,-0.0018325958,0.0021380284,-0.081650645,0.25866666,9.80625,2,1683969885.5735984
-0.0059759584,0.02695279,0.9993266,0.0013744468,-0.0018325958,-0.00030543262,-0.081650645,0.25866666,9.80625,2,1683969885.5940683
-0.0059759584,0.02695279,0.9993266,0.0013744468,-0.0018325958,-0.00030543262,-0.08164696,0.25870174,9.806249,2,1683969885.6042993
-0.0074394583,0.025489293,0.9968874,0.0013744468,-0.0018325958,-0.00030543262,-0.08164696,0.25870174,9.806249,2,1683969885.6094306
-0.0074394583,0.025489293,0.9968874,0.0013744468,-0.0018325958,-0.00030543262,-0.081642315,0.25873274,9.806249,2,1683969885.629942
-0.0074394583,0.025489293,0.9968874,-0.0022907446,0.0018325958,-0.00030543262,-0.081642315,0.25873274,9.806249,2,1683969885.6401987
-0.008902958,0.027440626,0.9978631,-0.0022907446,0.0018325958,-0.00030543262,-0.081642315,0.25873274,9.806249,2,1683969885.6453302
-0.008963938,0.02695279,1.0012779,-0.0022907446,0.0018325958,-0.00030543262,-0.081642315,0.25873274,9.806249,2,1683969885.6607177
-0.008963938,0.02695279,1.0012779,-0.0010690142,0.00061086525,0.0009162979,-0.081642315,0.25873274,9.806249,2,1683969885.6812186
-0.008963938,0.02695279,1.0012779,-0.0010690142,0.00061086525,0.0009162979,-0.08196196,0.2586014,9.806249,2,1683969885.6863525
-0.00798827,0.028904125,1.0003022,-0.0010690142,0.00061086525,0.0009162979,-0.08196196,0.2586014,9.806249,2,1683969885.7068517
-0.00798827,0.028904125,1.0003022,-0.0010690142,0.00061086525,0.0009162979,-0.08211951,0.258445,9.806252,2,1683969885.7221642
-0.00798827,0.028904125,1.0003022,-0.0010690142,0.0018325958,0.0021380284,-0.08211951,0.258445,9.806252,2,1683969885.7272532
-0.008415125,0.02646496,0.9988388,-0.0010690142,0.0018325958,0.0021380284,-0.08211951,0.258445,9.806252,2,1683969885.7375133
-0.008415125,0.02646496,0.9988388,0.00015271631,0.00061086525,0.0009162979,-0.08211951,0.258445,9.806252,2,1683969885.7580183
-0.008415125,0.02646496,0.9988388,0.00015271631,0.00061086525,0.0009162979,-0.08217611,0.2583741,9.8062525,2,1683969885.763158
-0.008415125,0.02646496,0.9988388,0.00015271631,0.0067195175,0.0021380284,-0.08217611,0.2583741,9.8062525,2,1683969885.7785456
-0.008415125,0.02646496,0.9988388,0.00015271631,0.0067195175,0.0021380284,-0.0820601,0.25836122,9.806254,2,1683969885.7836804
-0.009878625,0.025489293,0.9993266,0.00015271631,0.0067195175,0.0021380284,-0.0820601,0.25836122,9.806254,2,1683969885.788813
-0.0070126047,0.02792846,1.0012779,0.00015271631,0.0067195175,0.0021380284,-0.0820601,0.25836122,9.806254,2,1683969885.809326
-0.0070126047,0.02792846,1.0012779,-0.0010690142,0.00061086525,-0.00030543262,-0.0820601,0.25836122,9.806254,2,1683969885.8144581
-0.0070126047,0.02792846,1.0012779,-0.0010690142,0.00061086525,-0.00030543262,-0.08224169,0.2583447,9.8062525,2,1683969885.819544
-0.008902958,0.024025792,0.9963996,-0.0010690142,0.00061086525,-0.00030543262,-0.08224169,0.2583447,9.8062525,2,1683969885.8349657
-0.008902958,0.024025792,0.9963996,0.00015271631,0.00061086525,-0.00030543262,-0.08224169,0.2583447,9.8062525,2,1683969885.840098
-0.008902958,0.024025792,0.9963996,0.00015271631,0.00061086525,-0.00030543262,-0.082352534,0.25828457,9.806253,2,1683969885.8503566
-0.008902958,0.024025792,0.9963996,0.0013744468,0.0018325958,-0.00030543262,-0.082352534,0.25828457,9.806253,2,1683969885.8760152
-0.008963938,0.02695279,1.0003022,0.0013744468,0.0018325958,-0.00030543262,-0.082352534,0.25828457,9.806253,2,1683969885.881144
-0.008963938,0.02695279,1.0003022,0.0013744468,0.0018325958,-0.00030543262,-0.08248926,0.25832045,9.806252,2,1683969885.8862715
-0.008963938,0.02695279,1.0003022,0.0013744468,0.0018325958,-0.00030543262,-0.082518645,0.25850362,9.806247,2,1683969885.901622
-0.008963938,0.02695279,1.0003022,0.0013744468,-0.0018325958,0.0021380284,-0.082518645,0.25850362,9.806247,2,1683969885.9271822
-0.008415125,0.025489293,0.9978631,0.0013744468,-0.0018325958,0.0021380284,-0.082518645,0.25850362,9.806247,2,1683969885.932312
-0.008415125,0.02792846,0.9988388,0.0013744468,-0.0018325958,0.0021380284,-0.082518645,0.25850362,9.806247,2,1683969885.9425685
-0.008415125,0.02792846,0.9988388,0.00015271631,0.0030543262,-0.0015271631,-0.082518645,0.25850362,9.806247,2,1683969885.9477072
-0.008415125,0.02792846,0.9988388,0.00015271631,0.0030543262,-0.0015271631,-0.08257532,0.25865465,9.806242,2,1683969885.9630837
-0.009390792,0.027440626,0.9973753,0.00015271631,0.0030543262,-0.0015271631,-0.08257532,0.25865465,9.806242,2,1683969885.9784725
-0.009390792,0.027440626,0.9973753,0.00015271631,0.0018325958,0.0021380284,-0.08257532,0.25865465,9.806242,2,1683969885.9989514
-0.009390792,0.027440626,0.9973753,0.00015271631,0.0018325958,0.0021380284,-0.08261133,0.25860095,9.806244,2,1683969886.0040805
-0.009390792,0.027440626,0.9973753,0.00015271631,0.00061086525,-0.00030543262,-0.08261133,0.25860095,9.806244,2,1683969886.029634
-0.009390792,0.02792846,0.9978631,0.00015271631,0.00061086525,-0.00030543262,-0.08261133,0.25860095,9.806244,2,1683969886.034778
-0.009390792,0.02792846,0.9978631,0.00015271631,0.00061086525,-0.00030543262,-0.082627155,0.25864518,9.806242,2,1683969886.039908
-0.009390792,0.02792846,0.9978631,0.00015271631,0.00061086525,-0.00030543262,-0.08266107,0.25862056,9.806242,2,1683969886.0501754
-0.009390792,0.02792846,0.9978631,0.0013744468,0.005497787,-0.00030543262,-0.08266107,0.25862056,9.806242,2,1683969886.0655293
-0.009390792,0.02792846,0.9978631,0.00015271631,-0.0018325958,-0.00030543262,-0.08266107,0.25862056,9.806242,2,1683969886.0860205
-0.008415125,0.027440626,0.9988388,0.00015271631,-0.0018325958,-0.00030543262,-0.08266107,0.25862056,9.806242,2,1683969886.0962791
-0.008415125,0.027440626,0.9988388,0.00015271631,-0.0018325958,-0.00030543262,-0.08350779,0.2583911,9.806241,2,1683969886.1014047
-0.008415125,0.027440626,0.9988388,0.00015271631,-0.0018325958,-0.00030543262,-0.0837338,0.258594,9.806234,2,1683969886.12192
-0.009451771,0.02841629,1.0007901,0.00015271631,-0.0018325958,-0.00030543262,-0.0837338,0.258594,9.806234,2,1683969886.1270518
-0.009451771,0.02841629,1.0007901,0.0013744468,0.0030543262,0.0009162979,-0.0837338,0.258594,9.806234,2,1683969886.1321862
-0.008902958,0.02646496,0.9988388,0.0013744468,0.0030543262,0.0009162979,-0.0837338,0.258594,9.806234,2,1683969886.147549
-0.008902958,0.02646496,0.9988388,0.0013744468,0.0030543262,0.0009162979,-0.08390923,0.25866354,9.806231,2,1683969886.1680648
-0.008902958,0.02646496,0.9988388,-0.0010690142,0.0018325958,-0.0015271631,-0.08390923,0.25866354,9.806231,2,1683969886.1731884
-0.008902958,0.02646496,0.9988388,-0.0010690142,0.0018325958,-0.0015271631,-0.08416001,0.25869024,9.806229,2,1683969886.1988215
-0.008476105,0.027440626,1.0022537,-0.0010690142,0.0018325958,-0.0015271631,-0.08416001,0.25869024,9.806229,2,1683969886.2039168
-0.008476105,0.027440626,1.0022537,0.00015271631,-0.00061086525,0.0009162979,-0.08416001,0.25869024,9.806229,2,1683969886.209024
-0.008963938,0.025489293,1.0003022,0.00015271631,-0.00061086525,0.0009162979,-0.08416001,0.25869024,9.806229,2,1683969886.219265
-0.008963938,0.025489293,1.0003022,0.0013744468,0.0018325958,-0.00030543262,-0.08416001,0.25869024,9.806229,2,1683969886.2346752
-0.008963938,0.025489293,1.0003022,0.0013744468,0.0018325958,-0.00030543262,-0.08416942,0.25867343,9.806229,2,1683969886.2397738
-0.008963938,0.025489293,1.0003022,0.0013744468,0.0018325958,-0.00030543262,-0.084326096,0.25873956,9.806225,2,1683969886.2603438
-0.0074394583,0.025977125,0.998351,0.0013744468,0.0018325958,-0.00030543262,-0.084326096,0.25873956,9.806225,2,1683969886.2654912
-0.0074394583,0.025977125,0.998351,0.00015271631,-0.0018325958,-0.00030543262,-0.084326096,0.25873956,9.806225,2,1683969886.2809122
-0.008902958,0.02933098,0.9959117,0.00015271631,-0.0018325958,-0.00030543262,-0.084326096,0.25873956,9.806225,2,1683969886.2963378
-0.008902958,0.02933098,0.9959117,0.00015271631,-0.0018325958,-0.00030543262,-0.08420024,0.25873277,9.806227,2,1683969886.3014424
-0.008902958,0.02933098,0.9959117,-0.0010690142,-0.0018325958,-0.0015271631,-0.08420024,0.25873277,9.806227,2,1683969886.3065875
-0.009878625,0.02646496,0.998351,-0.0010690142,-0.0018325958,-0.0015271631,-0.08420024,0.25873277,9.806227,2,1683969886.3271239
-0.009878625,0.02646496,0.998351,-0.0010690142,-0.0018325958,-0.0015271631,-0.08421944,0.2585648,9.806231,2,1683969886.332225
-0.0074394583,0.025001459,0.9993266,-0.0010690142,-0.0018325958,-0.0015271631,-0.08421944,0.2585648,9.806231,2,1683969886.342426
-0.0074394583,0.025001459,0.9993266,-0.0010690142,-0.0018325958,-0.0015271631,-0.08419938,0.25862944,9.80623,2,1683969886.3578024
-0.0074394583,0.025001459,0.9993266,0.00015271631,0.0018325958,-0.00030543262,-0.08419938,0.25862944,9.80623,2,1683969886.3833091
-0.009390792,0.02695279,0.9959117,0.00015271631,0.0018325958,-0.00030543262,-0.08419938,0.25862944,9.80623,2,1683969886.393566
-0.009390792,0.02695279,0.9959117,0.00015271631,0.0018325958,-0.00030543262,-0.08423744,0.25859022,9.80623,2,1683969886.398695
-0.009390792,0.02695279,0.9959117,-0.0010690142,0.00061086525,-0.00030543262,-0.08423744,0.25859022,9.80623,2,1683969886.414085
-0.009451771,0.02695279,0.9998144,-0.0010690142,0.00061086525,-0.00030543262,-0.08423744,0.25859022,9.80623,2,1683969886.4192054
-0.009451771,0.02695279,0.9998144,-0.0010690142,0.00061086525,-0.00030543262,-0.084367156,0.2586847,9.806226,2,1683969886.4345806
-0.009451771,0.02695279,0.9998144,0.00015271631,0.00061086525,-0.00030543262,-0.084367156,0.2586847,9.806226,2,1683969886.444841
-0.009451771,0.02695279,0.9998144,0.00015271631,0.00061086525,-0.00030543262,-0.084295966,0.25853187,9.806231,2,1683969886.4499896
-0.008902958,0.02646496,0.9988388,0.00015271631,0.00061086525,-0.00030543262,-0.084295966,0.25853187,9.806231,2,1683969886.4601676
-0.008902958,0.02646496,0.9988388,0.00015271631,0.00061086525,-0.00030543262,-0.08424256,0.2585976,9.80623,2,1683969886.4909506
-0.009878625,0.024513626,0.9978631,0.00015271631,0.00061086525,-0.00030543262,-0.08424256,0.2585976,9.80623,2,1683969886.4960833
-0.009878625,0.024513626,0.9978631,0.0013744468,-0.00061086525,-0.00030543262,-0.08424256,0.2585976,9.80623,2,1683969886.5063355
-0.009390792,0.025977125,0.9993266,0.0013744468,-0.00061086525,-0.00030543262,-0.08424256,0.2585976,9.80623,2,1683969886.511466
-0.009390792,0.025977125,0.9993266,0.0013744468,-0.00061086525,-0.00030543262,-0.08424597,0.25866088,9.806228,2,1683969886.5268123
-0.009390792,0.025977125,0.9993266,0.0013744468,-0.00061086525,-0.0015271631,-0.08424597,0.25866088,9.806228,2,1683969886.5319464
-0.008415125,0.027440626,0.9988388,0.0013744468,-0.00061086525,-0.0015271631,-0.08424597,0.25866088,9.806228,2,1683969886.5626435
-0.008415125,0.027440626,0.9988388,0.00015271631,-0.0018325958,0.0021380284,-0.08424597,0.25866088,9.806228,2,1683969886.5729034
-0.008415125,0.027440626,0.9988388,0.00015271631,-0.0018325958,0.0021380284,-0.084307425,0.25879887,9.806224,2,1683969886.5780258
-0.008415125,0.027440626,0.9988388,0.00015271631,-0.0018325958,0.0021380284,-0.084225655,0.25884324,9.806223,2,1683969886.5985386
-0.008415125,0.027440626,0.9988388,0.0025961774,0.0030543262,-0.00030543262,-0.084225655,0.25884324,9.806223,2,1683969886.6036675
-0.008902958,0.02646496,0.9993266,0.0025961774,0.0030543262,-0.00030543262,-0.084225655,0.25884324,9.806223,2,1683969886.6087701
-0.008902958,0.02646496,0.9993266,0.0013744468,-0.0030543262,-0.00030543262,-0.084225655,0.25884324,9.806223,2,1683969886.6241536
-0.008902958,0.02646496,0.9993266,0.0013744468,-0.0030543262,-0.00030543262,-0.08380895,0.2588276,9.806228,2,1683969886.6446214
-0.009878625,0.02841629,0.9978631,0.0013744468,-0.0030543262,-0.00030543262,-0.08380895,0.2588276,9.806228,2,1683969886.654878
-0.008476105,0.029391957,1.0003022,0.0013744468,-0.0030543262,-0.00030543262,-0.08380895,0.2588276,9.806228,2,1683969886.6702714
-0.008476105,0.029391957,1.0003022,0.0013744468,-0.0030543262,-0.00030543262,-0.0836277,0.25888497,9.806228,2,1683969886.6753936
-0.008476105,0.029391957,1.0003022,-0.0010690142,-0.00061086525,-0.00030543262,-0.0836277,0.25888497,9.806228,2,1683969886.680522
-0.008476105,0.029391957,1.0003022,0.0013744468,0.0030543262,0.0009162979,-0.0836277,0.25888497,9.806228,2,1683969886.7113109
-0.008476105,0.029391957,1.0003022,0.0013744468,0.0030543262,0.0009162979,-0.083701044,0.25875726,9.806231,2,1683969886.716428
-0.009878625,0.025001459,0.9993266,0.0013744468,0.0030543262,0.0009162979,-0.083701044,0.25875726,9.806231,2,1683969886.7266877
-0.007927292,0.02695279,0.9988388,0.0013744468,0.0030543262,0.0009162979,-0.083701044,0.25875726,9.806231,2,1683969886.7420254
-0.007927292,0.02695279,0.9988388,0.0013744468,0.0030543262,0.0009162979,-0.08385006,0.25881112,9.806228,2,1683969886.747173
-0.007927292,0.02695279,0.9988388,0.0013744468,0.00061086525,0.0009162979,-0.08385006,0.25881112,9.806228,2,1683969886.7573977
-0.0060369377,0.02841629,0.9998144,0.0013744468,0.00061086525,0.0009162979,-0.08385006,0.25881112,9.806228,2,1683969886.7778738
-0.0060369377,0.02841629,0.9998144,0.0013744468,0.00061086525,0.0009162979,-0.0838634,0.25893426,9.806224,2,1683969886.788126
-0.0060369377,0.02841629,0.9998144,0.0013744468,-0.00061086525,0.0009162979,-0.0838634,0.25893426,9.806224,2,1683969886.7932515
-0.008415125,0.02841629,0.9993266,0.0013744468,-0.00061086525,0.0009162979,-0.0838634,0.25893426,9.806224,2,1683969886.8086264
-0.008415125,0.02841629,0.9993266,0.0013744468,-0.00061086525,0.0009162979,-0.083863385,0.2589914,9.806223,2,1683969886.8137558
-0.008415125,0.02841629,0.9993266,0.0013744468,0.00061086525,-0.0015271631,-0.083863385,0.2589914,9.806223,2,1683969886.8239846
-0.007927292,0.02841629,0.9993266,0.0013744468,0.00061086525,-0.0015271631,-0.083863385,0.2589914,9.806223,2,1683969886.8444052
-0.007927292,0.02841629,0.9993266,0.0013744468,-0.00061086525,0.0033597588,-0.083863385,0.2589914,9.806223,2,1683969886.859791
-0.007927292,0.02841629,0.9993266,0.0013744468,-0.00061086525,0.0033597588,-0.0839792,0.25907445,9.806219,2,1683969886.8649309
-0.007927292,0.02841629,0.9993266,-0.0022907446,-0.0032070426,-0.00030543262,-0.0839792,0.25907445,9.806219,2,1683969886.885463
-0.007927292,0.02841629,0.9993266,-0.0022907446,-0.0032070426,-0.00030543262,-0.08396872,0.25910956,9.806218,2,1683969886.8905556
-0.007927292,0.02695279,0.9988388,-0.0022907446,-0.0032070426,-0.00030543262,-0.08396872,0.25910956,9.806218,2,1683969886.9008415
-0.0074394583,0.025489293,0.9993266,-0.0022907446,-0.0032070426,-0.00030543262,-0.08396872,0.25910956,9.806218,2,1683969886.9059737
-0.0074394583,0.025489293,0.9993266,-0.0022907446,-0.0032070426,-0.00030543262,-0.08368927,0.259541,9.806209,2,1683969886.9161923
-0.0074394583,0.025489293,0.9993266,0.00015271631,-0.0030543262,-0.0015271631,-0.08368927,0.259541,9.806209,2,1683969886.9213269
-0.0069516255,0.025977125,0.9978631,0.00015271631,-0.0030543262,-0.0015271631,-0.08368927,0.259541,9.806209,2,1683969886.9469557
-0.0069516255,0.025977125,0.9978631,0.00015271631,-0.0030543262,-0.0015271631,-0.0835722,0.25959116,9.806209,2,1683969886.957221
-0.0069516255,0.025977125,0.9978631,0.0025961774,0.0018325958,-0.00030543262,-0.0835722,0.25959116,9.806209,2,1683969886.9674382
-0.0069516255,0.025977125,0.9978631,0.0013744468,0.0018325958,-0.00030543262,-0.0835722,0.25959116,9.806209,2,1683969886.977657
-0.0069516255,0.025977125,0.9978631,0.0013744468,0.0018325958,-0.00030543262,-0.08369045,0.25980565,9.806203,2,1683969886.9827943
-0.0069516255,0.025977125,0.9988388,0.0013744468,0.0018325958,-0.00030543262,-0.08369045,0.25980565,9.806203,2,1683969887.008395
-0.008415125,0.02646496,0.9978631,0.0013744468,0.0018325958,-0.00030543262,-0.08369045,0.25980565,9.806203,2,1683969887.0135288
-0.008415125,0.02646496,0.9978631,-0.0010690142,-0.0018325958,0.0021380284,-0.08369045,0.25980565,9.806203,2,1683969887.0391712
-0.008415125,0.02646496,0.9978631,-0.0010690142,-0.0018325958,0.0021380284,-0.083796285,0.25984874,9.8062,2,1683969887.0442617
-0.008415125,0.02646496,0.9978631,0.00015271631,-0.00061086525,0.0009162979,-0.083796285,0.25984874,9.8062,2,1683969887.0647786
-0.008415125,0.02646496,0.9978631,0.00015271631,-0.00061086525,0.0009162979,-0.08378363,0.25990793,9.806199,2,1683969887.06991
-0.007927292,0.02792846,0.998351,0.00015271631,-0.00061086525,0.0009162979,-0.08378363,0.25990793,9.806199,2,1683969887.0750515
-0.007927292,0.02792846,0.998351,-0.0010690142,0.0030543262,-0.0015271631,-0.08378363,0.25990793,9.806199,2,1683969887.1058722
-0.010366458,0.025489293,0.9993266,-0.0010690142,0.0030543262,-0.0015271631,-0.08378363,0.25990793,9.806199,2,1683969887.1109645
-0.010366458,0.025489293,0.9993266,-0.0010690142,0.0030543262,-0.0015271631,-0.08372748,0.2597787,9.806203,2,1683969887.1160858
-0.008902958,0.025977125,0.9973753,-0.0010690142,0.0030543262,-0.0015271631,-0.08372748,0.2597787,9.806203,2,1683969887.1212158
-0.008902958,0.025977125,0.9973753,-0.0010690142,-0.00061086525,-0.00030543262,-0.08372748,0.2597787,9.806203,2,1683969887.1365933
-0.008902958,0.025977125,0.9973753,-0.0010690142,-0.00061086525,-0.00030543262,-0.08391802,0.25982454,9.8062,2,1683969887.1468472
-0.008902958,0.025977125,0.9973753,-0.0010690142,-0.00061086525,-0.00030543262,-0.08400159,0.2598684,9.806198,2,1683969887.1723564
-0.008415125,0.02695279,0.9973753,-0.0010690142,-0.00061086525,-0.00030543262,-0.08400159,0.2598684,9.806198,2,1683969887.1877046
-0.008415125,0.02695279,0.9973753,-0.0010690142,-0.00061086525,-0.00030543262,-0.083804965,0.25956938,9.806208,2,1683969887.1928391
-0.008415125,0.02695279,0.9973753,0.00015271631,-0.0018325958,-0.0015271631,-0.083804965,0.25956938,9.806208,2,1683969887.2081895
-0.008415125,0.02695279,0.9973753,0.00015271631,-0.0018325958,-0.0015271631,-0.08379249,0.2595924,9.806208,2,1683969887.228491
-0.009939604,0.02695279,0.9998144,0.00015271631,-0.0018325958,-0.0015271631,-0.08379249,0.2595924,9.806208,2,1683969887.2336366
-0.008415125,0.02695279,0.9978631,0.00015271631,-0.0018325958,-0.0015271631,-0.08379249,0.2595924,9.806208,2,1683969887.254317
-0.008415125,0.02695279,0.9978631,0.00015271631,-0.0018325958,-0.0015271631,-0.08366072,0.2596788,9.806206,2,1683969887.2645178
-0.008415125,0.02695279,0.9978631,0.0013744468,-0.005497787,-0.00030543262,-0.08366072,0.2596788,9.806206,2,1683969887.2747726
-0.008963938,0.02792846,1.0007901,0.0013744468,-0.005497787,-0.00030543262,-0.08366072,0.2596788,9.806206,2,1683969887.305517
-0.008963938,0.02792846,1.0007901,0.0013744468,-0.005497787,-0.00030543262,-0.08357042,0.25968042,9.806207,2,1683969887.315799
-0.008963938,0.02792846,1.0007901,0.0013744468,0.0030543262,-0.0015271631,-0.08357042,0.25968042,9.806207,2,1683969887.3209348
-0.008963938,0.02792846,1.0007901,0.0013744468,0.00061086525,0.0009162979,-0.08357042,0.25968042,9.806207,2,1683969887.3312032
-0.008963938,0.02792846,1.0007901,0.0013744468,0.00061086525,0.0009162979,-0.083727345,0.25965604,9.806206,2,1683969887.346592
-0.008476105,0.025977125,1.0003022,0.0013744468,0.00061086525,0.0009162979,-0.083727345,0.25965604,9.806206,2,1683969887.3567839
-0.008476105,0.025977125,1.0003022,0.0013744468,0.00061086525,0.0009162979,-0.083897956,0.2597787,9.806201,2,1683969887.3619123
-0.008476105,0.025977125,1.0003022,0.0025961774,0.005497787,-0.00030543262,-0.083897956,0.2597787,9.806201,2,1683969887.367047
-0.0074394583,0.02792846,0.9993266,0.0025961774,0.005497787,-0.00030543262,-0.083897956,0.2597787,9.806201,2,1683969887.3874989
-0.0074394583,0.02792846,0.9993266,0.0013744468,0.0030543262,-0.00030543262,-0.083897956,0.2597787,9.806201,2,1683969887.408009
-0.0074394583,0.02792846,0.9993266,0.0013744468,0.0030543262,-0.00030543262,-0.08393748,0.25990808,9.806198,2,1683969887.4131432
-0.0074394583,0.025977125,0.9998144,0.0013744468,0.0030543262,-0.00030543262,-0.08393748,0.25990808,9.806198,2,1683969887.4182677
-0.0074394583,0.025977125,0.9998144,0.0013744468,0.0018325958,-0.00030543262,-0.08393748,0.25990808,9.806198,2,1683969887.443868
-0.008415125,0.025977125,0.9988388,0.0013744468,0.0018325958,-0.00030543262,-0.08393748,0.25990808,9.806198,2,1683969887.4489973
-0.008415125,0.025977125,0.9988388,0.0013744468,0.0018325958,-0.00030543262,-0.08409563,0.25997558,9.806194,2,1683969887.4591835
-0.008963938,0.025489293,1.0003022,0.0013744468,0.0018325958,-0.00030543262,-0.08409563,0.25997558,9.806194,2,1683969887.479695
-0.008963938,0.025489293,1.0003022,-0.0010690142,0.0018325958,0.0009162979,-0.08409563,0.25997558,9.806194,2,1683969887.4847808
-0.008963938,0.025489293,1.0003022,-0.0010690142,0.0018325958,0.0009162979,-0.084308796,0.26072472,9.806172,2,1683969887.4950063
-0.008963938,0.025489293,1.0003022,-0.0010690142,-0.00061086525,0.0009162979,-0.084308796,0.26072472,9.806172,2,1683969887.5155272
-0.008902958,0.02646496,0.9993266,-0.0010690142,-0.00061086525,0.0009162979,-0.084308796,0.26072472,9.806172,2,1683969887.520653
-0.008902958,0.02646496,0.9993266,-0.0010690142,-0.00061086525,0.0009162979,-0.084383674,0.26067206,9.806173,2,1683969887.530921
-0.009451771,0.024513626,1.0007901,-0.0010690142,-0.00061086525,0.0009162979,-0.084383674,0.26067206,9.806173,2,1683969887.5514255
-0.009451771,0.024513626,1.0007901,0.00015271631,-0.0030543262,0.0009162979,-0.084383674,0.26067206,9.806173,2,1683969887.5565548
-0.009451771,0.024513626,1.0007901,0.00015271631,-0.0030543262,0.0009162979,-0.0843455,0.2606105,9.806176,2,1683969887.5668204
-0.007927292,0.025977125,0.9978631,0.00015271631,-0.0030543262,0.0009162979,-0.0843455,0.2606105,9.806176,2,1683969887.5770729
-0.007927292,0.025977125,0.9978631,0.0013744468,0.0018325958,-0.0027488936,-0.0843455,0.2606105,9.806176,2,1683969887.592418
-0.007927292,0.025977125,0.9978631,0.0013744468,0.0018325958,-0.0027488936,-0.084202796,0.2605837,9.806177,2,1683969887.59755
-0.0064637917,0.024513626,0.9993266,0.0013744468,0.0018325958,-0.0027488936,-0.084202796,0.2605837,9.806177,2,1683969887.6129267
-0.0064637917,0.024513626,0.9993266,0.0013744468,0.0018325958,-0.0027488936,-0.08418456,0.26059535,9.806177,2,1683969887.6231966
-0.0064637917,0.024513626,0.9993266,0.0013744468,0.00061086525,0.0009162979,-0.08418456,0.26059535,9.806177,2,1683969887.6385782
-0.008415125,0.025489293,0.9988388,0.0013744468,0.00061086525,0.0009162979,-0.08418456,0.26059535,9.806177,2,1683969887.6488352
-0.008415125,0.025489293,0.9988388,0.00015271631,0.0018325958,0.0021380284,-0.08418456,0.26059535,9.806177,2,1683969887.6591022
-0.008415125,0.025489293,0.9988388,0.00015271631,0.0018325958,0.0021380284,-0.084293686,0.2606576,9.806174,2,1683969887.6642373
-0.009939604,0.024513626,1.0003022,0.00015271631,0.0018325958,0.0021380284,-0.084293686,0.2606576,9.806174,2,1683969887.7001235
-0.009939604,0.024513626,1.0003022,0.00015271631,0.00061086525,0.0009162979,-0.084293686,0.2606576,9.806174,2,1683969887.7052498
-0.009939604,0.024513626,1.0003022,-0.0010690142,-0.00061086525,-0.00030543262,-0.084293686,0.2606576,9.806174,2,1683969887.715479
-0.009939604,0.027440626,0.9998144,-0.0010690142,-0.00061086525,-0.00030543262,-0.084293686,0.2606576,9.806174,2,1683969887.735935
-0.009939604,0.027440626,0.9998144,-0.0010690142,-0.00061086525,-0.00030543262,-0.08440967,0.26067328,9.806173,2,1683969887.7410667
-0.009939604,0.027440626,0.9998144,-0.002443461,0.00061086525,0.0009162979,-0.08440967,0.26067328,9.806173,2,1683969887.766636
-0.007927292,0.02646496,0.9998144,-0.002443461,0.00061086525,0.0009162979,-0.08440967,0.26067328,9.806173,2,1683969887.7717686
-0.007927292,0.02646496,0.9998144,-0.002443461,0.00061086525,0.0009162979,-0.08468944,0.26095104,9.806164,2,1683969887.7768946
-0.008902958,0.02646496,0.9978631,-0.002443461,0.00061086525,0.0009162979,-0.08468944,0.26095104,9.806164,2,1683969887.8076804
-0.008902958,0.02646496,0.9978631,0.0012217305,0.0067195175,0.0009162979,-0.08468944,0.26095104,9.806164,2,1683969887.8128142
-0.008902958,0.02646496,0.9978631,0.0012217305,0.0067195175,0.0009162979,-0.084664084,0.2607355,9.8061695,2,1683969887.817908
-0.008902958,0.02646496,0.9978631,-0.0012217305,0.00061086525,-0.00030543262,-0.084664084,0.2607355,9.8061695,2,1683969887.8333228
-0.008902958,0.02646496,0.9978631,-0.0012217305,0.00061086525,-0.00030543262,-0.085107125,0.26070327,9.806167,2,1683969887.8435836
-0.0074394583,0.02695279,0.9973753,-0.0012217305,0.00061086525,-0.00030543262,-0.085107125,0.26070327,9.806167,2,1683969887.8538458
-0.0074394583,0.02695279,0.9973753,-0.0012217305,0.00061086525,-0.00030543262,-0.085246064,0.2606094,9.806168,2,1683969887.8692272
-0.0074394583,0.02695279,0.9973753,-0.0012217305,0.0018325958,0.0021380284,-0.085246064,0.2606094,9.806168,2,1683969887.879442
-0.0074394583,0.024513626,0.9998144,-0.0012217305,0.0018325958,0.0021380284,-0.085246064,0.2606094,9.806168,2,1683969887.8896973
-0.008415125,0.025489293,0.998351,-0.0012217305,0.0018325958,0.0021380284,-0.085246064,0.2606094,9.806168,2,1683969887.9153006
-0.008415125,0.025489293,0.998351,-0.0012217305,0.0018325958,0.0021380284,-0.08527295,0.26053005,9.8061695,2,1683969887.9204338
-0.008415125,0.025489293,0.998351,-0.0,0.00061086525,-0.00030543262,-0.08527295,0.26053005,9.8061695,2,1683969887.9255612
-0.008415125,0.025489293,0.998351,-0.0,-0.0018325958,0.0009162979,-0.08527295,0.26053005,9.8061695,2,1683969887.9358215
-0.009390792,0.02695279,0.9988388,-0.0,-0.0018325958,0.0009162979,-0.08527295,0.26053005,9.8061695,2,1683969887.9409502
-0.009390792,0.02695279,0.9988388,-0.0,-0.0018325958,0.0009162979,-0.08527547,0.2605827,9.806169,2,1683969887.956321
-0.008902958,0.02695279,0.9988388,-0.0,-0.0018325958,0.0009162979,-0.08527547,0.2605827,9.806169,2,1683969887.9768355
-0.008902958,0.02695279,0.9988388,-0.0012217305,0.00061086525,0.0009162979,-0.08527547,0.2605827,9.806169,2,1683969887.9819653
-0.008902958,0.02695279,0.9988388,-0.0012217305,0.00061086525,0.0009162979,-0.08515383,0.26064026,9.806168,2,1683969887.9922283
-0.008902958,0.02695279,0.9988388,-0.0012217305,0.00061086525,0.0009162979,-0.085080326,0.26062447,9.806169,2,1683969888.0076125
-0.0064637917,0.02646496,0.9988388,-0.0012217305,0.00061086525,0.0009162979,-0.085080326,0.26062447,9.806169,2,1683969888.0127423
-0.0069516255,0.02646496,0.9988388,-0.0012217305,0.00061086525,0.0009162979,-0.085080326,0.26062447,9.806169,2,1683969888.0383747
-0.0069516255,0.02646496,0.9988388,-0.0012217305,0.00061086525,0.0009162979,-0.08500777,0.26057914,9.80617,2,1683969888.0486257
-0.0069516255,0.02646496,0.9988388,-0.0,-0.0030543262,0.0009162979,-0.08500777,0.26057914,9.80617,2,1683969888.058884
-0.0070126047,0.025977125,1.0003022,-0.0,-0.0030543262,0.0009162979,-0.08500777,0.26057914,9.80617,2,1683969888.0691369
-0.0070126047,0.025977125,1.0003022,-0.002443461,-0.00061086525,0.0021380284,-0.08500777,0.26057914,9.80617,2,1683969888.0793574
-0.0070126047,0.025977125,1.0003022,-0.002443461,-0.00061086525,0.0021380284,-0.08480776,0.26061055,9.806171,2,1683969888.0844917
-0.0070126047,0.025977125,1.0003022,-0.002443461,-0.00061086525,0.0021380284,-0.08482191,0.2606369,9.80617,2,1683969888.099894
-0.0074394583,0.02695279,0.9988388,-0.002443461,-0.00061086525,0.0021380284,-0.08482191,0.2606369,9.80617,2,1683969888.1202998
-0.0074394583,0.02695279,0.9988388,-0.0,-0.0030543262,-0.00030543262,-0.08482191,0.2606369,9.80617,2,1683969888.130565
-0.0074394583,0.02695279,0.9988388,-0.0,-0.0030543262,-0.00030543262,-0.08464078,0.26058713,9.806173,2,1683969888.1459672
-0.0074394583,0.02695279,0.9988388,0.0012217305,-0.004276057,-0.00030543262,-0.08464078,0.26058713,9.806173,2,1683969888.156223
-0.008902958,0.02646496,0.9988388,0.0012217305,-0.004276057,-0.00030543262,-0.08464078,0.26058713,9.806173,2,1683969888.166494
-0.008902958,0.02646496,0.9988388,0.0012217305,-0.004276057,-0.00030543262,-0.08442759,0.26054394,9.806177,2,1683969888.1870039
-0.008415125,0.02695279,0.998351,0.0012217305,-0.004276057,-0.00030543262,-0.08442759,0.26054394,9.806177,2,1683969888.192138
-0.008415125,0.02695279,0.998351,-0.0,0.0030543262,-0.00030543262,-0.08442759,0.26054394,9.806177,2,1683969888.207512
-0.008415125,0.02695279,0.998351,-0.0,0.0030543262,-0.00030543262,-0.084430635,0.26059386,9.806175,2,1683969888.2126517
-0.009878625,0.02646496,0.9988388,-0.0,0.0030543262,-0.00030543262,-0.084430635,0.26059386,9.806175,2,1683969888.2279632
-0.009878625,0.02646496,0.9988388,0.0012217305,0.00061086525,0.0009162979,-0.084430635,0.26059386,9.806175,2,1683969888.2381806
-0.008415125,0.027440626,0.9968874,0.0012217305,0.00061086525,0.0009162979,-0.084430635,0.26059386,9.806175,2,1683969888.2432668
-0.008415125,0.027440626,0.9968874,0.0012217305,0.00061086525,0.0009162979,-0.08459221,0.26059994,9.806173,2,1683969888.258662
-0.008415125,0.027440626,0.9968874,0.0012217305,0.00061086525,0.0009162979,-0.08461835,0.26073393,9.8061695,2,1683969888.2740462
-0.008415125,0.025977125,0.9988388,0.0012217305,0.00061086525,0.0009162979,-0.08461835,0.26073393,9.8061695,2,1683969888.2791939
-0.008415125,0.025977125,0.9988388,-0.0,0.0030543262,-0.00030543262,-0.08461835,0.26073393,9.8061695,2,1683969888.2843254
-0.008415125,0.025977125,0.9988388,-0.0012217305,0.00061086525,-0.0027488936,-0.08461835,0.26073393,9.8061695,2,1683969888.3048298
-0.008415125,0.025977125,0.9988388,-0.0012217305,0.00061086525,-0.0015271631,-0.08461835,0.26073393,9.8061695,2,1683969888.315083
-0.009390792,0.025489293,0.9998144,-0.0012217305,0.00061086525,-0.0015271631,-0.08461835,0.26073393,9.8061695,2,1683969888.3202176
-0.009390792,0.025489293,0.9998144,-0.0012217305,0.00061086525,-0.0015271631,-0.083768405,0.2608063,9.806174,2,1683969888.3253503
-0.009390792,0.025489293,0.9998144,-0.0,0.00061086525,-0.00030543262,-0.083768405,0.2608063,9.806174,2,1683969888.3458745
-0.009390792,0.025489293,0.9998144,-0.0,0.00061086525,-0.00030543262,-0.08383181,0.2606942,9.806177,2,1683969888.3510034
-0.007927292,0.02695279,0.9973753,-0.0,0.00061086525,-0.00030543262,-0.08383181,0.2606942,9.806177,2,1683969888.3612733
-0.010366458,0.02646496,0.9988388,-0.0,0.00061086525,-0.00030543262,-0.08383181,0.2606942,9.806177,2,1683969888.366408
-0.010366458,0.02646496,0.9988388,-0.0012217305,0.00061086525,0.0033597588,-0.08383181,0.2606942,9.806177,2,1683969888.3715384
-0.010366458,0.02646496,0.9988388,-0.0012217305,0.00061086525,0.0033597588,-0.08384151,0.26072,9.806177,2,1683969888.376671
-0.010366458,0.02646496,0.9988388,-0.002443461,-0.0032070426,-0.00030543262,-0.08384151,0.26072,9.806177,2,1683969888.4126089
-0.010366458,0.02646496,0.9988388,-0.002443461,-0.0032070426,-0.00030543262,-0.08364989,0.26063955,9.806181,2,1683969888.4177375
-0.009390792,0.02695279,0.9988388,-0.002443461,-0.0032070426,-0.00030543262,-0.08364989,0.26063955,9.806181,2,1683969888.422868
-0.009390792,0.02695279,0.9988388,-0.0012217305,-0.00061086525,0.0009162979,-0.08364989,0.26063955,9.806181,2,1683969888.4484372
-0.009390792,0.02695279,0.9988388,-0.0012217305,-0.00061086525,0.0009162979,-0.08373957,0.2606692,9.806179,2,1683969888.4535685
-0.008415125,0.02841629,0.9968874,-0.0012217305,-0.00061086525,0.0009162979,-0.08373957,0.2606692,9.806179,2,1683969888.458653
-0.008415125,0.02841629,0.9968874,0.0012217305,0.00061086525,-0.00030543262,-0.08373957,0.2606692,9.806179,2,1683969888.484234
-0.008415125,0.02841629,0.9968874,0.0012217305,0.00061086525,-0.00030543262,-0.08379614,0.26072213,9.806177,2,1683969888.4944892
-0.008415125,0.027440626,0.9968874,0.0012217305,0.00061086525,-0.00030543262,-0.08379614,0.26072213,9.806177,2,1683969888.4996238
-0.008415125,0.027440626,0.9968874,0.0012217305,0.00061086525,-0.00030543262,-0.08378428,0.26070005,9.806178,2,1683969888.5047483
-0.008415125,0.027440626,0.9968874,-0.002443461,-0.006872234,0.0021380284,-0.08378428,0.26070005,9.806178,2,1683969888.5201967
-0.0074394583,0.025977125,0.998351,-0.002443461,-0.006872234,0.0021380284,-0.08378428,0.26070005,9.806178,2,1683969888.53558
-0.008902958,0.02695279,0.9993266,-0.002443461,-0.006872234,0.0021380284,-0.08378428,0.26070005,9.806178,2,1683969888.540714
-0.008902958,0.02695279,0.9993266,0.0012217305,0.0030543262,-0.00030543262,-0.08378428,0.26070005,9.806178,2,1683969888.5457978
-0.008902958,0.02695279,0.9993266,0.0012217305,0.0030543262,-0.00030543262,-0.08364478,0.26071256,9.806179,2,1683969888.5663044
-0.009878625,0.02695279,0.998351,0.0012217305,0.0030543262,-0.00030543262,-0.08364478,0.26071256,9.806179,2,1683969888.591933
-0.009878625,0.02695279,0.998351,0.0012217305,-0.0030543262,-0.00030543262,-0.08364478,0.26071256,9.806179,2,1683969888.5970662
-0.009878625,0.02695279,0.998351,0.0012217305,-0.0030543262,-0.00030543262,-0.08416485,0.26060903,9.806177,2,1683969888.6021945
-0.009878625,0.02695279,0.998351,0.0036651916,0.0030543262,-0.00030543262,-0.08416485,0.26060903,9.806177,2,1683969888.6226544
-0.009878625,0.02695279,0.998351,0.0036651916,0.0030543262,-0.00030543262,-0.08419861,0.2606853,9.806174,2,1683969888.6277876
-0.007927292,0.025977125,0.9993266,0.0036651916,0.0030543262,-0.00030543262,-0.08419861,0.2606853,9.806174,2,1683969888.643183
-0.009390792,0.025489293,0.9998144,0.0036651916,0.0030543262,-0.00030543262,-0.08419861,0.2606853,9.806174,2,1683969888.648317
-0.009390792,0.025489293,0.9998144,0.002443461,-0.0030543262,-0.00030543262,-0.08419861,0.2606853,9.806174,2,1683969888.658575
-0.009390792,0.025489293,0.9998144,0.002443461,-0.0030543262,-0.00030543262,-0.084340684,0.26079026,9.80617,2,1683969888.6739237
-0.009390792,0.025489293,0.9998144,0.002443461,-0.0030543262,-0.00030543262,-0.084254414,0.26088628,9.806169,2,1683969888.6841848
-0.0075004376,0.025001459,1.0003022,0.002443461,-0.0030543262,-0.00030543262,-0.084254414,0.26088628,9.806169,2,1683969888.69444
-0.00798827,0.025977125,1.0007901,0.002443461,0.0030543262,-0.00030543262,-0.0846629,0.26096606,9.806163,2,1683969888.7150965
-0.00798827,0.025977125,1.0007901,-0.0012217305,0.005497787,-0.0027488936,-0.0846629,0.26096606,9.806163,2,1683969888.720219
-0.00798827,0.025977125,1.0007901,-0.0,-0.0030543262,0.0009162979,-0.0846629,0.26096606,9.806163,2,1683969888.7304778
-0.00798827,0.025977125,1.0007901,-0.0,-0.0030543262,0.0009162979,-0.08494392,0.2609646,9.806161,2,1683969888.7407124
-0.009390792,0.025001459,0.9963996,-0.0,-0.0030543262,0.0009162979,-0.08494392,0.2609646,9.806161,2,1683969888.7509239
-0.009390792,0.025001459,0.9963996,0.008552114,-0.004276057,-0.00015271631,-0.08494392,0.2609646,9.806161,2,1683969888.771346
-0.012195834,0.024452647,0.9838379,0.008552114,-0.004276057,-0.00015271631,-0.08494392,0.2609646,9.806161,2,1683969888.7764788
-0.012195834,0.024452647,0.9838379,0.008552114,-0.004276057,-0.00015271631,-0.084946066,0.260948,9.806161,2,1683969888.7816088
-0.012195834,0.024452647,0.9838379,0.008552114,-0.004276057,-0.00015271631,-0.0824828,0.26291332,9.806129,2,1683969888.7918792
