acc_x,acc_y,acc_z,gyr_x,gyr_y,gyr_z,grav_x,grav_y,grav_z,label,timestamp
-0.006524771,0.028904125,1.0002413,0.00015271631,-0.00290161,-0.0016798794,-0.078141,0.26981595,9.805978,2,1683969914.0746467
-0.0074394583,0.02792846,0.9978631,0.00015271631,-0.00290161,-0.0016798794,-0.078141,0.26981595,9.805978,2,1683969914.09046
-0.0074394583,0.02792846,0.9978631,0.0013744468,0.00076358154,-0.00290161,-0.078012876,0.26983833,9.805978,2,1683969914.0957046
-0.005549104,0.02792846,1.0007291,0.0013744468,0.00076358154,-0.00290161,-0.078012876,0.26983833,9.805978,2,1683969914.1010308
-0.005549104,0.02792846,1.0007291,0.0013744468,0.00076358154,-0.00290161,-0.078029305,0.2698711,9.805978,2,1683969914.1268153
-0.005549104,0.02792846,1.0007291,0.00015271631,-0.00290161,-0.00045814895,-0.078029305,0.2698711,9.805978,2,1683969914.131923
-0.008415125,0.02841629,0.99829,0.00015271631,-0.00290161,-0.00045814895,-0.078029305,0.2698711,9.805978,2,1683969914.1421885
-0.008415125,0.02841629,0.99829,0.00015271631,-0.00290161,-0.00045814895,-0.07770488,0.26974204,9.805984,2,1683969914.147281
-0.008415125,0.02841629,0.99829,0.00015271631,0.008093964,-0.0016798794,-0.07770488,0.26974204,9.805984,2,1683969914.1524148
-0.007927292,0.028904125,0.9987778,0.00015271631,0.008093964,-0.0016798794,-0.07770488,0.26974204,9.805984,2,1683969914.1780534
-0.007927292,0.028904125,0.9987778,-0.0035124752,-0.00061086525,-0.00045814895,-0.07770488,0.26974204,9.805984,2,1683969914.1882253
-0.007927292,0.028904125,0.9987778,-0.0035124752,-0.00061086525,-0.00045814895,-0.07778304,0.26969466,9.805984,2,1683969914.1983964
-0.007927292,0.028904125,0.9987778,-0.0035124752,-0.00061086525,-0.00045814895,-0.07774761,0.26954287,9.805988,2,1683969914.2086117
-0.007927292,0.025489293,0.998351,-0.0035124752,-0.00061086525,-0.00045814895,-0.07774761,0.26954287,9.805988,2,1683969914.2188354
-0.007927292,0.025489293,0.998351,-0.0010690142,-0.0016798794,-0.00045814895,-0.07774761,0.26954287,9.805988,2,1683969914.2291005
-0.007927292,0.025489293,0.998351,-0.0010690142,-0.0016798794,-0.00045814895,-0.07775232,0.26946437,9.80599,2,1683969914.249581
-0.009878625,0.02646496,0.9987778,-0.0010690142,-0.0016798794,-0.00045814895,-0.07775232,0.26946437,9.80599,2,1683969914.2598403
-0.009878625,0.02646496,0.9987778,0.0025961774,0.00076358154,0.00076358154,-0.07775232,0.26946437,9.80599,2,1683969914.2701018
-0.009878625,0.02646496,0.9987778,0.0025961774,0.00076358154,0.00076358154,-0.07741467,0.26967368,9.805987,2,1683969914.2803223
-0.0074394583,0.02695279,0.9987778,0.0025961774,0.00076358154,0.00076358154,-0.07741467,0.26967368,9.805987,2,1683969914.2854326
-0.0074394583,0.02695279,0.9987778,-0.0010690142,0.00076358154,0.00076358154,-0.07741467,0.26967368,9.805987,2,1683969914.3058949
-0.0074394583,0.02695279,0.9987778,0.0013744468,0.00076358154,-0.00045814895,-0.07741467,0.26967368,9.805987,2,1683969914.3315115
-0.0074394583,0.02695279,0.9987778,0.0013744468,0.00076358154,-0.00045814895,-0.07737437,0.26972878,9.805986,2,1683969914.34177
-0.0074394583,0.027440626,0.9968874,0.0013744468,0.00076358154,-0.00045814895,-0.07737437,0.26972878,9.805986,2,1683969914.3468697
-0.0074394583,0.02695279,0.9993266,0.0013744468,0.00076358154,-0.00045814895,-0.07737437,0.26972878,9.805986,2,1683969914.3520021
-0.0074394583,0.02695279,0.9993266,0.00015271631,0.00076358154,0.00076358154,-0.07737437,0.26972878,9.805986,2,1683969914.3776066
-0.0074394583,0.02695279,0.9993266,0.00015271631,0.00076358154,0.00076358154,-0.0774185,0.26986048,9.805983,2,1683969914.382743
-0.0074394583,0.02695279,0.9993266,0.00015271631,-0.0016798794,-0.0016798794,-0.0774185,0.26986048,9.805983,2,1683969914.392973
-0.0074394583,0.02695279,0.9993266,0.00015271631,-0.0016798794,-0.0016798794,-0.0774703,0.26981565,9.805984,2,1683969914.3980682
-0.0070126047,0.02695279,1.0003022,0.00015271631,-0.0016798794,-0.0016798794,-0.0774703,0.26981565,9.805984,2,1683969914.4032025
-0.0070126047,0.02695279,1.0003022,0.00015271631,0.001985312,-0.00290161,-0.0774703,0.26981565,9.805984,2,1683969914.4237225
-0.007927292,0.02695279,0.9993266,0.00015271631,0.001985312,-0.00290161,-0.0774703,0.26981565,9.805984,2,1683969914.433983
-0.007927292,0.02695279,0.9993266,0.00015271631,0.001985312,-0.00290161,-0.07741396,0.2697726,9.805985,2,1683969914.4544609
-0.00798827,0.025977125,1.0003022,0.00015271631,0.001985312,-0.00290161,-0.07741396,0.2697726,9.805985,2,1683969914.469847
-0.00798827,0.025977125,1.0003022,0.00015271631,0.001985312,-0.00290161,-0.07745034,0.2697305,9.805985,2,1683969914.4800723
-0.00798827,0.025977125,1.0003022,0.00015271631,0.00076358154,0.00076358154,-0.07745034,0.2697305,9.805985,2,1683969914.4902887
-0.00798827,0.025977125,1.0003022,0.00015271631,0.00076358154,0.00076358154,-0.07755652,0.26965842,9.805987,2,1683969914.495413
-0.00798827,0.025977125,1.0003022,0.00015271631,0.001985312,0.00076358154,-0.07755652,0.26965842,9.805987,2,1683969914.5005407
-0.007927292,0.02792846,0.9988388,0.00015271631,0.001985312,0.00076358154,-0.07755652,0.26965842,9.805987,2,1683969914.5210192
-0.007927292,0.02792846,0.9988388,0.00015271631,-0.00045814895,0.001985312,-0.07755652,0.26965842,9.805987,2,1683969914.5312345
-0.007927292,0.02792846,0.9988388,0.00015271631,-0.00045814895,0.001985312,-0.07765907,0.26966274,9.805986,2,1683969914.5363579
-0.007927292,0.02695279,0.9993266,0.00015271631,-0.00045814895,0.001985312,-0.07765907,0.26966274,9.805986,2,1683969914.5414937
-0.007927292,0.02695279,0.9993266,0.00015271631,-0.00045814895,0.001985312,-0.07772285,0.26958957,9.805987,2,1683969914.5722294
-0.007927292,0.02695279,0.9993266,0.00045814895,-0.0010690142,0.0009162979,-0.07772285,0.26958957,9.805987,2,1683969914.5876153
-0.007927292,0.02792846,0.998351,0.00045814895,-0.0010690142,0.0009162979,-0.07772285,0.26958957,9.805987,2,1683969914.5978746
-0.0074394583,0.02792846,0.9978631,0.00045814895,-0.0010690142,0.0009162979,-0.07772285,0.26958957,9.805987,2,1683969914.6183934
-0.008415125,0.027440626,0.9988388,0.00290161,0.0013744468,-0.00030543262,-0.07759949,0.2696662,9.805986,2,1683969914.6286922
-0.0075004376,0.027440626,1.0003022,-0.00076358154,0.00015271631,0.0009162979,-0.0775003,0.2696383,9.805988,2,1683969914.633848
-0.0075004376,0.027440626,1.0003022,0.0016798794,-0.0010690142,0.0009162979,-0.0775003,0.2696383,9.805988,2,1683969914.638975
-0.0075004376,0.027440626,1.0003022,0.0016798794,-0.0010690142,0.0009162979,-0.07740246,0.26959875,9.80599,2,1683969914.6543198
-0.0070126047,0.02695279,0.9998144,0.0016798794,-0.0010690142,0.0009162979,-0.07740246,0.26959875,9.80599,2,1683969914.6645343
-0.0074394583,0.02646496,0.9973753,0.0016798794,-0.0010690142,0.0009162979,-0.07740246,0.26959875,9.80599,2,1683969914.6850498
-0.0074394583,0.02646496,0.9973753,0.0016798794,-0.0010690142,0.0009162979,-0.07725265,0.26972112,9.805987,2,1683969914.6952655
-0.0074394583,0.02646496,0.9973753,0.00045814895,-0.0010690142,-0.00030543262,-0.07725265,0.26972112,9.805987,2,1683969914.7004013
-0.0074394583,0.024513626,0.9988388,0.00045814895,-0.0010690142,-0.00030543262,-0.07725265,0.26972112,9.805987,2,1683969914.726031
-0.0074394583,0.024513626,0.9988388,0.00045814895,-0.0010690142,-0.00030543262,-0.07698799,0.26969048,9.80599,2,1683969914.7311635
-0.0074394583,0.024513626,0.9988388,-0.00076358154,-0.0022907446,0.0021380284,-0.07698799,0.26969048,9.80599,2,1683969914.741424
-0.007927292,0.025977125,0.9988388,-0.00076358154,-0.0022907446,0.0021380284,-0.07698799,0.26969048,9.80599,2,1683969914.7516878
-0.007927292,0.025977125,0.9988388,-0.00076358154,-0.0022907446,0.0021380284,-0.0769188,0.2696145,9.805993,2,1683969914.7568173
-0.007927292,0.025977125,0.9988388,0.0016798794,0.0025961774,-0.0015271631,-0.0769188,0.2696145,9.805993,2,1683969914.7619524
-0.007927292,0.02695279,0.9973753,0.0016798794,0.0025961774,-0.0015271631,-0.0769188,0.2696145,9.805993,2,1683969914.782467
-0.007927292,0.02695279,0.9973753,-0.00076358154,0.00015271631,0.0021380284,-0.0769188,0.2696145,9.805993,2,1683969914.7875824
-0.007927292,0.02695279,0.9973753,-0.00076358154,0.00015271631,0.0021380284,-0.07684673,0.26974013,9.80599,2,1683969914.7927082
-0.007927292,0.02695279,0.9973753,-0.00076358154,0.00015271631,0.0021380284,-0.076891236,0.26977476,9.805988,2,1683969914.82348
-0.008415125,0.027440626,0.99829,-0.00076358154,0.00015271631,0.0021380284,-0.076891236,0.26977476,9.805988,2,1683969914.8388643
-0.008415125,0.027440626,0.99829,0.00290161,-0.0022907446,-0.00030543262,-0.076891236,0.26977476,9.805988,2,1683969914.8439531
-0.008415125,0.027440626,0.99829,0.00290161,-0.0022907446,-0.00030543262,-0.07670045,0.2699902,9.8059845,2,1683969914.8695076
-0.008415125,0.02695279,0.9973753,0.00290161,-0.0022907446,-0.00030543262,-0.07670045,0.2699902,9.8059845,2,1683969914.879766
-0.008415125,0.02695279,0.9973753,0.00045814895,0.0038179078,0.0009162979,-0.07670045,0.2699902,9.8059845,2,1683969914.8849
-0.0070126047,0.02841629,0.9997535,0.00045814895,0.0038179078,0.0009162979,-0.07670045,0.2699902,9.8059845,2,1683969914.8951614
-0.0070126047,0.02841629,0.9997535,0.00045814895,0.0038179078,0.0009162979,-0.076887995,0.27004552,9.805982,2,1683969914.900331
-0.0070126047,0.02841629,0.9997535,0.00290161,-0.0022907446,-0.00030543262,-0.076887995,0.27004552,9.805982,2,1683969914.9105814
-0.008902958,0.025977125,0.9992657,0.00290161,-0.0022907446,-0.00030543262,-0.076887995,0.27004552,9.805982,2,1683969914.9311395
-0.008902958,0.025977125,0.9992657,-0.00076358154,-0.0035124752,0.0021380284,-0.076887995,0.27004552,9.805982,2,1683969914.9362695
-0.008902958,0.025977125,0.9992657,-0.00076358154,-0.0035124752,0.0021380284,-0.076778375,0.26993623,9.805985,2,1683969914.95166
-0.008902958,0.025977125,0.9992657,0.00290161,0.00015271631,-0.0015271631,-0.076778375,0.26993623,9.805985,2,1683969914.9670508
-0.008902958,0.025977125,0.9992657,0.00290161,0.00015271631,-0.0015271631,-0.076642774,0.26996812,9.805985,2,1683969914.9721825
-0.0064637917,0.02792846,0.9988388,0.00290161,0.00015271631,-0.0015271631,-0.076642774,0.26996812,9.805985,2,1683969914.977313
-0.008963938,0.02646496,0.9997535,0.00290161,0.00015271631,-0.0015271631,-0.076642774,0.26996812,9.805985,2,1683969915.0081105
-0.008902958,0.025977125,0.998351,0.00290161,0.00015271631,-0.0015271631,-0.076642774,0.26996812,9.805985,2,1683969915.0183785
-0.008902958,0.025977125,0.998351,0.00290161,0.00015271631,-0.0015271631,-0.07635987,0.27019545,9.805982,2,1683969915.0286288
-0.008902958,0.025977125,0.998351,-0.00076358154,-0.0010690142,0.0009162979,-0.07635987,0.27019545,9.805982,2,1683969915.0388856
-0.00798827,0.02646496,0.9998144,-0.00076358154,-0.0010690142,0.0009162979,-0.07635987,0.27019545,9.805982,2,1683969915.064449
-0.00798827,0.02646496,0.9998144,-0.00076358154,-0.0010690142,0.0009162979,-0.07624938,0.27019247,9.805983,2,1683969915.0747058
-0.00798827,0.02646496,0.9998144,-0.00076358154,-0.0036651916,-0.0015271631,-0.07624938,0.27019247,9.805983,2,1683969915.0798368
-0.00798827,0.02646496,0.9998144,-0.00076358154,-0.0036651916,-0.0015271631,-0.07595373,0.2701998,9.8059845,2,1683969915.1003234
-0.0074394583,0.025977125,0.9978631,-0.00076358154,-0.0036651916,-0.0015271631,-0.07595373,0.2701998,9.8059845,2,1683969915.1105871
-0.0074394583,0.025977125,0.9978631,0.00045814895,-0.008552114,0.0010690142,-0.07595373,0.2701998,9.8059845,2,1683969915.115718
-0.0074394583,0.025977125,0.9978631,0.00045814895,0.0013744468,-0.00030543262,-0.07595373,0.2701998,9.8059845,2,1683969915.1208513
-0.0074394583,0.025977125,0.9978631,0.00045814895,0.0013744468,-0.00030543262,-0.07580639,0.270174,9.805986,2,1683969915.1259828
-0.0069516255,0.025977125,0.9998144,0.00045814895,0.0013744468,-0.00030543262,-0.07580639,0.270174,9.805986,2,1683969915.1311245
-0.0074394583,0.027440626,0.9968874,0.00045814895,0.0013744468,-0.00030543262,-0.07580639,0.270174,9.805986,2,1683969915.1619163
-0.0074394583,0.027440626,0.9968874,-0.0032070426,-0.0061086523,-0.00030543262,-0.07580639,0.270174,9.805986,2,1683969915.1772962
-0.0074394583,0.027440626,0.9968874,-0.0032070426,-0.0061086523,-0.00030543262,-0.075886674,0.27019927,9.805985,2,1683969915.1875086
-0.0074394583,0.027440626,0.9968874,-0.0032070426,-0.0061086523,-0.00030543262,-0.075513266,0.27049673,9.80598,2,1683969915.21315
-0.008415125,0.02841629,0.9992657,-0.0032070426,-0.0061086523,-0.00030543262,-0.075513266,0.27049673,9.80598,2,1683969915.2233243
-0.008415125,0.02841629,0.9992657,0.0016798794,0.00015271631,-0.0015271631,-0.075513266,0.27049673,9.80598,2,1683969915.2335894
-0.007927292,0.02695279,0.9992657,0.0016798794,0.00015271631,-0.0015271631,-0.075513266,0.27049673,9.80598,2,1683969915.254094
-0.007927292,0.02695279,0.9992657,0.0016798794,0.00015271631,-0.0015271631,-0.07551719,0.27076247,9.805972,2,1683969915.2591987
-0.007927292,0.02695279,0.9992657,0.00290161,-0.0010690142,-0.00030543262,-0.07551719,0.27076247,9.805972,2,1683969915.2643204
-0.007927292,0.02695279,0.9992657,0.00290161,-0.0010690142,-0.00030543262,-0.075383894,0.2708622,9.80597,2,1683969915.284849
-0.0074394583,0.027440626,0.9988388,0.00290161,-0.0010690142,-0.00030543262,-0.075383894,0.2708622,9.80597,2,1683969915.2951162
-0.0074394583,0.027440626,0.9988388,-0.001985312,0.00015271631,-0.00030543262,-0.075383894,0.2708622,9.80597,2,1683969915.3002467
-0.0074394583,0.027440626,0.9988388,-0.001985312,0.00015271631,-0.00030543262,-0.07537471,0.27074784,9.805974,2,1683969915.3104987
-0.0074394583,0.027440626,0.9988388,0.00045814895,0.0013744468,-0.00030543262,-0.07537471,0.27074784,9.805974,2,1683969915.3207476
-0.008902958,0.02792846,0.99829,0.00045814895,0.0013744468,-0.00030543262,-0.07537471,0.27074784,9.805974,2,1683969915.3361385
-0.0074394583,0.025977125,0.998351,0.00045814895,0.0013744468,-0.00030543262,-0.07537471,0.27074784,9.805974,2,1683969915.3617873
-0.0074394583,0.025977125,0.998351,0.00045814895,0.0025961774,0.0009162979,-0.07537471,0.27074784,9.805974,2,1683969915.3669205
-0.0074394583,0.025977125,0.998351,0.00045814895,0.0025961774,0.0009162979,-0.07547114,0.270656,9.805975,2,1683969915.3771765
-0.0074394583,0.025977125,0.998351,-0.001985312,-0.0010690142,0.0009162979,-0.07547114,0.270656,9.805975,2,1683969915.3823082
-0.0074394583,0.025977125,0.998351,-0.001985312,-0.0010690142,0.0009162979,-0.07547801,0.27069774,9.805975,2,1683969915.397685
-0.0069516255,0.02792846,0.9992657,-0.001985312,-0.0010690142,0.0009162979,-0.07547801,0.27069774,9.805975,2,1683969915.4028122
-0.008415125,0.02841629,0.9987778,-0.001985312,-0.0010690142,0.0009162979,-0.07547801,0.27069774,9.805975,2,1683969915.4335005
-0.008415125,0.02841629,0.9987778,-0.001985312,-0.0010690142,0.0009162979,-0.07544055,0.27069756,9.805975,2,1683969915.4386294
-0.008415125,0.02841629,0.9987778,0.0016798794,-0.005955936,0.0022907446,-0.07544055,0.27069756,9.805975,2,1683969915.4437609
-0.008415125,0.02841629,0.9987778,0.00045814895,0.00015271631,0.0021380284,-0.07544055,0.27069756,9.805975,2,1683969915.484745
-0.00798827,0.028904125,0.9998144,0.00045814895,0.00015271631,0.0021380284,-0.07544055,0.27069756,9.805975,2,1683969915.4898753
-0.00798827,0.028904125,0.9998144,0.00045814895,0.00015271631,0.0021380284,-0.07481489,0.27073643,9.805979,2,1683969915.4950018
-0.007927292,0.029391957,0.9988388,0.00045814895,0.00015271631,0.0021380284,-0.07481489,0.27073643,9.805979,2,1683969915.5001404
-0.007927292,0.029391957,0.9988388,0.00045814895,0.00015271631,0.0021380284,-0.07475469,0.2707499,9.805979,2,1683969915.5052688
-0.007927292,0.029391957,0.9988388,0.0016798794,0.0013744468,-0.00030543262,-0.07475469,0.2707499,9.805979,2,1683969915.515527
-0.007927292,0.029391957,0.9988388,0.0016798794,0.0013744468,-0.00030543262,-0.07466893,0.2708229,9.805978,2,1683969915.5513504
-0.007927292,0.029391957,0.9988388,0.00045814895,0.00015271631,0.0009162979,-0.07466893,0.2708229,9.805978,2,1683969915.5616114
-0.0064637917,0.027440626,0.9968874,0.00045814895,0.00015271631,0.0009162979,-0.07466893,0.2708229,9.805978,2,1683969915.5667448
-0.0064637917,0.027440626,0.9968874,0.00045814895,0.00015271631,0.0009162979,-0.07463275,0.27086452,9.805976,2,1683969915.5770106
-0.0064637917,0.027440626,0.9968874,0.00045814895,0.0025961774,-0.00030543262,-0.07463275,0.27086452,9.805976,2,1683969915.582142
-0.0074394583,0.02646496,0.9993266,0.00045814895,0.0025961774,-0.00030543262,-0.07463275,0.27086452,9.805976,2,1683969915.5923312
-0.0060369377,0.028904125,0.9998144,0.00045814895,0.0025961774,-0.00030543262,-0.07463275,0.27086452,9.805976,2,1683969915.612846
-0.0060369377,0.028904125,0.9998144,0.00045814895,0.0025961774,-0.00030543262,-0.07459381,0.27088857,9.805976,2,1683969915.6179793
-0.0060369377,0.028904125,0.9998144,-0.001985312,0.00015271631,-0.00030543262,-0.07459381,0.27088857,9.805976,2,1683969915.633386
-0.007927292,0.02841629,0.9987778,-0.001985312,0.00015271631,-0.00030543262,-0.07459381,0.27088857,9.805976,2,1683969915.648791
-0.007927292,0.02841629,0.9987778,-0.001985312,0.00015271631,-0.00030543262,-0.0748215,0.2708238,9.805976,2,1683969915.659021
-0.007927292,0.02841629,0.9987778,-0.00076358154,-0.0010690142,0.0009162979,-0.0748215,0.2708238,9.805976,2,1683969915.6744452
-0.008902958,0.027440626,0.9959117,-0.00076358154,-0.0010690142,0.0009162979,-0.0748215,0.2708238,9.805976,2,1683969915.6846619
-0.008902958,0.027440626,0.9959117,-0.00076358154,-0.0010690142,0.0009162979,-0.07483759,0.27080518,9.805976,2,1683969915.6949205
-0.008902958,0.027440626,0.9959117,-0.001985312,0.00015271631,-0.00030543262,-0.07483759,0.27080518,9.805976,2,1683969915.700052
-0.008415125,0.027440626,0.9992657,-0.001985312,0.00015271631,-0.00030543262,-0.07483759,0.27080518,9.805976,2,1683969915.7204835
-0.008415125,0.027440626,0.9992657,-0.00076358154,0.0013744468,-0.00030543262,-0.07483759,0.27080518,9.805976,2,1683969915.7256134
-0.008415125,0.027440626,0.9992657,-0.00076358154,0.0013744468,-0.00030543262,-0.07483969,0.27071264,9.805979,2,1683969915.7358723
-0.008415125,0.027440626,0.9992657,-0.00076358154,0.0013744468,-0.00030543262,-0.07511184,0.27140853,9.805958,2,1683969915.7410035
-0.007927292,0.02695279,0.9993266,-0.00076358154,0.0013744468,-0.00030543262,-0.07511184,0.27140853,9.805958,2,1683969915.7563293
-0.007927292,0.02695279,0.9993266,-0.00076358154,0.0013744468,-0.0015271631,-0.07511184,0.27140853,9.805958,2,1683969915.7717133
-0.007927292,0.02695279,0.9993266,-0.00076358154,0.0013744468,-0.0015271631,-0.07514442,0.27138022,9.805958,2,1683969915.7768533
-0.007927292,0.02841629,0.9973753,-0.00076358154,0.0013744468,-0.0015271631,-0.07514442,0.27138022,9.805958,2,1683969915.7973351
-0.007927292,0.02841629,0.9973753,-0.00076358154,0.0013744468,-0.0015271631,-0.07509065,0.27126122,9.805962,2,1683969915.8024733
-0.007927292,0.02841629,0.9973753,-0.001985312,-0.0036651916,0.0009162979,-0.07509065,0.27126122,9.805962,2,1683969915.812736
-0.008902958,0.02646496,0.998351,-0.001985312,-0.0036651916,0.0009162979,-0.07509065,0.27126122,9.805962,2,1683969915.8281212
-0.008902958,0.02646496,0.998351,0.00045814895,0.00015271631,-0.00030543262,-0.07509065,0.27126122,9.805962,2,1683969915.8332174
-0.008902958,0.02646496,0.998351,0.00045814895,0.00015271631,-0.00030543262,-0.07490573,0.27118215,9.805965,2,1683969915.8486001
-0.008902958,0.02646496,0.998351,0.00045814895,0.00015271631,-0.00030543262,-0.074840024,0.27128437,9.8059635,2,1683969915.8691218
-0.010854292,0.027440626,0.9978021,0.00045814895,0.00015271631,-0.00030543262,-0.074840024,0.27128437,9.8059635,2,1683969915.8742564
-0.010854292,0.027440626,0.9978021,0.00045814895,0.0050396384,-0.00030543262,-0.074840024,0.27128437,9.8059635,2,1683969915.87935
-0.010854292,0.027440626,0.9978021,0.00045814895,0.0050396384,-0.00030543262,-0.074885994,0.2713774,9.80596,2,1683969915.8998697
-0.0074394583,0.029391957,0.9988388,0.00045814895,0.0050396384,-0.00030543262,-0.074885994,0.2713774,9.80596,2,1683969915.904998
-0.0074394583,0.029391957,0.9988388,0.00045814895,0.0013744468,0.0009162979,-0.074885994,0.2713774,9.80596,2,1683969915.9151938
-0.0074394583,0.029391957,0.9988388,0.0016798794,0.0013744468,0.0009162979,-0.074885994,0.2713774,9.80596,2,1683969915.9357042
-0.0074394583,0.029391957,0.9988388,0.0016798794,0.0013744468,0.0009162979,-0.07484516,0.2714758,9.805958,2,1683969915.9511054
-0.005488125,0.025489293,0.9968874,0.0016798794,0.0013744468,0.0009162979,-0.07484516,0.2714758,9.805958,2,1683969915.9562018
-0.0069516255,0.027440626,0.9973753,0.0016798794,0.0013744468,0.0009162979,-0.07484516,0.2714758,9.805958,2,1683969915.9715722
-0.0069516255,0.027440626,0.9973753,0.00045814895,0.00015271631,-0.0015271631,-0.07484516,0.2714758,9.805958,2,1683969915.9869602
-0.0069516255,0.027440626,0.9973753,0.00045814895,0.00015271631,-0.0015271631,-0.0747158,0.27149683,9.805958,2,1683969915.9920914
-0.0069516255,0.027440626,0.9973753,0.00045814895,0.00015271631,-0.0015271631,-0.07387286,0.2717682,9.805957,2,1683969916.022793
-0.0069516255,0.027440626,0.9973753,0.00045814895,0.00015271631,-0.0015271631,-0.07392005,0.2717753,9.805957,2,1683969916.0432758
-0.0069516255,0.027440626,0.998351,0.00045814895,0.00015271631,-0.0015271631,-0.07392005,0.2717753,9.805957,2,1683969916.0483992
-0.0069516255,0.027440626,0.998351,0.0016798794,-0.0047342055,0.0033597588,-0.07392005,0.2717753,9.805957,2,1683969916.058657
-0.0069516255,0.027440626,0.998351,0.0016798794,-0.0047342055,0.0033597588,-0.07368242,0.27185196,9.805957,2,1683969916.0843174
-0.0069516255,0.027440626,0.998351,-0.00076358154,-0.007330383,-0.00030543262,-0.07368242,0.27185196,9.805957,2,1683969916.0894513
-0.0059759584,0.02646496,0.9993266,-0.00076358154,-0.007330383,-0.00030543262,-0.07368242,0.27185196,9.805957,2,1683969916.0997162
-0.0059759584,0.02646496,0.9993266,-0.00076358154,-0.007330383,-0.00030543262,-0.073533334,0.271817,9.805958,2,1683969916.1253395
-0.006524771,0.028904125,1.0012169,-0.00076358154,-0.007330383,-0.00030543262,-0.073533334,0.271817,9.805958,2,1683969916.1355696
-0.006524771,0.028904125,1.0012169,-0.00076358154,-0.0022907446,0.0021380284,-0.073533334,0.271817,9.805958,2,1683969916.1407
-0.006524771,0.028904125,1.0012169,0.00045814895,0.0013744468,0.0009162979,-0.073533334,0.271817,9.805958,2,1683969916.1612067
-0.006524771,0.028904125,1.0012169,0.00045814895,0.0013744468,0.0009162979,-0.07362674,0.27178732,9.805958,2,1683969916.1663427
-0.008963938,0.029391957,0.9992657,0.00045814895,0.0013744468,0.0009162979,-0.07362674,0.27178732,9.805958,2,1683969916.1714637
-0.006524771,0.027440626,1.0007901,0.00045814895,0.0013744468,0.0009162979,-0.07362674,0.27178732,9.805958,2,1683969916.1868532
-0.006524771,0.027440626,1.0007901,0.00045814895,0.0013744468,0.0009162979,-0.07352306,0.27188188,9.805957,2,1683969916.2073338
-0.006524771,0.027440626,1.0007901,0.0016798794,0.0025961774,0.0009162979,-0.07352306,0.27188188,9.805957,2,1683969916.2124639
-0.006524771,0.027440626,1.0007901,0.0016798794,0.0025961774,0.0009162979,-0.073395185,0.27210718,9.805951,2,1683969916.2329884
-0.006524771,0.027440626,1.0007901,-0.00076358154,-0.0047342055,0.0009162979,-0.073395185,0.27210718,9.805951,2,1683969916.2381191
-0.007927292,0.025977125,0.9968874,-0.00076358154,-0.0047342055,0.0009162979,-0.073395185,0.27210718,9.805951,2,1683969916.2482994
-0.0075004376,0.027440626,0.9998144,-0.00076358154,-0.0047342055,0.0009162979,-0.073395185,0.27210718,9.805951,2,1683969916.2585614
-0.0075004376,0.027440626,0.9998144,-0.00076358154,-0.0047342055,0.0009162979,-0.07335701,0.27215403,9.80595,2,1683969916.2688222
-0.0075004376,0.027440626,0.9998144,0.00290161,-0.0047342055,-0.0013744468,-0.07335701,0.27215403,9.80595,2,1683969916.2841718
-0.0075004376,0.027440626,0.9998144,0.00290161,-0.0047342055,-0.0013744468,-0.07313902,0.27224895,9.805949,2,1683969916.2893035
-0.0075004376,0.027440626,0.9998144,0.00290161,-0.0047342055,-0.0013744468,-0.07181239,0.2728947,9.805941,2,1683969916.3149388
-0.008476105,0.02695279,1.0002413,0.00290161,-0.0047342055,-0.0013744468,-0.07181239,0.2728947,9.805941,2,1683969916.3200734
-0.008476105,0.02695279,1.0002413,0.0016798794,-0.0035124752,-0.0015271631,-0.07181239,0.2728947,9.805941,2,1683969916.3405745
-0.0074394583,0.02792846,0.9988388,0.0016798794,-0.0035124752,-0.0015271631,-0.07181239,0.2728947,9.805941,2,1683969916.3662105
-0.0074394583,0.02792846,0.9988388,0.0016798794,-0.0035124752,-0.0015271631,-0.071575746,0.27299106,9.80594,2,1683969916.371304
-0.0074394583,0.02792846,0.9988388,0.00045814895,0.00015271631,0.0021380284,-0.071575746,0.27299106,9.80594,2,1683969916.376433
-0.0074394583,0.02792846,0.9988388,0.00045814895,0.00015271631,0.0021380284,-0.07159393,0.27306148,9.805939,2,1683969916.3815677
-0.0069516255,0.025489293,0.9988388,0.00045814895,0.00015271631,0.0021380284,-0.07159393,0.27306148,9.805939,2,1683969916.386701
-0.0069516255,0.025489293,0.9988388,-0.00076358154,0.00015271631,0.0009162979,-0.07159393,0.27306148,9.805939,2,1683969916.3969634
-0.0069516255,0.025489293,0.9988388,-0.00076358154,0.0025961774,-0.0027488936,-0.071483895,0.2730556,9.805939,2,1683969916.407254
-0.0070126047,0.029391957,1.0003022,0.00045814895,-0.0035124752,0.0009162979,-0.071483895,0.2730556,9.805939,2,1683969916.4124112
-0.00798827,0.029879792,0.9997535,0.0016798794,0.00015271631,0.0021380284,-0.071665555,0.27306026,9.805938,2,1683969916.4175835
-0.0070126047,0.025977125,1.0012779,0.00045814895,-0.0022907446,0.0009162979,-0.071665555,0.27306026,9.805938,2,1683969916.422752
-0.0070126047,0.025977125,1.0012779,0.00045814895,-0.0022907446,0.0009162979,-0.07149985,0.27305704,9.805939,2,1683969916.4278715
-0.0070126047,0.025977125,1.0012779,0.00045814895,-0.0022907446,0.0009162979,-0.07148188,0.27311912,9.805937,2,1683969916.4483073
-0.0074394583,0.02695279,0.998351,0.00045814895,-0.0022907446,0.0009162979,-0.07148188,0.27311912,9.805937,2,1683969916.4585707
-0.0074394583,0.02695279,0.998351,0.00045814895,-0.0022907446,0.0009162979,-0.071454585,0.2731663,9.805936,2,1683969916.4842365
-0.008963938,0.02646496,1.0007291,0.00045814895,-0.0022907446,0.0009162979,-0.071454585,0.2731663,9.805936,2,1683969916.4893644
-0.008963938,0.02646496,1.0007291,-0.0012217305,-0.0016798794,0.0009162979,-0.071454585,0.2731663,9.805936,2,1683969916.4944954
-0.008415125,0.02841629,0.9993266,-0.0012217305,-0.0016798794,0.0009162979,-0.071454585,0.2731663,9.805936,2,1683969916.504744
-0.008415125,0.02841629,0.9993266,-0.0012217305,-0.0016798794,0.0009162979,-0.07135504,0.2730836,9.80594,2,1683969916.5252213
-0.008415125,0.02841629,0.9993266,0.0,-0.00045814895,-0.00030543262,-0.07135504,0.2730836,9.80594,2,1683969916.535475
-0.007927292,0.027440626,0.9973753,0.0,-0.00045814895,-0.00030543262,-0.07135504,0.2730836,9.80594,2,1683969916.5406046
-0.007927292,0.027440626,0.9973753,0.0,-0.00045814895,-0.00030543262,-0.07138421,0.2731245,9.805938,2,1683969916.5662482
-0.007927292,0.027440626,0.9973753,0.0,-0.00045814895,-0.0015271631,-0.07138421,0.2731245,9.805938,2,1683969916.5713394
-0.007927292,0.027440626,0.9973753,0.0,-0.00045814895,-0.0015271631,-0.071439,0.27311772,9.805938,2,1683969916.581596
-0.007927292,0.02792846,0.9978631,0.0,-0.00045814895,-0.0015271631,-0.071439,0.27311772,9.805938,2,1683969916.5867314
-0.007927292,0.02792846,0.9978631,-0.0012217305,-0.00290161,0.0009162979,-0.071439,0.27311772,9.805938,2,1683969916.5918636
-0.0064637917,0.02841629,0.9993266,-0.0012217305,-0.00290161,0.0009162979,-0.071439,0.27311772,9.805938,2,1683969916.6123133
-0.0064637917,0.02841629,0.9993266,-0.0012217305,0.00076358154,0.0009162979,-0.071439,0.27311772,9.805938,2,1683969916.6379242
-0.0064637917,0.02841629,0.9993266,-0.0012217305,0.00076358154,0.0009162979,-0.07136502,0.27307972,9.805939,2,1683969916.6430576
-0.0064637917,0.02695279,0.9973753,-0.0012217305,0.00076358154,0.0009162979,-0.07136502,0.27307972,9.805939,2,1683969916.648187
-0.0064637917,0.02695279,0.9973753,-0.0012217305,-0.00045814895,0.0009162979,-0.07136502,0.27307972,9.805939,2,1683969916.6738312
-0.0064637917,0.02695279,0.9973753,-0.0012217305,-0.00045814895,0.0009162979,-0.071376584,0.27295113,9.8059435,2,1683969916.678962
-0.0064637917,0.02695279,0.9973753,-0.0012217305,-0.00045814895,0.0009162979,-0.07138904,0.27289146,9.805944,2,1683969916.6943579
-0.0064637917,0.02695279,0.9973753,0.0,-0.0016798794,0.0009162979,-0.07138904,0.27289146,9.805944,2,1683969916.704613
-0.0069516255,0.027440626,0.9988388,0.0,-0.0016798794,0.0009162979,-0.07138904,0.27289146,9.805944,2,1683969916.7097428
-0.0069516255,0.027440626,0.9988388,0.0,-0.0016798794,0.0009162979,-0.071361944,0.27285695,9.805945,2,1683969916.730206
-0.0059759584,0.029391957,0.9968874,0.0,-0.0016798794,0.0009162979,-0.071361944,0.27285695,9.805945,2,1683969916.735294
-0.0059759584,0.029391957,0.9968874,0.0,-0.0016798794,0.0009162979,-0.07105181,0.27302796,9.8059435,2,1683969916.7506714
-0.0074394583,0.02841629,0.998351,0.0,-0.0016798794,0.0009162979,-0.07105181,0.27302796,9.8059435,2,1683969916.7712052
-0.0074394583,0.02841629,0.998351,0.0,-0.0016798794,0.0009162979,-0.070953436,0.27300948,9.8059435,2,1683969916.7865891
-0.0074394583,0.02841629,0.998351,0.002443461,-0.00290161,-0.00030543262,-0.070953436,0.27300948,9.8059435,2,1683969916.80196
-0.0074394583,0.02841629,0.998351,0.002443461,-0.00290161,-0.00030543262,-0.07100211,0.27305686,9.805943,2,1683969916.807095
-0.0074394583,0.02841629,0.998351,0.0012217305,-0.00045814895,0.0021380284,-0.07100211,0.27305686,9.805943,2,1683969916.8122294
-0.009390792,0.02792846,0.99829,0.0012217305,-0.00045814895,0.0021380284,-0.07100211,0.27305686,9.805943,2,1683969916.8275795
-0.009390792,0.02792846,0.99829,0.0012217305,0.00076358154,0.0009162979,-0.07100211,0.27305686,9.805943,2,1683969916.8531365
-0.009451771,0.027440626,1.0021926,0.0012217305,0.00076358154,0.0009162979,-0.07100211,0.27305686,9.805943,2,1683969916.8582635
-0.009451771,0.027440626,1.0021926,0.0012217305,0.00076358154,0.0009162979,-0.0710087,0.27312967,9.80594,2,1683969916.8633587
-0.009451771,0.027440626,1.0021926,0.0012217305,0.00076358154,0.0009162979,-0.07101151,0.27312055,9.805941,2,1683969916.8940938
-0.009451771,0.027440626,1.0021926,0.002443461,-0.0016798794,0.0009162979,-0.07101151,0.27312055,9.805941,2,1683969916.899189
-0.008476105,0.02792846,0.9997535,0.002443461,-0.0016798794,0.0009162979,-0.07101151,0.27312055,9.805941,2,1683969916.9093874
-0.007927292,0.02646496,0.9988388,0.002443461,-0.0016798794,0.0009162979,-0.07101151,0.27312055,9.805941,2,1683969916.9196239
-0.007927292,0.02646496,0.9988388,0.002443461,-0.0016798794,0.0009162979,-0.07094581,0.27324662,9.805938,2,1683969916.9298913
-0.007927292,0.02646496,0.9988388,0.0012217305,-0.00290161,-0.00030543262,-0.07094581,0.27324662,9.805938,2,1683969916.940149
-0.007927292,0.02841629,0.998351,0.0012217305,-0.00290161,-0.00030543262,-0.07094581,0.27324662,9.805938,2,1683969916.9503622
-0.007927292,0.02841629,0.998351,0.0012217305,-0.00290161,-0.00030543262,-0.07084399,0.2732837,9.805937,2,1683969916.9709063
-0.007927292,0.02841629,0.998351,-0.0036651916,0.00076358154,0.0021380284,-0.07084399,0.2732837,9.805937,2,1683969916.9760365
-0.0064637917,0.024513626,0.9978631,-0.0036651916,0.00076358154,0.0021380284,-0.07084399,0.2732837,9.805937,2,1683969916.9965546
-0.0064637917,0.024513626,0.9978631,-0.0012217305,0.0032070426,-0.00030543262,-0.07084399,0.2732837,9.805937,2,1683969917.0068169
-0.0064637917,0.024513626,0.9978631,-0.0012217305,0.0032070426,-0.00030543262,-0.07115778,0.273142,9.805939,2,1683969917.011947
-0.0064637917,0.024513626,0.9978631,0.0,0.00076358154,-0.0015271631,-0.07115778,0.273142,9.805939,2,1683969917.0273063
-0.0064637917,0.024513626,0.9978631,0.0,0.00076358154,-0.0015271631,-0.0705875,0.2736739,9.805928,2,1683969917.0323982
-0.006524771,0.02792846,1.0012169,0.0,0.00076358154,-0.0015271631,-0.0705875,0.2736739,9.805928,2,1683969917.0477877
-0.006524771,0.02792846,1.0012169,0.0,0.00076358154,-0.0015271631,-0.070565104,0.2736931,9.805928,2,1683969917.0529206
-0.006524771,0.02792846,1.0012169,0.0012217305,-0.00290161,-0.0015271631,-0.070565104,0.2736931,9.805928,2,1683969917.0734475
-0.0070126047,0.02792846,0.9997535,0.0012217305,-0.00290161,-0.0015271631,-0.070565104,0.2736931,9.805928,2,1683969917.0785787
-0.009390792,0.027440626,0.9978021,0.0012217305,-0.00290161,-0.0015271631,-0.070565104,0.2736931,9.805928,2,1683969917.093996
-0.009390792,0.027440626,0.9978021,0.0,0.001985312,0.0009162979,-0.070565104,0.2736931,9.805928,2,1683969917.1093748
-0.009390792,0.027440626,0.9978021,0.0,0.001985312,0.0009162979,-0.07048645,0.2738207,9.805925,2,1683969917.1144962
-0.009390792,0.027440626,0.9978021,0.0,-0.0016798794,-0.00030543262,-0.07048645,0.2738207,9.805925,2,1683969917.1298878
-0.007927292,0.02646496,0.998351,0.0,-0.0016798794,-0.00030543262,-0.07048645,0.2738207,9.805925,2,1683969917.1401565
-0.007927292,0.02646496,0.998351,0.0,-0.0016798794,-0.00030543262,-0.07071698,0.2737362,9.805925,2,1683969917.150402
-0.009390792,0.02695279,0.9992657,0.0,-0.0016798794,-0.00030543262,-0.07071698,0.2737362,9.805925,2,1683969917.1708977
-0.009390792,0.02695279,0.9992657,0.0,-0.0016798794,-0.00030543262,-0.070675306,0.27376783,9.805925,2,1683969917.1811497
-0.009390792,0.02695279,0.9992657,0.0,-0.0016798794,-0.0015271631,-0.070675306,0.27376783,9.805925,2,1683969917.1914017
-0.007927292,0.02792846,0.9992657,0.0,-0.0016798794,-0.0015271631,-0.070675306,0.27376783,9.805925,2,1683969917.2016218
-0.007927292,0.02792846,0.9992657,0.0,-0.0016798794,-0.0015271631,-0.070819676,0.2736812,9.805926,2,1683969917.2067537
-0.007927292,0.02792846,0.9992657,-0.002443461,-0.00045814895,0.0009162979,-0.070819676,0.2736812,9.805926,2,1683969917.2118838
-0.007927292,0.02792846,0.9992657,0.0,0.001985312,0.0009162979,-0.070819676,0.2736812,9.805926,2,1683969917.2373922
-0.007927292,0.02792846,0.9992657,0.0,0.001985312,0.0009162979,-0.07085864,0.2737445,9.805924,2,1683969917.2629504
-0.007927292,0.02792846,0.9992657,0.0,0.001985312,0.0009162979,-0.070838764,0.2738081,9.8059225,2,1683969917.2833357
-0.007927292,0.02792846,0.9992657,-0.0012217305,-0.0067195175,-0.00030543262,-0.070838764,0.2738081,9.8059225,2,1683969917.2884722
-0.009878625,0.027440626,0.9992657,-0.0012217305,-0.0067195175,-0.00030543262,-0.070838764,0.2738081,9.8059225,2,1683969917.3038135
-0.009878625,0.027440626,0.9992657,0.0012217305,0.0032070426,-0.00030543262,-0.070838764,0.2738081,9.8059225,2,1683969917.3140707
-0.009878625,0.027440626,0.9992657,0.0012217305,0.0032070426,-0.00030543262,-0.070837036,0.27417383,9.805912,2,1683969917.3243122
-0.009878625,0.027440626,0.9992657,-0.0012217305,0.00076358154,0.0009162979,-0.070837036,0.27417383,9.805912,2,1683969917.329442
-0.00798827,0.028904125,1.0002413,-0.0012217305,0.00076358154,0.0009162979,-0.070837036,0.27417383,9.805912,2,1683969917.3345702
-0.00798827,0.028904125,1.0002413,-0.0012217305,0.00076358154,0.0009162979,-0.0708823,0.27417442,9.805912,2,1683969917.33969
-0.0064637917,0.02792846,0.998351,-0.0012217305,0.00076358154,0.0009162979,-0.0708823,0.27417442,9.805912,2,1683969917.3704472
-0.0064637917,0.02792846,0.998351,0.0012217305,0.001985312,-0.00030543262,-0.0708823,0.27417442,9.805912,2,1683969917.380691
-0.0064637917,0.02792846,0.998351,0.0012217305,0.001985312,-0.00030543262,-0.070839375,0.27413896,9.805913,2,1683969917.3858235
-0.0069516255,0.02841629,0.9988388,0.0012217305,0.001985312,-0.00030543262,-0.070839375,0.27413896,9.805913,2,1683969917.4165447
-0.0069516255,0.02841629,0.9988388,-0.0012217305,0.00076358154,-0.0027488936,-0.070839375,0.27413896,9.805913,2,1683969917.4216764
-0.0069516255,0.02841629,0.9988388,-0.0012217305,0.00076358154,-0.0027488936,-0.07087723,0.27417383,9.805912,2,1683969917.4268076
-0.0060369377,0.028904125,1.0021926,-0.0012217305,0.00076358154,-0.0027488936,-0.07087723,0.27417383,9.805912,2,1683969917.442153
-0.0060369377,0.028904125,1.0021926,0.0,0.0032070426,-0.00030543262,-0.07087723,0.27417383,9.805912,2,1683969917.4574602
-0.0060369377,0.028904125,1.0021926,0.0,0.0032070426,-0.00030543262,-0.07104144,0.27417943,9.805911,2,1683969917.4625795
-0.009451771,0.029391957,0.9992657,0.0,0.0032070426,-0.00030543262,-0.07104144,0.27417943,9.805911,2,1683969917.4778333
-0.009451771,0.029391957,0.9992657,0.0,0.0032070426,-0.00030543262,-0.071204185,0.27417478,9.80591,2,1683969917.482985
-0.009451771,0.029391957,0.9992657,-0.002443461,0.00076358154,0.0009162979,-0.071204185,0.27417478,9.80591,2,1683969917.4829953
-0.0075004376,0.02841629,0.9998144,0.002443461,0.00076358154,0.0009162979,-0.07122602,0.27419445,9.805909,2,1683969917.4881442
-0.008476105,0.02792846,0.9997535,0.0012217305,-0.00045814895,0.0021380284,-0.07156384,0.27419484,9.805906,2,1683969917.49331
-0.009390792,0.02792846,0.99829,0.0012217305,-0.00045814895,0.0021380284,-0.07156384,0.27419484,9.805906,2,1683969917.503547
-0.009390792,0.02792846,0.99829,0.0012217305,-0.00045814895,0.0021380284,-0.071656406,0.2742533,9.805904,2,1683969917.508677
-0.009390792,0.02792846,0.99829,0.0,0.00076358154,0.0021380284,-0.071656406,0.2742533,9.805904,2,1683969917.5138054
-0.009390792,0.02792846,0.99829,0.0,-0.00045814895,-0.00030543262,-0.071656406,0.2742533,9.805904,2,1683969917.5343125
-0.00798827,0.02841629,0.9997535,0.0,-0.00045814895,-0.00030543262,-0.071656406,0.2742533,9.805904,2,1683969917.5394337
-0.00798827,0.02841629,0.9997535,0.0,-0.00045814895,-0.00030543262,-0.07175703,0.2741979,9.805905,2,1683969917.5496867
-0.00798827,0.02841629,0.9997535,0.0,-0.0016798794,0.0021380284,-0.07175703,0.2741979,9.805905,2,1683969917.5650766
-0.00798827,0.027440626,1.0003022,0.0,-0.0016798794,0.0021380284,-0.07175703,0.2741979,9.805905,2,1683969917.5804286
-0.00798827,0.027440626,1.0003022,0.0,-0.0016798794,0.0021380284,-0.071770154,0.2741731,9.805905,2,1683969917.5906868
-0.00798827,0.027440626,1.0003022,0.0,-0.0016798794,0.0021380284,-0.0717002,0.2741686,9.805906,2,1683969917.6163175
-0.00798827,0.027440626,1.0003022,-0.0012217305,0.0032070426,-0.00030543262,-0.0717002,0.2741686,9.805906,2,1683969917.6214488
-0.0064637917,0.025977125,0.998351,-0.0012217305,0.0032070426,-0.00030543262,-0.0717002,0.2741686,9.805906,2,1683969917.6265764
-0.0064637917,0.025977125,0.998351,-0.0012217305,0.0032070426,-0.00030543262,-0.0717868,0.2741648,9.805905,2,1683969917.6522012
-0.0064637917,0.025977125,0.998351,0.0,0.00076358154,0.0009162979,-0.0717868,0.2741648,9.805905,2,1683969917.6573339
-0.0069516255,0.02646496,0.9978631,0.0,0.00076358154,0.0009162979,-0.0717868,0.2741648,9.805905,2,1683969917.662427
-0.008902958,0.027440626,0.998351,0.0,0.00076358154,0.0009162979,-0.0717868,0.2741648,9.805905,2,1683969917.6726854
-0.008902958,0.027440626,0.998351,-0.0012217305,0.001985312,-0.00030543262,-0.0717868,0.2741648,9.805905,2,1683969917.6777792
-0.008902958,0.027440626,0.998351,-0.0012217305,0.001985312,-0.00030543262,-0.07179112,0.2741215,9.805907,2,1683969917.6829123
-0.008902958,0.027440626,0.998351,-0.0012217305,0.001985312,-0.00030543262,-0.07185163,0.27407435,9.805907,2,1683969917.7188034
-0.0069516255,0.030855458,0.9988388,-0.0012217305,0.001985312,-0.00030543262,-0.07185163,0.27407435,9.805907,2,1683969917.7239313
-0.0074394583,0.02695279,0.9978631,-0.0012217305,0.001985312,-0.00030543262,-0.07185163,0.27407435,9.805907,2,1683969917.7392492
-0.0074394583,0.02695279,0.9978631,-0.0012217305,0.001985312,-0.00030543262,-0.07231903,0.27376315,9.805913,2,1683969917.7495117
-0.0074394583,0.02695279,0.9978631,0.002443461,0.0056505036,0.0009162979,-0.07231903,0.27376315,9.805913,2,1683969917.7546372
-0.0074394583,0.02695279,0.9968874,0.002443461,0.0056505036,0.0009162979,-0.07231903,0.27376315,9.805913,2,1683969917.7802718
-0.0074394583,0.02695279,0.9968874,0.002443461,0.0056505036,0.0009162979,-0.07240041,0.27382332,9.805911,2,1683969917.7853463
-0.0074394583,0.02695279,0.9968874,0.0012217305,0.00076358154,0.0009162979,-0.07240041,0.27382332,9.805911,2,1683969917.7904909
-0.0075004376,0.02841629,1.0003022,0.0012217305,0.00076358154,0.0009162979,-0.07240041,0.27382332,9.805911,2,1683969917.8110044
-0.0075004376,0.02841629,1.0003022,0.0012217305,0.00076358154,0.0009162979,-0.07240997,0.27381176,9.805911,2,1683969917.8263924
-0.0075004376,0.02841629,1.0003022,0.0,-0.00045814895,-0.00030543262,-0.07240997,0.27381176,9.805911,2,1683969917.831528
-0.0075004376,0.02841629,1.0003022,0.0,-0.00045814895,-0.00030543262,-0.07246967,0.2738678,9.805909,2,1683969917.8366594
-0.0075004376,0.02841629,1.0003022,-0.0012217305,-0.00045814895,-0.00030543262,-0.07246967,0.2738678,9.805909,2,1683969917.8571646
-0.008415125,0.028904125,0.998351,-0.0012217305,-0.00045814895,-0.00030543262,-0.07246967,0.2738678,9.805909,2,1683969917.8674152
-0.008415125,0.028904125,0.998351,0.0012217305,-0.0065668016,-0.00015271631,-0.07246967,0.2738678,9.805909,2,1683969917.877677
-0.008415125,0.028904125,0.998351,0.0012217305,-0.0065668016,-0.00015271631,-0.07239453,0.2738369,9.805911,2,1683969917.8930585
-0.0059759584,0.02695279,0.9973753,0.0012217305,-0.0065668016,-0.00015271631,-0.07239453,0.2738369,9.805911,2,1683969917.903269
-0.0059759584,0.02695279,0.9973753,0.0012217305,-0.00045814895,0.0009162979,-0.07239453,0.2738369,9.805911,2,1683969917.9186263
-0.00798827,0.02695279,0.9998144,0.0012217305,-0.00045814895,0.0009162979,-0.07239453,0.2738369,9.805911,2,1683969917.9340148
-0.00798827,0.02695279,0.9998144,0.0012217305,-0.00045814895,0.0009162979,-0.07234683,0.2739422,9.805908,2,1683969917.9391465
-0.00798827,0.02695279,0.9998144,0.0,0.001985312,0.0009162979,-0.07234683,0.2739422,9.805908,2,1683969917.9596503
-0.0074394583,0.02792846,0.9973753,0.0,0.001985312,0.0009162979,-0.07234683,0.2739422,9.805908,2,1683969917.969909
-0.0074394583,0.02792846,0.9973753,0.0,0.001985312,0.0009162979,-0.07221492,0.2739896,9.805907,2,1683969917.975036
-0.0069516255,0.028904125,0.998351,0.0,0.001985312,0.0009162979,-0.07221492,0.2739896,9.805907,2,1683969917.990418
-0.0069516255,0.028904125,0.998351,0.0012217305,-0.00290161,-0.0015271631,-0.07221492,0.2739896,9.805907,2,1683969917.9955428
-0.007927292,0.025489293,0.9988388,0.0012217305,-0.00290161,-0.0015271631,-0.07221492,0.2739896,9.805907,2,1683969918.005773
-0.007927292,0.025489293,0.9988388,0.0012217305,0.001985312,-0.00030543262,-0.07221492,0.2739896,9.805907,2,1683969918.010903
-0.007927292,0.025489293,0.9988388,0.0012217305,0.001985312,-0.00030543262,-0.0721875,0.27365568,9.805918,2,1683969918.0211508
-0.008963938,0.02792846,1.0002413,0.0012217305,0.001985312,-0.00030543262,-0.0721875,0.27365568,9.805918,2,1683969918.0416656
-0.008963938,0.02792846,1.0002413,0.0012217305,0.001985312,-0.00030543262,-0.07213574,0.2737281,9.805916,2,1683969918.0621886
-0.008963938,0.02792846,1.0002413,0.002443461,0.00076358154,0.0021380284,-0.07213574,0.2737281,9.805916,2,1683969918.0672874
-0.00798827,0.028904125,1.0002413,0.002443461,0.00076358154,0.0021380284,-0.07213574,0.2737281,9.805916,2,1683969918.0878112
-0.00798827,0.028904125,1.0002413,0.002443461,0.00076358154,0.0021380284,-0.072273634,0.27390474,9.805909,2,1683969918.0980656
-0.00798827,0.028904125,1.0002413,-0.002443461,0.0032070426,0.0009162979,-0.072273634,0.27390474,9.805909,2,1683969918.1236758
-0.00798827,0.028904125,1.0002413,-0.002443461,0.0032070426,0.0009162979,-0.07225218,0.27392632,9.805909,2,1683969918.128812
-0.00798827,0.02841629,0.9997535,-0.002443461,0.0032070426,0.0009162979,-0.07225218,0.27392632,9.805909,2,1683969918.139087
-0.007927292,0.02841629,0.9978631,-0.002443461,0.0032070426,0.0009162979,-0.07225218,0.27392632,9.805909,2,1683969918.1493466
-0.007927292,0.02841629,0.9978631,-0.002443461,0.0032070426,0.0009162979,-0.07236226,0.2738367,9.80591,2,1683969918.1647353
-0.007927292,0.02841629,0.9978631,0.0012217305,0.00076358154,0.0009162979,-0.07236226,0.2738367,9.80591,2,1683969918.1749892
-0.00798827,0.02792846,1.0002413,0.0012217305,0.00076358154,0.0009162979,-0.07236226,0.2738367,9.80591,2,1683969918.1852443
-0.00798827,0.02792846,1.0002413,0.0012217305,0.0032070426,-0.00030543262,-0.07236226,0.2738367,9.80591,2,1683969918.1954956
-0.00798827,0.02792846,1.0002413,0.0012217305,0.0032070426,-0.00030543262,-0.07233707,0.27384335,9.805911,2,1683969918.2006252
-0.0059759584,0.027440626,0.9978631,0.0012217305,0.0032070426,-0.00030543262,-0.07233707,0.27384335,9.805911,2,1683969918.2160122
-0.0059759584,0.027440626,0.9978631,0.0012217305,0.0032070426,-0.00030543262,-0.07249715,0.27390352,9.805908,2,1683969918.2313633
-0.0059759584,0.027440626,0.9978631,-0.002443461,0.00076358154,-0.00030543262,-0.07249715,0.27390352,9.805908,2,1683969918.2364979
-0.0059759584,0.027440626,0.9978631,-0.002443461,0.00076358154,-0.00030543262,-0.07264906,0.27385908,9.805908,2,1683969918.2621386
-0.0059759584,0.027440626,0.9978631,-0.0012217305,-0.0016798794,0.0009162979,-0.07264906,0.27385908,9.805908,2,1683969918.2671835
-0.008902958,0.02841629,0.9973753,-0.0012217305,-0.0016798794,0.0009162979,-0.07264906,0.27385908,9.805908,2,1683969918.272317
-0.008415125,0.02646496,0.9988388,-0.0012217305,-0.0016798794,0.0009162979,-0.07264906,0.27385908,9.805908,2,1683969918.2875931
-0.008415125,0.02646496,0.9988388,-0.0012217305,-0.0016798794,0.0009162979,-0.07406402,0.27383906,9.805898,2,1683969918.2926908
-0.008902958,0.02646496,0.9978631,-0.0012217305,-0.0016798794,0.0009162979,-0.07406402,0.27383906,9.805898,2,1683969918.3183208
-0.008902958,0.02646496,0.9978631,-0.0012217305,0.0032070426,0.0009162979,-0.07406402,0.27383906,9.805898,2,1683969918.3439643
-0.008902958,0.02646496,0.9978631,-0.0012217305,0.0032070426,0.0009162979,-0.07401331,0.27376544,9.805901,2,1683969918.349095
-0.008902958,0.02646496,0.9978631,-0.002443461,-0.0030543262,-0.00030543262,-0.07401331,0.27376544,9.805901,2,1683969918.3593185
-0.008902958,0.02646496,0.9978631,-0.002443461,-0.0030543262,-0.00030543262,-0.0741186,0.27369246,9.805902,2,1683969918.3695846
-0.008963938,0.02792846,1.0002413,-0.002443461,-0.0030543262,-0.00030543262,-0.0741186,0.27369246,9.805902,2,1683969918.379846
-0.008963938,0.027440626,1.0002413,-0.002443461,-0.0030543262,-0.00030543262,-0.0741186,0.27369246,9.805902,2,1683969918.4053953
-0.008963938,0.027440626,1.0002413,0.0,0.0032070426,0.0021380284,-0.0741186,0.27369246,9.805902,2,1683969918.415659
-0.008963938,0.027440626,1.0002413,0.0,0.0032070426,0.0021380284,-0.07419788,0.27361667,9.805903,2,1683969918.4207919
-0.008476105,0.027440626,0.9998144,0.0,0.0032070426,0.0021380284,-0.07419788,0.27361667,9.805903,2,1683969918.4361467
-0.008476105,0.027440626,0.9998144,0.0,0.0032070426,0.0021380284,-0.07417904,0.2736206,9.805903,2,1683969918.4412777
-0.008476105,0.027440626,0.9998144,0.0012217305,-0.00045814895,-0.0015271631,-0.07417904,0.2736206,9.805903,2,1683969918.4566305
-0.008476105,0.027440626,0.9998144,0.002443461,0.001985312,-0.0015271631,-0.07417904,0.2736206,9.805903,2,1683969918.477148
-0.008476105,0.027440626,0.9998144,0.002443461,0.001985312,-0.0015271631,-0.074062616,0.2735896,9.805905,2,1683969918.48228
-0.0059759584,0.025489293,0.998351,0.002443461,0.001985312,-0.0015271631,-0.074062616,0.2735896,9.805905,2,1683969918.4925363
-0.0064637917,0.02646496,0.9968874,0.002443461,0.001985312,-0.0015271631,-0.074062616,0.2735896,9.805905,2,1683969918.518183
-0.0064637917,0.02646496,0.9968874,0.002443461,0.001985312,-0.0015271631,-0.07405906,0.27364376,9.805903,2,1683969918.5232747
-0.0064637917,0.02646496,0.9968874,0.0,-0.00045814895,0.0009162979,-0.07405906,0.27364376,9.805903,2,1683969918.5284126
-0.006524771,0.02792846,0.9998144,0.0,-0.00045814895,0.0009162979,-0.07405906,0.27364376,9.805903,2,1683969918.5335448
-0.006524771,0.02792846,0.9998144,0.0,-0.00045814895,0.0009162979,-0.07406053,0.27354923,9.805906,2,1683969918.548977
-0.006524771,0.02792846,0.9998144,0.0,-0.00045814895,0.0009162979,-0.07429152,0.27371746,9.8059,2,1683969918.5643258
-0.006524771,0.02792846,0.9998144,0.0,-0.00045814895,-0.0015271631,-0.07429152,0.27371746,9.8059,2,1683969918.5694563
-0.006524771,0.02792846,0.9998144,-0.0036651916,-0.0018325958,-0.0015271631,-0.07429152,0.27371746,9.8059,2,1683969918.5950925
-0.0074394583,0.028904125,0.9988388,-0.0036651916,-0.0018325958,-0.0015271631,-0.07429152,0.27371746,9.8059,2,1683969918.600231
-0.0074394583,0.028904125,0.9988388,-0.0036651916,-0.0018325958,-0.0015271631,-0.07428276,0.27352327,9.805905,2,1683969918.6053624
-0.009390792,0.025489293,0.9988388,-0.0036651916,-0.0018325958,-0.0015271631,-0.07428276,0.27352327,9.805905,2,1683969918.6258888
-0.009390792,0.025489293,0.9988388,-0.0036651916,-0.0018325958,-0.0015271631,-0.07431532,0.2734133,9.805908,2,1683969918.6310246
-0.009390792,0.025489293,0.9988388,0.0,-0.00045814895,-0.00030543262,-0.07431532,0.2734133,9.805908,2,1683969918.6464133
-0.007927292,0.027440626,0.998351,0.0,-0.00045814895,-0.00030543262,-0.07431532,0.2734133,9.805908,2,1683969918.6669304
-0.007927292,0.027440626,0.998351,-0.0012217305,0.001985312,-0.00030543262,-0.07431532,0.2734133,9.805908,2,1683969918.672064
-0.007927292,0.027440626,0.998351,-0.0012217305,0.001985312,-0.00030543262,-0.07426969,0.27336562,9.80591,2,1683969918.6771936
-0.007927292,0.02792846,0.9978631,-0.0012217305,0.001985312,-0.00030543262,-0.07426969,0.27336562,9.80591,2,1683969918.6874437
-0.007927292,0.02792846,0.9978631,0.0,-0.0016798794,-0.00030543262,-0.07426969,0.27336562,9.80591,2,1683969918.702823
-0.007927292,0.02792846,0.9978631,0.0,-0.0016798794,-0.00030543262,-0.074467614,0.273326,9.805909,2,1683969918.7079573
-0.007927292,0.02792846,0.9978631,0.0,-0.0016798794,-0.00030543262,-0.07439596,0.27321023,9.805913,2,1683969918.7233067
-0.007927292,0.02792846,0.9978631,0.0012217305,0.00076358154,0.0021380284,-0.07439596,0.27321023,9.805913,2,1683969918.728438
-0.006524771,0.02695279,0.9997535,0.0012217305,0.00076358154,0.0021380284,-0.07439596,0.27321023,9.805913,2,1683969918.7540488
-0.006524771,0.02695279,0.9997535,0.0012217305,0.00076358154,0.0021380284,-0.074398845,0.27321008,9.805913,2,1683969918.7693465
-0.007927292,0.02695279,0.9992657,0.0012217305,0.00076358154,0.0021380284,-0.074398845,0.27321008,9.805913,2,1683969918.7744772
-0.007927292,0.02695279,0.9992657,0.0012217305,-0.0053450707,0.0010690142,-0.074398845,0.27321008,9.805913,2,1683969918.7796102
-0.007927292,0.02695279,0.9992657,0.0012217305,-0.0053450707,0.0010690142,-0.07427387,0.27317062,9.805915,2,1683969918.8001297
-0.007927292,0.02695279,0.9992657,0.0012217305,0.00076358154,-0.00030543262,-0.07427387,0.27317062,9.805915,2,1683969918.8052578
-0.0074394583,0.02792846,0.9973753,0.0012217305,0.00076358154,-0.00030543262,-0.07427387,0.27317062,9.805915,2,1683969918.8257692
-0.0074394583,0.02792846,0.9973753,0.0012217305,0.00076358154,-0.00030543262,-0.07654048,0.272255,9.805923,2,1683969918.8514183
-0.0074394583,0.02792846,0.9973753,0.0012217305,0.001985312,-0.00030543262,-0.07654048,0.272255,9.805923,2,1683969918.8565469
-0.0070126047,0.028904125,0.9997535,0.0012217305,0.001985312,-0.00030543262,-0.07654048,0.272255,9.805923,2,1683969918.8668144
-0.0070126047,0.028904125,0.9997535,0.002443461,0.0032070426,-0.00030543262,-0.07654048,0.272255,9.805923,2,1683969918.892406
-0.0070126047,0.028904125,0.9997535,0.002443461,0.0032070426,-0.00030543262,-0.07660171,0.27235097,9.805921,2,1683969918.8975294
-0.0064637917,0.02695279,0.9993266,0.002443461,0.0032070426,-0.00030543262,-0.07660171,0.27235097,9.805921,2,1683969918.9026742
-0.0064637917,0.02695279,0.9993266,0.0,-0.00045814895,-0.00030543262,-0.07660171,0.27235097,9.805921,2,1683969918.9232016
-0.0064637917,0.02695279,0.9993266,0.0,-0.00045814895,-0.00030543262,-0.07670236,0.27236727,9.805919,2,1683969918.9334602
-0.0064637917,0.025001459,0.9988388,0.0,-0.00045814895,-0.00030543262,-0.07670236,0.27236727,9.805919,2,1683969918.9385922
-0.0064637917,0.025001459,0.9988388,0.0,0.00076358154,-0.00030543262,-0.07670236,0.27236727,9.805919,2,1683969918.9539793
-0.0064637917,0.025001459,0.9988388,0.0,0.00076358154,-0.00030543262,-0.07667918,0.2723386,9.80592,2,1683969918.9590662
-0.009390792,0.02841629,0.9978631,0.0,0.00076358154,-0.00030543262,-0.07667918,0.2723386,9.80592,2,1683969918.9949584
-0.009390792,0.02841629,0.9978631,0.0,0.00076358154,-0.00030543262,-0.07671766,0.2723103,9.805921,2,1683969919.0000927
-0.009390792,0.02841629,0.9978631,0.0012217305,-0.00290161,0.0021380284,-0.07671766,0.2723103,9.805921,2,1683969919.0103538
-0.009390792,0.02841629,0.9978631,0.0012217305,-0.00290161,0.0021380284,-0.076605454,0.27237865,9.805919,2,1683969919.030824
-0.0064637917,0.028904125,0.9988388,0.0012217305,-0.00290161,0.0021380284,-0.076605454,0.27237865,9.805919,2,1683969919.0359573
-0.0064637917,0.028904125,0.9988388,0.0012217305,-0.00290161,0.0009162979,-0.076605454,0.27237865,9.805919,2,1683969919.0462132
-0.0074394583,0.02841629,0.9978631,0.0012217305,-0.00290161,0.0009162979,-0.076605454,0.27237865,9.805919,2,1683969919.0564325
-0.0074394583,0.02841629,0.9978631,0.0,0.00076358154,0.0009162979,-0.076605454,0.27237865,9.805919,2,1683969919.06669
-0.0074394583,0.02841629,0.9978631,0.0,0.00076358154,0.0009162979,-0.07659111,0.27236384,9.80592,2,1683969919.0820677
-0.007927292,0.02841629,0.9978631,0.0,0.00076358154,0.0009162979,-0.07659111,0.27236384,9.80592,2,1683969919.0974288
-0.007927292,0.02841629,0.9978631,0.0,0.00076358154,0.0009162979,-0.07646101,0.2724039,9.80592,2,1683969919.1076834
-0.007927292,0.02841629,0.9978631,0.0,0.00076358154,0.0009162979,-0.07651992,0.27272946,9.80591,2,1683969919.1282027
-0.007927292,0.025489293,0.9988388,0.0,0.00076358154,0.0009162979,-0.07651992,0.27272946,9.80591,2,1683969919.14358
-0.007927292,0.025489293,0.9988388,0.0,0.00076358154,-0.00030543262,-0.07651992,0.27272946,9.80591,2,1683969919.1487138
-0.008415125,0.02646496,0.9988388,0.0,0.00076358154,-0.00030543262,-0.07651992,0.27272946,9.80591,2,1683969919.1743584
-0.008415125,0.02646496,0.9988388,0.0012217305,-0.00045814895,-0.0015271631,-0.07651992,0.27272946,9.80591,2,1683969919.1794865
-0.008415125,0.02646496,0.9988388,0.0012217305,-0.00045814895,-0.0015271631,-0.07645179,0.27259627,9.805914,2,1683969919.1846197
-0.0059759584,0.025977125,0.9988388,0.0012217305,-0.00045814895,-0.0015271631,-0.07645179,0.27259627,9.805914,2,1683969919.2050915
-0.0059759584,0.025977125,0.9988388,0.0012217305,0.001985312,-0.00030543262,-0.07645179,0.27259627,9.805914,2,1683969919.2102222
-0.0059759584,0.025977125,0.9988388,0.0012217305,0.001985312,-0.00030543262,-0.07639818,0.2725404,9.805917,2,1683969919.2153149
-0.0059759584,0.025977125,0.9988388,0.0012217305,0.001985312,-0.00030543262,-0.07635998,0.27252278,9.805917,2,1683969919.2358217
-0.0059759584,0.025977125,0.9988388,-0.0012217305,-0.00045814895,-0.0015271631,-0.07635998,0.27252278,9.805917,2,1683969919.2460845
-0.0074394583,0.02646496,0.9973753,-0.0012217305,-0.00045814895,-0.0015271631,-0.07635998,0.27252278,9.805917,2,1683969919.2563307
-0.0074394583,0.02646496,0.9973753,-0.0012217305,-0.00045814895,-0.0015271631,-0.07637638,0.2723477,9.805922,2,1683969919.276767
-0.0074394583,0.02646496,0.9973753,0.0,-0.00045814895,-0.00030543262,-0.07637638,0.2723477,9.805922,2,1683969919.281904
-0.008415125,0.025977125,0.998351,0.0,-0.00045814895,-0.00030543262,-0.07637638,0.2723477,9.805922,2,1683969919.2870402
-0.008415125,0.025977125,0.998351,0.0,-0.00045814895,-0.00030543262,-0.076461285,0.2722915,9.8059225,2,1683969919.3178246
-0.008415125,0.025977125,0.998351,0.0,0.00076358154,0.0021380284,-0.076461285,0.2722915,9.8059225,2,1683969919.3229563
-0.008415125,0.02695279,0.9963996,0.0,0.00076358154,0.0021380284,-0.076461285,0.2722915,9.8059225,2,1683969919.3280425
-0.008902958,0.028904125,0.99829,0.0,0.00076358154,0.0021380284,-0.076461285,0.2722915,9.8059225,2,1683969919.3485236
-0.008902958,0.028904125,0.99829,0.0,0.00076358154,-0.0015271631,-0.076461285,0.2722915,9.8059225,2,1683969919.3536549
-0.008902958,0.028904125,0.99829,0.0,0.00076358154,-0.0015271631,-0.076925926,0.27233544,9.805918,2,1683969919.3587847
-0.008902958,0.028904125,0.99829,0.0,0.00076358154,-0.0015271631,-0.07706625,0.27228132,9.805918,2,1683969919.3792546
-0.008902958,0.028904125,0.99829,0.0,-0.00290161,-0.00030543262,-0.07706625,0.27228132,9.805918,2,1683969919.3843434
-0.008902958,0.028904125,0.99829,0.0,0.001985312,0.0021380284,-0.07706625,0.27228132,9.805918,2,1683969919.3996892
-0.008902958,0.028904125,0.99829,0.0,0.001985312,0.0021380284,-0.07761805,0.27142575,9.805937,2,1683969919.4048414
-0.007927292,0.027440626,0.998351,0.0,0.001985312,0.0021380284,-0.07761805,0.27142575,9.805937,2,1683969919.4151192
-0.0069516255,0.02792846,0.9978631,0.0,0.001985312,0.0021380284,-0.07761805,0.27142575,9.805937,2,1683969919.4407609
-0.0069516255,0.02792846,0.9978631,0.0,-0.00045814895,0.0009162979,-0.07761805,0.27142575,9.805937,2,1683969919.4458916
-0.0069516255,0.02792846,0.9978631,0.0,-0.00045814895,0.0009162979,-0.077639796,0.27141094,9.805938,2,1683969919.451027
-0.0075004376,0.027440626,0.9997535,0.0,-0.00045814895,0.0009162979,-0.077639796,0.27141094,9.805938,2,1683969919.46641
-0.0075004376,0.027440626,0.9997535,0.0,-0.00045814895,0.0009162979,-0.07750578,0.27134323,9.805942,2,1683969919.4766648
-0.0075004376,0.027440626,0.9997535,0.0,-0.0016798794,0.0009162979,-0.07750578,0.27134323,9.805942,2,1683969919.4920557
-0.0075004376,0.027440626,0.9997535,0.0012217305,0.00076358154,-0.00030543262,-0.07750578,0.27134323,9.805942,2,1683969919.517655
-0.0075004376,0.027440626,0.9997535,0.0012217305,0.00076358154,-0.00030543262,-0.07743986,0.27132478,9.805942,2,1683969919.5279117
-0.0069516255,0.02695279,0.9978631,0.0012217305,0.00076358154,-0.00030543262,-0.07743986,0.27132478,9.805942,2,1683969919.5330462
-0.008415125,0.027440626,0.998351,0.0012217305,0.00076358154,-0.00030543262,-0.07743986,0.27132478,9.805942,2,1683969919.5483992
-0.008415125,0.027440626,0.998351,0.0012217305,0.00076358154,-0.00030543262,-0.077438034,0.27136925,9.805941,2,1683969919.5535257
-0.008415125,0.027440626,0.998351,-0.002443461,-0.0067195175,-0.00030543262,-0.077438034,0.27136925,9.805941,2,1683969919.5689182
-0.008415125,0.027440626,0.998351,-0.002443461,-0.0067195175,-0.00030543262,-0.07706922,0.27124342,9.805946,2,1683969919.5843167
-0.008415125,0.027440626,0.998351,-0.002443461,-0.00045814895,-0.0015271631,-0.07706922,0.27124342,9.805946,2,1683969919.589446
-0.009390792,0.02792846,0.9987778,-0.002443461,-0.00045814895,-0.0015271631,-0.07706922,0.27124342,9.805946,2,1683969919.5945845
-0.008415125,0.02792846,0.9992657,-0.002443461,-0.00045814895,-0.0015271631,-0.07706922,0.27124342,9.805946,2,1683969919.6253808
-0.008415125,0.02792846,0.9992657,-0.002443461,-0.00045814895,-0.0015271631,-0.07701974,0.2711232,9.80595,2,1683969919.630511
-0.008415125,0.02792846,0.9992657,0.0012217305,-0.00045814895,0.0009162979,-0.07701974,0.2711232,9.80595,2,1683969919.6356468
-0.008415125,0.02792846,0.9992657,-0.0012217305,-0.0030543262,-0.0015271631,-0.07701974,0.2711232,9.80595,2,1683969919.6612964
-0.008415125,0.02792846,0.9992657,-0.0012217305,-0.0030543262,-0.0015271631,-0.07704034,0.27113923,9.80595,2,1683969919.6715496
-0.00798827,0.02695279,0.9997535,-0.0012217305,-0.0030543262,-0.0015271631,-0.07704034,0.27113923,9.80595,2,1683969919.6971843
-0.00798827,0.02695279,0.9997535,-0.0012217305,-0.0030543262,-0.0015271631,-0.07709674,0.26995882,9.805983,2,1683969919.7023196
-0.00798827,0.02695279,0.9997535,-0.002443461,-0.0016798794,-0.00030543262,-0.07709674,0.26995882,9.805983,2,1683969919.7074099
-0.0064637917,0.028904125,0.9978631,-0.002443461,-0.0016798794,-0.00030543262,-0.07709674,0.26995882,9.805983,2,1683969919.7176764
-0.0064637917,0.028904125,0.9978631,0.002443461,0.00076358154,0.0009162979,-0.07709674,0.26995882,9.805983,2,1683969919.7228103
-0.0064637917,0.028904125,0.9978631,0.002443461,0.00076358154,0.0009162979,-0.077007405,0.2698776,9.805985,2,1683969919.7279422
-0.007927292,0.02841629,0.9987778,0.002443461,0.00076358154,0.0009162979,-0.077007405,0.2698776,9.805985,2,1683969919.7484345
-0.007927292,0.02841629,0.9987778,0.0012217305,-0.0041233404,-0.0015271631,-0.077007405,0.2698776,9.805985,2,1683969919.7689126
-0.007927292,0.02841629,0.9987778,0.0012217305,-0.0041233404,-0.0015271631,-0.076998055,0.26992404,9.805984,2,1683969919.7740433
-0.007927292,0.02841629,0.9987778,0.0012217305,-0.0041233404,-0.0015271631,-0.07692048,0.2699828,9.805983,2,1683969919.8048122
-0.008902958,0.027440626,0.9978631,0.0012217305,-0.0041233404,-0.0015271631,-0.07692048,0.2699828,9.805983,2,1683969919.8099408
-0.008902958,0.027440626,0.9978631,-0.0012217305,0.00076358154,-0.00030543262,-0.07692048,0.2699828,9.805983,2,1683969919.8150563
-0.008902958,0.027440626,0.9978631,-0.002443461,0.001985312,-0.0015271631,-0.07692048,0.2699828,9.805983,2,1683969919.8355992
-0.007927292,0.02841629,0.9992657,-0.002443461,0.001985312,-0.0015271631,-0.07692048,0.2699828,9.805983,2,1683969919.8458853
-0.007927292,0.02841629,0.9992657,-0.002443461,0.001985312,-0.0015271631,-0.07701279,0.2698384,9.805985,2,1683969919.850996
-0.007927292,0.02841629,0.9992657,-0.0036651916,-0.00061086525,-0.0015271631,-0.07701279,0.2698384,9.805985,2,1683969919.871514
-0.007927292,0.02841629,0.9992657,-0.0036651916,-0.00061086525,-0.0015271631,-0.07707518,0.26980767,9.805987,2,1683969919.8766422
-0.007927292,0.02792846,0.9987778,-0.0036651916,-0.00061086525,-0.0015271631,-0.07707518,0.26980767,9.805987,2,1683969919.8868928
-0.007927292,0.02792846,0.9987778,0.0,0.00076358154,-0.00030543262,-0.07707518,0.26980767,9.805987,2,1683969919.907393
-0.007927292,0.02792846,0.9987778,0.0,0.00076358154,-0.00030543262,-0.07719162,0.26968244,9.805989,2,1683969919.9125278
-0.0059759584,0.02841629,0.9988388,0.0,0.00076358154,-0.00030543262,-0.07719162,0.26968244,9.805989,2,1683969919.917666
-0.0059759584,0.02841629,0.9988388,0.0,0.00076358154,-0.00030543262,-0.07723079,0.26967737,9.805988,2,1683969919.9330544
-0.007927292,0.02841629,0.9992657,0.0,0.00076358154,-0.00030543262,-0.07723079,0.26967737,9.805988,2,1683969919.963778
-0.007927292,0.02841629,0.9992657,0.002443461,-0.001985312,-0.00030543262,-0.07723079,0.26967737,9.805988,2,1683969919.9689121
-0.007927292,0.02841629,0.9992657,0.002443461,-0.001985312,-0.00030543262,-0.075984955,0.27011797,9.805986,2,1683969919.9894547
-0.007927292,0.02841629,0.9992657,0.002443461,-0.001985312,-0.00030543262,-0.07594968,0.27026445,9.805983,2,1683969920.0048528
-0.007927292,0.02841629,0.9992657,-0.0012217305,-0.0032070426,0.0009162979,-0.07594968,0.27026445,9.805983,2,1683969920.015131
-0.008902958,0.02646496,0.9978631,-0.0012217305,-0.0032070426,0.0009162979,-0.07594968,0.27026445,9.805983,2,1683969920.0253956
-0.008902958,0.02646496,0.9978631,-0.0012217305,-0.004581489,-0.00030543262,-0.07594968,0.27026445,9.805983,2,1683969920.03565
-0.008902958,0.02646496,0.9978631,-0.0012217305,-0.004581489,-0.00030543262,-0.07570189,0.2701052,9.805989,2,1683969920.04078
-0.0074394583,0.02792846,0.9988388,-0.0012217305,-0.004581489,-0.00030543262,-0.07570189,0.2701052,9.805989,2,1683969920.0459065
-0.0074394583,0.02792846,0.9988388,0.0012217305,0.00045814895,0.0009162979,-0.07570189,0.2701052,9.805989,2,1683969920.0715466
-0.0074394583,0.02792846,0.9988388,0.0012217305,0.00045814895,0.0009162979,-0.07551132,0.2700426,9.805992,2,1683969920.0766802
-0.0074394583,0.02792846,0.9988388,0.0,0.00045814895,-0.00030543262,-0.07551132,0.2700426,9.805992,2,1683969920.1125321
-0.0059759584,0.02646496,0.9998144,0.0,0.00045814895,-0.00030543262,-0.07551132,0.2700426,9.805992,2,1683969920.1176572
-0.0059759584,0.02646496,0.9998144,0.0,0.00045814895,-0.00030543262,-0.075491205,0.2701426,9.80599,2,1683969920.1227887
-0.0059759584,0.02646496,0.9998144,0.0,0.00045814895,-0.00030543262,-0.075574994,0.27016866,9.805988,2,1683969920.1483681
-0.0064637917,0.025977125,0.9978631,0.0,0.00045814895,-0.00030543262,-0.075574994,0.27016866,9.805988,2,1683969920.153497
-0.0064637917,0.025977125,0.9978631,-0.0012217305,-0.0032070426,0.0009162979,-0.075574994,0.27016866,9.805988,2,1683969920.1637409
-0.0064637917,0.025977125,0.9978631,-0.002443461,-0.00076358154,-0.0015271631,-0.075574994,0.27016866,9.805988,2,1683969920.1740012
-0.0064637917,0.025977125,0.9978631,-0.002443461,-0.00076358154,-0.0015271631,-0.07560019,0.2702305,9.805986,2,1683969920.1996434
-0.00798827,0.02646496,0.9997535,-0.002443461,-0.00076358154,-0.0015271631,-0.07560019,0.2702305,9.805986,2,1683969920.2047741
-0.00798827,0.02646496,0.9997535,-0.002443461,-0.00076358154,-0.0015271631,-0.075865746,0.2700671,9.805988,2,1683969920.2253041
-0.0064637917,0.02792846,0.9973753,-0.002443461,-0.00076358154,-0.0015271631,-0.075865746,0.2700671,9.805988,2,1683969920.2304265
-0.0064637917,0.02792846,0.9973753,0.0012217305,-0.008093964,0.0010690142,-0.075865746,0.2700671,9.805988,2,1683969920.240682
-0.0074394583,0.028904125,0.9988388,0.0012217305,-0.008093964,0.0010690142,-0.075865746,0.2700671,9.805988,2,1683969920.2509453
-0.0074394583,0.028904125,0.9988388,0.0012217305,-0.008093964,0.0010690142,-0.07682743,0.26953307,9.805996,2,1683969920.2612042
-0.007927292,0.02792846,0.9988388,0.0012217305,-0.008093964,0.0010690142,-0.07682743,0.26953307,9.805996,2,1683969920.2765892
-0.007927292,0.02792846,0.9988388,0.0,0.0016798794,0.0009162979,-0.07682743,0.26953307,9.805996,2,1683969920.2919195
-0.007927292,0.02792846,0.9988388,0.0,0.0016798794,0.0009162979,-0.07660082,0.26964578,9.805995,2,1683969920.2970514
-0.0075004376,0.027440626,1.0007291,0.0,0.0016798794,0.0009162979,-0.07660082,0.26964578,9.805995,2,1683969920.3175356
-0.0075004376,0.027440626,1.0007291,0.0,0.0016798794,0.0009162979,-0.07661635,0.2695168,9.805998,2,1683969920.3226655
-0.0075004376,0.027440626,1.0007291,0.0012217305,0.00045814895,-0.00030543262,-0.07661635,0.2695168,9.805998,2,1683969920.3380628
-0.008415125,0.02695279,0.998351,0.0012217305,0.00045814895,-0.00030543262,-0.07661635,0.2695168,9.805998,2,1683969920.3483331
-0.008415125,0.02695279,0.998351,-0.0036651916,-0.0021380284,0.0009162979,-0.07661635,0.2695168,9.805998,2,1683969920.3534615
-0.008415125,0.02695279,0.998351,-0.0036651916,-0.0021380284,0.0009162979,-0.076541856,0.26958013,9.805997,2,1683969920.3637178
-0.008415125,0.02695279,0.998351,-0.0036651916,-0.0021380284,0.0009162979,-0.07639906,0.2694618,9.806002,2,1683969920.384255
-0.008415125,0.02695279,0.998351,0.0012217305,-0.001985312,-0.00030543262,-0.07639906,0.2694618,9.806002,2,1683969920.394509
-0.007927292,0.025977125,0.9978631,0.0012217305,-0.001985312,-0.00030543262,-0.07639906,0.2694618,9.806002,2,1683969920.3996327
-0.007927292,0.025977125,0.9978631,0.0012217305,-0.001985312,-0.00030543262,-0.0763494,0.26945636,9.806002,2,1683969920.425287
-0.007927292,0.025977125,0.9978631,-0.0012217305,-0.001985312,-0.00030543262,-0.0763494,0.26945636,9.806002,2,1683969920.435528
-0.0075004376,0.025489293,1.0003022,-0.0012217305,-0.001985312,-0.00030543262,-0.0763494,0.26945636,9.806002,2,1683969920.4457955
-0.0074394583,0.029391957,0.9987778,-0.0012217305,-0.001985312,-0.00030543262,-0.0763494,0.26945636,9.806002,2,1683969920.4663105
-0.0074394583,0.029391957,0.9987778,-0.0012217305,-0.001985312,-0.00030543262,-0.07630006,0.269287,9.806006,2,1683969920.4714353
-0.0074394583,0.029391957,0.9987778,0.0,0.00290161,-0.00030543262,-0.07630006,0.269287,9.806006,2,1683969920.476566
-0.0074394583,0.02695279,0.998351,0.0,0.00290161,-0.00030543262,-0.07630006,0.269287,9.806006,2,1683969920.4970348
-0.0074394583,0.02695279,0.998351,-0.0012217305,-0.001985312,-0.0015271631,-0.07630006,0.269287,9.806006,2,1683969920.5021644
-0.0074394583,0.02695279,0.998351,-0.0012217305,-0.001985312,-0.0015271631,-0.07611878,0.26907736,9.806014,2,1683969920.5123801
-0.007927292,0.02646496,0.9993266,-0.0012217305,-0.001985312,-0.0015271631,-0.07611878,0.26907736,9.806014,2,1683969920.5175047
-0.007927292,0.02646496,0.9993266,-0.0012217305,0.00290161,0.0021380284,-0.07611878,0.26907736,9.806014,2,1683969920.5226355
-0.007927292,0.02646496,0.9993266,0.0,0.0016798794,0.0009162979,-0.07611878,0.26907736,9.806014,2,1683969920.5431337
-0.007927292,0.02646496,0.9993266,0.0,0.0016798794,0.0009162979,-0.07621218,0.2690492,9.806014,2,1683969920.5533972
-0.0069516255,0.02841629,0.9973753,0.0,0.0016798794,0.0009162979,-0.07621218,0.2690492,9.806014,2,1683969920.558525
-0.009390792,0.02792846,0.9973753,0.0,0.0016798794,0.0009162979,-0.07621218,0.2690492,9.806014,2,1683969920.5892951
-0.009390792,0.02792846,0.9973753,0.0,0.0016798794,0.0009162979,-0.07622284,0.26908207,9.806013,2,1683969920.5944278
-0.009390792,0.02792846,0.9973753,0.0,-0.001985312,0.0021380284,-0.07622284,0.26908207,9.806013,2,1683969920.5995567
-0.009390792,0.02792846,0.9973753,-0.0012217305,-0.00076358154,-0.00030543262,-0.07622284,0.26908207,9.806013,2,1683969920.614944
-0.006524771,0.029391957,0.9998144,-0.0012217305,-0.00076358154,-0.00030543262,-0.07622284,0.26908207,9.806013,2,1683969920.620075
-0.006524771,0.029391957,0.9998144,-0.0012217305,-0.00076358154,-0.00030543262,-0.07619012,0.26914424,9.806011,2,1683969920.6303327
-0.006524771,0.029391957,0.9998144,0.0012217305,-0.0056505036,-0.00015271631,-0.07619012,0.26914424,9.806011,2,1683969920.6610365
-0.006524771,0.029391957,0.9998144,0.0012217305,-0.0056505036,-0.00015271631,-0.07624831,0.26905397,9.806014,2,1683969920.6661682
-0.009390792,0.029391957,0.9987778,0.0012217305,-0.0056505036,-0.00015271631,-0.07624831,0.26905397,9.806014,2,1683969920.6712599
-0.009390792,0.029391957,0.9987778,0.0012217305,-0.0056505036,-0.00015271631,-0.07629672,0.26913202,9.806011,2,1683969920.691779
-0.008415125,0.02841629,0.998351,0.0012217305,-0.0056505036,-0.00015271631,-0.07629672,0.26913202,9.806011,2,1683969920.696908
-0.008415125,0.02841629,0.998351,0.0,-0.0056505036,-0.00030543262,-0.07629672,0.26913202,9.806011,2,1683969920.707169
-0.008415125,0.02841629,0.998351,-0.0012217305,0.00290161,0.0021380284,-0.07629672,0.26913202,9.806011,2,1683969920.7225592
-0.0075004376,0.027440626,1.0002413,-0.0012217305,0.00290161,0.0021380284,-0.07629672,0.26913202,9.806011,2,1683969920.72769
-0.0075004376,0.027440626,1.0002413,-0.0012217305,0.00290161,0.0021380284,-0.07613254,0.26909903,9.806013,2,1683969920.7327857
-0.0075004376,0.027440626,1.0002413,-0.0012217305,-0.00076358154,-0.0015271631,-0.07613254,0.26909903,9.806013,2,1683969920.7582607
-0.0075004376,0.027440626,1.0002413,-0.0012217305,-0.00076358154,-0.0015271631,-0.07624613,0.2690875,9.806012,2,1683969920.7633505
-0.007927292,0.028904125,0.998351,-0.0012217305,-0.00076358154,-0.0015271631,-0.07624613,0.2690875,9.806012,2,1683969920.773621
-0.007927292,0.028904125,0.998351,-0.0012217305,-0.00076358154,-0.0015271631,-0.07540241,0.2683205,9.80604,2,1683969920.7941282
-0.005061271,0.02792846,0.9997535,-0.0012217305,-0.00076358154,-0.0015271631,-0.07540241,0.2683205,9.80604,2,1683969920.7992022
-0.005061271,0.02792846,0.9997535,-0.002443461,-0.00076358154,-0.00030543262,-0.07540241,0.2683205,9.80604,2,1683969920.8145828
-0.006524771,0.027440626,1.0002413,-0.002443461,-0.00076358154,-0.00030543262,-0.07540241,0.2683205,9.80604,2,1683969920.8351107
-0.006524771,0.027440626,1.0002413,0.0,0.00045814895,-0.0015271631,-0.07540241,0.2683205,9.80604,2,1683969920.8452902
-0.006524771,0.027440626,1.0002413,0.0,0.00045814895,-0.0015271631,-0.075238295,0.26827493,9.806043,2,1683969920.8503807
-0.006524771,0.027440626,1.0002413,0.0,0.0016798794,-0.00030543262,-0.075238295,0.26827493,9.806043,2,1683969920.865725
-0.006524771,0.027440626,1.0002413,0.0,0.0016798794,-0.00030543262,-0.07516042,0.2683276,9.806043,2,1683969920.8708563
-0.008415125,0.027440626,0.9978021,0.0,0.0016798794,-0.00030543262,-0.07516042,0.2683276,9.806043,2,1683969920.8862374
-0.008415125,0.027440626,0.9978021,0.0012217305,0.0016798794,0.0009162979,-0.07516042,0.2683276,9.806043,2,1683969920.8964589
-0.007927292,0.02646496,0.9992657,0.0012217305,0.0016798794,0.0009162979,-0.07516042,0.2683276,9.806043,2,1683969920.9067268
-0.007927292,0.02646496,0.9992657,0.0012217305,0.0016798794,0.0009162979,-0.075201474,0.26828817,9.806043,2,1683969920.911854
-0.007927292,0.02646496,0.9992657,0.0,-0.00076358154,-0.00030543262,-0.075201474,0.26828817,9.806043,2,1683969920.9323308
-0.007927292,0.02646496,0.9992657,0.0,-0.00076358154,-0.00030543262,-0.07525485,0.26832056,9.806042,2,1683969920.9374666
-0.008902958,0.02695279,0.9978021,0.0,-0.00076358154,-0.00030543262,-0.07525485,0.26832056,9.806042,2,1683969920.9528477
-0.008902958,0.02695279,0.9978021,0.0,-0.001985312,0.0009162979,-0.07525485,0.26832056,9.806042,2,1683969920.9682565
-0.008902958,0.02695279,0.9978021,0.0,-0.001985312,0.0009162979,-0.07516682,0.2682353,9.806045,2,1683969920.973399
-0.008902958,0.027440626,0.9987778,0.0,-0.001985312,0.0009162979,-0.07516682,0.2682353,9.806045,2,1683969920.993927
-0.008902958,0.027440626,0.9987778,-0.0012217305,-0.0032070426,-0.00030543262,-0.07516682,0.2682353,9.806045,2,1683969921.0144029
-0.008902958,0.027440626,0.9987778,-0.0012217305,-0.0032070426,-0.00030543262,-0.075146,0.26823422,9.806045,2,1683969921.0246198
-0.0074394583,0.02646496,0.9993266,-0.0012217305,-0.0032070426,-0.00030543262,-0.075146,0.26823422,9.806045,2,1683969921.0297132
-0.0074394583,0.02646496,0.9993266,-0.0012217305,-0.0032070426,-0.00030543262,-0.07511114,0.2680827,9.806049,2,1683969921.034848
-0.0074394583,0.02646496,0.9993266,0.0,-0.001985312,-0.00030543262,-0.07511114,0.2680827,9.806049,2,1683969921.0502336
-0.008902958,0.025001459,0.9973753,0.0,-0.001985312,-0.00030543262,-0.07511114,0.2680827,9.806049,2,1683969921.0553267
-0.008902958,0.025001459,0.9973753,0.0015271631,0.00061086525,-0.00030543262,-0.07511114,0.2680827,9.806049,2,1683969921.0758498
-0.008902958,0.025001459,0.9973753,0.0015271631,0.00061086525,-0.00030543262,-0.07406689,0.2690476,9.80603,2,1683969921.080983
-0.0075004376,0.02646496,0.9997535,0.0015271631,0.00061086525,-0.00030543262,-0.07406689,0.2690476,9.80603,2,1683969921.0861194
-0.007927292,0.02646496,0.9992657,0.0015271631,0.00061086525,-0.00030543262,-0.07406689,0.2690476,9.80603,2,1683969921.1014588
-0.007927292,0.02646496,0.9992657,0.00030543262,0.0018325958,-0.0027488936,-0.07406689,0.2690476,9.80603,2,1683969921.1117237
-0.007927292,0.02646496,0.9992657,0.00030543262,0.0018325958,-0.0027488936,-0.07411822,0.26911047,9.806028,2,1683969921.116856
-0.008415125,0.02792846,0.9978631,0.00030543262,0.0018325958,-0.0027488936,-0.07411822,0.26911047,9.806028,2,1683969921.132255
-0.008415125,0.02792846,0.9978631,0.00030543262,0.0018325958,-0.0027488936,-0.0743744,0.26906928,9.806027,2,1683969921.1425254
-0.008415125,0.02792846,0.9978631,0.0027488936,-0.0018325958,-0.00030543262,-0.0743744,0.26906928,9.806027,2,1683969921.1476586
-0.008415125,0.02792846,0.9978631,0.0027488936,-0.0018325958,-0.00030543262,-0.07459619,0.26916233,9.806024,2,1683969921.1784434
-0.008415125,0.028904125,0.9978021,0.0027488936,-0.0018325958,-0.00030543262,-0.07459619,0.26916233,9.806024,2,1683969921.1835697
-0.0069516255,0.025977125,0.9987778,0.0027488936,-0.0018325958,-0.00030543262,-0.07459619,0.26916233,9.806024,2,1683969921.1989653
-0.0069516255,0.025977125,0.9987778,0.0027488936,-0.0018325958,-0.00030543262,-0.074489854,0.26940253,9.806017,2,1683969921.2194343
-0.0069516255,0.025977125,0.9987778,-0.0021380284,-0.00061086525,0.0021380284,-0.074489854,0.26940253,9.806017,2,1683969921.2245655
-0.0069516255,0.025977125,0.9987778,-0.0021380284,-0.00061086525,0.0021380284,-0.074358046,0.2694299,9.806018,2,1683969921.2450812
-0.0069516255,0.02841629,0.9992657,-0.0021380284,-0.00061086525,0.0021380284,-0.074358046,0.2694299,9.806018,2,1683969921.250218
-0.0069516255,0.02841629,0.9992657,-0.0021380284,0.00061086525,0.0021380284,-0.074358046,0.2694299,9.806018,2,1683969921.26551
-0.0064637917,0.02646496,0.998351,-0.0021380284,0.00061086525,0.0021380284,-0.074358046,0.2694299,9.806018,2,1683969921.270643
-0.0064637917,0.02646496,0.998351,0.0015271631,0.0030543262,0.0009162979,-0.074358046,0.2694299,9.806018,2,1683969921.291147
-0.0064637917,0.02646496,0.998351,0.0015271631,0.0030543262,0.0009162979,-0.07439548,0.26951817,9.806015,2,1683969921.301411
-0.0064637917,0.02646496,0.998351,0.00030543262,-0.0030543262,0.0009162979,-0.07439548,0.26951817,9.806015,2,1683969921.3116705
-0.0064637917,0.02646496,0.998351,0.00030543262,-0.0030543262,0.0009162979,-0.07422468,0.26947114,9.806018,2,1683969921.3168037
-0.0074394583,0.02646496,0.9992657,0.00030543262,-0.0030543262,0.0009162979,-0.07422468,0.26947114,9.806018,2,1683969921.3219328
-0.0074394583,0.02646496,0.9992657,-0.0021380284,-0.00061086525,-0.0015271631,-0.07422468,0.26947114,9.806018,2,1683969921.347582
-0.010427438,0.027440626,1.0031683,-0.0021380284,-0.00061086525,-0.0015271631,-0.07422468,0.26947114,9.806018,2,1683969921.3527124
-0.010427438,0.027440626,1.0031683,-0.0021380284,-0.00061086525,-0.0015271631,-0.07509896,0.26939842,9.806013,2,1683969921.3578405
-0.010427438,0.027440626,1.0031683,-0.0021380284,-0.00061086525,-0.0015271631,-0.07508596,0.26938552,9.806013,2,1683969921.3732378
-0.010427438,0.027440626,1.0031683,0.00030543262,-0.00061086525,0.0021380284,-0.07508596,0.26938552,9.806013,2,1683969921.3937511
-0.008902958,0.02695279,0.99829,0.00030543262,-0.00061086525,0.0021380284,-0.07508596,0.26938552,9.806013,2,1683969921.4040463
-0.008902958,0.02695279,0.99829,0.00030543262,-0.00061086525,0.0021380284,-0.07512525,0.2694162,9.806012,2,1683969921.4245162
-0.0069516255,0.028904125,0.9973753,0.00030543262,-0.00061086525,0.0021380284,-0.07512525,0.2694162,9.806012,2,1683969921.4296486
-0.0069516255,0.028904125,0.9973753,0.00030543262,-0.00061086525,-0.00030543262,-0.07512525,0.2694162,9.806012,2,1683969921.4399135
-0.0064637917,0.02695279,0.9973753,0.00030543262,-0.00061086525,-0.00030543262,-0.07512525,0.2694162,9.806012,2,1683969921.4450426
-0.0064637917,0.02695279,0.9973753,0.0015271631,-0.00061086525,0.0009162979,-0.07512525,0.2694162,9.806012,2,1683969921.4603813
-0.0064637917,0.02695279,0.9973753,0.0015271631,-0.00061086525,0.0009162979,-0.07539539,0.26938137,9.806011,2,1683969921.4757621
-0.0064637917,0.02695279,0.9973753,0.0015271631,0.0018325958,0.0009162979,-0.07539539,0.26938137,9.806011,2,1683969921.4962292
-0.0064637917,0.02695279,0.9973753,0.0015271631,0.0018325958,0.0009162979,-0.07560433,0.26937452,9.806009,2,1683969921.5013642
-0.0074394583,0.028904125,0.9973753,0.0015271631,0.0018325958,0.0009162979,-0.07560433,0.26937452,9.806009,2,1683969921.5065002
-0.0074394583,0.028904125,0.9973753,0.0015271631,-0.0018325958,-0.00030543262,-0.07560433,0.26937452,9.806009,2,1683969921.5218852
-0.0074394583,0.028904125,0.9973753,0.0015271631,-0.0018325958,-0.00030543262,-0.07576672,0.26930353,9.80601,2,1683969921.5270174
-0.0069516255,0.025977125,0.9998144,0.0015271631,-0.0018325958,-0.00030543262,-0.07576672,0.26930353,9.80601,2,1683969921.537237
-0.0069516255,0.025977125,0.9998144,0.00030543262,0.00061086525,0.0021380284,-0.07576672,0.26930353,9.80601,2,1683969921.5627582
-0.007927292,0.02792846,0.9968874,0.00030543262,0.00061086525,0.0021380284,-0.07576672,0.26930353,9.80601,2,1683969921.5678852
-0.007927292,0.02792846,0.9968874,0.00030543262,0.00061086525,0.0021380284,-0.07558921,0.2692729,9.806012,2,1683969921.5832026
-0.007927292,0.02792846,0.9968874,-0.0009162979,-0.00061086525,0.0009162979,-0.07558921,0.2692729,9.806012,2,1683969921.593465
-0.00798827,0.02841629,0.9997535,-0.0009162979,-0.00061086525,0.0009162979,-0.07558921,0.2692729,9.806012,2,1683969921.5985975
-0.00798827,0.02841629,0.9997535,-0.0009162979,-0.00061086525,0.0009162979,-0.0755824,0.26926467,9.806013,2,1683969921.6037285
-0.0074394583,0.028904125,0.9978631,-0.0009162979,-0.00061086525,0.0009162979,-0.0755824,0.26926467,9.806013,2,1683969921.6191204
-0.0074394583,0.028904125,0.9978631,0.00030543262,0.00061086525,-0.00030543262,-0.0755824,0.26926467,9.806013,2,1683969921.624252
-0.0074394583,0.028904125,0.9978631,0.00030543262,0.00061086525,-0.00030543262,-0.07521893,0.26921913,9.806017,2,1683969921.6345055
-0.0074394583,0.028904125,0.9978631,0.00030543262,-0.005497787,-0.00030543262,-0.07521893,0.26921913,9.806017,2,1683969921.6600702
-0.008415125,0.027440626,0.9987778,0.00030543262,-0.005497787,-0.00030543262,-0.07521893,0.26921913,9.806017,2,1683969921.665183
-0.008415125,0.027440626,0.9987778,0.00030543262,-0.005497787,-0.00030543262,-0.07524037,0.26926988,9.806016,2,1683969921.6804273
-0.007927292,0.027440626,0.9988388,0.00030543262,-0.005497787,-0.00030543262,-0.07524037,0.26926988,9.806016,2,1683969921.6855423
-0.007927292,0.027440626,0.9988388,0.00030543262,-0.005497787,-0.00030543262,-0.074981,0.26943582,9.806013,2,1683969921.6906664
-0.007927292,0.027440626,0.9988388,-0.0021380284,0.0018325958,-0.0015271631,-0.074981,0.26943582,9.806013,2,1683969921.7009284
-0.0074394583,0.02695279,0.9978631,-0.0021380284,0.0018325958,-0.0015271631,-0.074981,0.26943582,9.806013,2,1683969921.731713
-0.0074394583,0.02695279,0.9978631,-0.0021380284,0.0018325958,-0.0015271631,-0.075060636,0.26948905,9.806011,2,1683969921.7470496
-0.0074394583,0.02695279,0.9978631,0.00030543262,0.00061086525,-0.00030543262,-0.075060636,0.26948905,9.806011,2,1683969921.7521844
-0.0074394583,0.02695279,0.9978631,0.00030543262,0.0018325958,-0.00030543262,-0.075060636,0.26948905,9.806011,2,1683969921.757314
-0.0074394583,0.027440626,0.9978631,0.00030543262,0.0018325958,-0.00030543262,-0.075060636,0.26948905,9.806011,2,1683969921.7675009
-0.0074394583,0.027440626,0.9978631,0.00030543262,0.0018325958,-0.00030543262,-0.07519097,0.26951933,9.806009,2,1683969921.7827806
-0.0074394583,0.027440626,0.9978631,0.0015271631,0.00061086525,-0.00030543262,-0.07519097,0.26951933,9.806009,2,1683969921.808386
-0.007927292,0.02695279,0.9973753,0.0015271631,0.00061086525,-0.00030543262,-0.07519097,0.26951933,9.806009,2,1683969921.8186336
-0.007927292,0.02695279,0.9973753,0.0015271631,0.00061086525,-0.00030543262,-0.0752591,0.26951182,9.806008,2,1683969921.8237665
-0.007927292,0.02695279,0.9973753,0.0015271631,0.00061086525,-0.00030543262,-0.07511561,0.269527,9.806009,2,1683969921.8391247
-0.007927292,0.02695279,0.9973753,0.00030543262,-0.0018325958,-0.0015271631,-0.07511561,0.269527,9.806009,2,1683969921.854509
-0.007927292,0.025977125,0.9978631,0.00030543262,-0.0018325958,-0.0015271631,-0.07511561,0.269527,9.806009,2,1683969921.8596406
-0.007927292,0.025977125,0.9978631,0.00030543262,-0.00061086525,-0.00030543262,-0.07511561,0.269527,9.806009,2,1683969921.864772
-0.007927292,0.025977125,0.9978631,0.00030543262,-0.00061086525,-0.00030543262,-0.075226635,0.26949978,9.806009,2,1683969921.8801255
-0.007927292,0.025977125,0.9978631,0.00030543262,-0.00061086525,-0.00030543262,-0.07451858,0.2704199,9.80599,2,1683969921.8955338
-0.0074394583,0.027440626,0.998351,0.00030543262,-0.00061086525,-0.00030543262,-0.07451858,0.2704199,9.80599,2,1683969921.9057767
-0.0074394583,0.027440626,0.998351,0.00030543262,-0.00061086525,-0.00030543262,-0.07459551,0.2704535,9.805987,2,1683969921.9262946
-0.0074394583,0.027440626,0.998351,0.0027488936,0.0018325958,0.0009162979,-0.07459551,0.2704535,9.805987,2,1683969921.931389
-0.0064637917,0.025489293,0.9993266,0.0027488936,0.0018325958,0.0009162979,-0.07459551,0.2704535,9.805987,2,1683969921.9519064
-0.0064637917,0.025489293,0.9993266,-0.0009162979,0.0018325958,-0.0015271631,-0.07459551,0.2704535,9.805987,2,1683969921.9570327
-0.0064637917,0.025489293,0.9993266,-0.0009162979,0.0018325958,-0.0015271631,-0.07469099,0.27051866,9.805985,2,1683969921.9621623
-0.008415125,0.025977125,0.9963996,-0.0009162979,0.0018325958,-0.0015271631,-0.07469099,0.27051866,9.805985,2,1683969921.9825642
-0.008415125,0.025977125,0.9963996,-0.0009162979,-0.00061086525,0.0021380284,-0.07469099,0.27051866,9.805985,2,1683969921.9876955
-0.008415125,0.025977125,0.9963996,-0.0009162979,-0.00061086525,0.0021380284,-0.07476463,0.27055115,9.805984,2,1683969921.9928236
-0.008415125,0.025977125,0.9963996,-0.0009162979,-0.00061086525,0.0021380284,-0.07467959,0.27050397,9.805985,2,1683969922.013312
-0.007927292,0.02792846,0.9992657,-0.0009162979,-0.00061086525,0.0021380284,-0.07467959,0.27050397,9.805985,2,1683969922.0235653
-0.007927292,0.02792846,0.9992657,-0.0009162979,-0.0018325958,-0.00030543262,-0.07467959,0.27050397,9.805985,2,1683969922.0286934
-0.008476105,0.02841629,0.9997535,-0.0009162979,-0.0018325958,-0.00030543262,-0.07467959,0.27050397,9.805985,2,1683969922.049214
-0.008476105,0.02841629,0.9997535,-0.0009162979,-0.0018325958,-0.00030543262,-0.074565396,0.2704244,9.805988,2,1683969922.0543404
-0.008476105,0.02841629,0.9997535,0.0027488936,0.00061086525,0.0021380284,-0.074565396,0.2704244,9.805988,2,1683969922.0594623
-0.008476105,0.02841629,0.9997535,0.0027488936,-0.0018325958,-0.0015271631,-0.074565396,0.2704244,9.805988,2,1683969922.085043
-0.0069516255,0.02695279,0.998351,0.0027488936,-0.0018325958,-0.0015271631,-0.074565396,0.2704244,9.805988,2,1683969922.0901694
-0.0069516255,0.02695279,0.998351,0.0027488936,-0.0018325958,-0.0015271631,-0.07445801,0.270621,9.805984,2,1683969922.105517
-0.0069516255,0.02695279,0.998351,0.00030543262,0.00061086525,-0.0015271631,-0.07445801,0.270621,9.805984,2,1683969922.1209133
-0.0069516255,0.02695279,0.998351,0.00030543262,0.00061086525,-0.0015271631,-0.07436128,0.27067107,9.805984,2,1683969922.1260471
-0.008415125,0.02792846,0.99829,0.00030543262,0.00061086525,-0.0015271631,-0.07436128,0.27067107,9.805984,2,1683969922.1363273
-0.008415125,0.027440626,0.9978631,0.00030543262,0.00061086525,-0.0015271631,-0.07436128,0.27067107,9.805984,2,1683969922.1619647
-0.0069516255,0.02646496,0.9978631,0.00030543262,0.00061086525,-0.0015271631,-0.07436128,0.27067107,9.805984,2,1683969922.1721907
-0.0069516255,0.02646496,0.9978631,-0.0009162979,0.00061086525,-0.0015271631,-0.07436128,0.27067107,9.805984,2,1683969922.1874926
-0.0069516255,0.02646496,0.9978631,-0.0009162979,0.00061086525,-0.0015271631,-0.07419579,0.2709492,9.805978,2,1683969922.1977513
-0.0069516255,0.02646496,0.9978631,-0.0009162979,0.00061086525,-0.0015271631,-0.07419018,0.27100286,9.805976,2,1683969922.213136
-0.008415125,0.027440626,0.99829,-0.0009162979,0.00061086525,-0.0015271631,-0.07419018,0.27100286,9.805976,2,1683969922.2233596
-0.008415125,0.027440626,0.99829,0.0027488936,-0.0018325958,0.0033597588,-0.07419018,0.27100286,9.805976,2,1683969922.2284884
-0.008415125,0.027440626,0.99829,0.0027488936,-0.0018325958,0.0033597588,-0.073818654,0.2711484,9.805975,2,1683969922.2387488
-0.008415125,0.027440626,0.99829,0.0027488936,-0.00061086525,0.0009162979,-0.073818654,0.2711484,9.805975,2,1683969922.2592337
-0.007927292,0.02646496,0.9973753,0.0027488936,-0.00061086525,0.0009162979,-0.073818654,0.2711484,9.805975,2,1683969922.2643647
-0.007927292,0.02646496,0.9973753,-0.0021380284,-0.001985312,-0.0015271631,-0.073818654,0.2711484,9.805975,2,1683969922.274578
-0.007927292,0.02646496,0.9973753,-0.0021380284,-0.001985312,-0.0015271631,-0.07377339,0.27124318,9.805972,2,1683969922.2847967
-0.0070126047,0.02792846,1.0012169,-0.0021380284,-0.001985312,-0.0015271631,-0.07377339,0.27124318,9.805972,2,1683969922.3155093
-0.0070126047,0.02792846,1.0012169,-0.0009162979,0.0030543262,-0.00030543262,-0.07377339,0.27124318,9.805972,2,1683969922.3257709
-0.0070126047,0.02792846,1.0012169,-0.0009162979,0.0030543262,-0.00030543262,-0.07368255,0.2711945,9.805974,2,1683969922.3309045
-0.0070126047,0.02792846,1.0012169,0.00030543262,0.0030543262,0.0009162979,-0.07368255,0.2711945,9.805974,2,1683969922.3513446
-0.0070126047,0.02792846,1.0012169,0.00030543262,0.0030543262,0.0009162979,-0.07366633,0.27110294,9.805977,2,1683969922.3718605
-0.008902958,0.027440626,0.99829,0.00030543262,0.0030543262,0.0009162979,-0.07366633,0.27110294,9.805977,2,1683969922.3769677
-0.008415125,0.02695279,0.9987778,0.00030543262,0.0030543262,0.0009162979,-0.07366633,0.27110294,9.805977,2,1683969922.3820806
-0.008415125,0.02695279,0.9987778,0.00030543262,0.0030543262,0.0009162979,-0.073840186,0.27111164,9.805975,2,1683969922.3973737
-0.008415125,0.02695279,0.9987778,0.0027488936,-0.0018325958,0.0009162979,-0.073840186,0.27111164,9.805975,2,1683969922.4025154
-0.008415125,0.02695279,0.9987778,-0.0009162979,0.00061086525,0.0009162979,-0.073840186,0.27111164,9.805975,2,1683969922.433279
-0.008415125,0.02695279,0.998351,-0.0009162979,0.00061086525,0.0009162979,-0.073840186,0.27111164,9.805975,2,1683969922.4384117
-0.0060369377,0.028904125,0.9997535,-0.0009162979,0.00061086525,0.0009162979,-0.073840186,0.27111164,9.805975,2,1683969922.4486778
-0.0060369377,0.028904125,0.9997535,0.00030543262,0.0018325958,-0.0015271631,-0.073840186,0.27111164,9.805975,2,1683969922.4589438
-0.0060369377,0.028904125,0.9997535,0.00030543262,0.0018325958,-0.0015271631,-0.074291125,0.27157146,9.80596,2,1683969922.4692097
-0.0060369377,0.028904125,0.9997535,0.0015271631,0.0018325958,-0.00030543262,-0.074291125,0.27157146,9.80596,2,1683969922.4998083
-0.005488125,0.027440626,0.9993266,0.0015271631,0.0018325958,-0.00030543262,-0.074291125,0.27157146,9.80596,2,1683969922.50494
-0.005488125,0.027440626,0.9993266,0.0015271631,0.0018325958,-0.00030543262,-0.07449131,0.2717528,9.805953,2,1683969922.5151882
-0.008902958,0.02792846,0.9987778,0.0015271631,0.0018325958,-0.00030543262,-0.07449131,0.2717528,9.805953,2,1683969922.5254073
-0.008902958,0.02792846,0.9987778,0.0015271631,0.00061086525,-0.00030543262,-0.07449131,0.2717528,9.805953,2,1683969922.5407565
-0.008902958,0.02792846,0.9987778,0.0015271631,0.00061086525,-0.00030543262,-0.07449274,0.2718198,9.80595,2,1683969922.5458882
-0.008902958,0.02792846,0.9987778,0.00030543262,0.00061086525,0.0021380284,-0.07449274,0.2718198,9.80595,2,1683969922.5715292
-0.008902958,0.02792846,0.9987778,0.00030543262,0.00061086525,0.0021380284,-0.074743904,0.27181295,9.805949,2,1683969922.5766578
-0.007927292,0.02841629,0.99829,0.00030543262,0.00061086525,0.0021380284,-0.074743904,0.27181295,9.805949,2,1683969922.5817738
-0.007927292,0.02841629,0.99829,0.00030543262,0.00061086525,0.0021380284,-0.07471837,0.27186927,9.805947,2,1683969922.6072783
-0.007927292,0.02841629,0.99829,0.00030543262,-0.0018325958,0.0009162979,-0.07471837,0.27186927,9.805947,2,1683969922.6124141
-0.008902958,0.025977125,0.9968874,0.00030543262,-0.0018325958,0.0009162979,-0.07471837,0.27186927,9.805947,2,1683969922.6175494
-0.008902958,0.025977125,0.9968874,0.0015271631,0.004276057,-0.00030543262,-0.07471837,0.27186927,9.805947,2,1683969922.6329377
-0.008415125,0.02792846,0.9973753,0.0015271631,0.004276057,-0.00030543262,-0.07471837,0.27186927,9.805947,2,1683969922.6534455
-0.008415125,0.02792846,0.9973753,0.0015271631,0.004276057,-0.00030543262,-0.07462411,0.27191684,9.805947,2,1683969922.6585724
-0.009451771,0.02841629,1.0002413,0.0015271631,0.004276057,-0.00030543262,-0.07462411,0.27191684,9.805947,2,1683969922.6688268
-0.009451771,0.02841629,1.0002413,0.0015271631,0.004276057,-0.00030543262,-0.074902944,0.27192104,9.805944,2,1683969922.6790884
-0.009451771,0.02841629,1.0002413,0.00030543262,0.0067195175,-0.00030543262,-0.074902944,0.27192104,9.805944,2,1683969922.689268
-0.008902958,0.027440626,0.9987778,-0.0009162979,-0.0018325958,-0.00030543262,-0.07500616,0.2718657,9.805945,2,1683969922.694497
-0.008902958,0.027440626,0.9987778,0.00015271631,0.00076358154,-0.0013744468,-0.07500616,0.2718657,9.805945,2,1683969922.7047496
-0.008476105,0.02695279,1.0002413,0.00015271631,0.00076358154,-0.0013744468,-0.07500616,0.2718657,9.805945,2,1683969922.7150106
-0.008476105,0.02695279,1.0002413,0.00015271631,0.00076358154,-0.0013744468,-0.07515762,0.27212858,9.805937,2,1683969922.7201598
-0.008476105,0.02695279,1.0002413,0.00015271631,0.00076358154,-0.00015271631,-0.07515762,0.27212858,9.805937,2,1683969922.7509131
-0.008476105,0.02695279,1.0002413,0.00015271631,0.00076358154,-0.00015271631,-0.0751567,0.27207738,9.805939,2,1683969922.761173
-0.007927292,0.02841629,0.9992657,0.00015271631,0.00076358154,-0.00015271631,-0.0751567,0.27207738,9.805939,2,1683969922.7663043
-0.0074394583,0.02841629,0.99829,0.00015271631,0.00076358154,-0.00015271631,-0.0751567,0.27207738,9.805939,2,1683969922.7816849
-0.0074394583,0.02841629,0.99829,0.00015271631,0.001985312,-0.0013744468,-0.0751567,0.27207738,9.805939,2,1683969922.7918656
-0.0074394583,0.02841629,0.99829,0.00015271631,0.001985312,-0.0013744468,-0.075131565,0.27209002,9.805939,2,1683969922.8020926
-0.0074394583,0.02841629,0.99829,0.00015271631,0.001985312,-0.0013744468,-0.075044885,0.27208456,9.80594,2,1683969922.8225753
-0.0074394583,0.02841629,0.99829,0.0025961774,0.001985312,-0.00015271631,-0.075044885,0.27208456,9.80594,2,1683969922.827707
-0.008415125,0.02841629,0.9987778,0.0025961774,0.001985312,-0.00015271631,-0.075044885,0.27208456,9.80594,2,1683969922.832839
-0.008415125,0.02841629,0.9987778,0.0013744468,0.00076358154,-0.00015271631,-0.075044885,0.27208456,9.80594,2,1683969922.8482368
-0.008415125,0.02841629,0.9987778,0.0013744468,0.00076358154,-0.00015271631,-0.07524128,0.27220055,9.805935,2,1683969922.853367
-0.008902958,0.025977125,0.9987778,0.0013744468,0.00076358154,-0.00015271631,-0.07524128,0.27220055,9.805935,2,1683969922.8687599
-0.008902958,0.025977125,0.9987778,-0.0010690142,-0.0016798794,-0.00015271631,-0.07524128,0.27220055,9.805935,2,1683969922.8790205
-0.0070126047,0.027440626,1.0017048,-0.0010690142,-0.0016798794,-0.00015271631,-0.07524128,0.27220055,9.805935,2,1683969922.889237
-0.0070126047,0.027440626,1.0017048,-0.0010690142,-0.0016798794,-0.00015271631,-0.07535702,0.27226365,9.805932,2,1683969922.8994322
-0.0070126047,0.027440626,1.0017048,-0.0010690142,-0.0016798794,-0.00015271631,-0.075217955,0.27232766,9.805931,2,1683969922.9147842
-0.0070126047,0.027440626,1.0017048,-0.0022907446,0.0032070426,-0.0025961774,-0.075217955,0.27232766,9.805931,2,1683969922.9199176
-0.0064637917,0.028904125,0.9992657,-0.0022907446,0.0032070426,-0.0025961774,-0.075217955,0.27232766,9.805931,2,1683969922.930179
-0.0064637917,0.028904125,0.9992657,0.0013744468,0.001985312,0.0022907446,-0.075417034,0.2722122,9.805933,2,1683969922.9404716
-0.0069516255,0.02792846,0.9992657,-0.0035124752,0.001985312,0.0010690142,-0.07683429,0.2726565,9.80591,2,1683969922.9456456
-0.0069516255,0.028904125,0.9987778,0.00015271631,0.001985312,-0.00015271631,-0.076902986,0.27257112,9.805911,2,1683969922.950835
-0.0069516255,0.028904125,0.9987778,0.00015271631,0.001985312,-0.00015271631,-0.07703335,0.27263993,9.805908,2,1683969922.9662106
-0.0069516255,0.028904125,0.9987778,0.00015271631,-0.00045814895,0.0010690142,-0.07703335,0.27263993,9.805908,2,1683969922.9764361
-0.009390792,0.025977125,0.9963996,0.00015271631,-0.00045814895,0.0010690142,-0.07703335,0.27263993,9.805908,2,1683969922.9815679
-0.009390792,0.025977125,0.9963996,-0.0010690142,0.001985312,0.0010690142,-0.07703335,0.27263993,9.805908,2,1683969923.0020964
-0.008415125,0.02792846,0.99829,-0.0010690142,0.001985312,0.0010690142,-0.07703335,0.27263993,9.805908,2,1683969923.0072036
-0.008415125,0.02792846,0.99829,-0.0010690142,0.001985312,0.0010690142,-0.07713885,0.27258694,9.805909,2,1683969923.0123365
-0.008963938,0.02841629,1.0002413,-0.0010690142,0.001985312,0.0010690142,-0.07713885,0.27258694,9.805909,2,1683969923.0379953
-0.008963938,0.02841629,1.0002413,0.00015271631,-0.00045814895,-0.00015271631,-0.07713885,0.27258694,9.805909,2,1683969923.048268
-0.008963938,0.02841629,1.0002413,0.00015271631,-0.00045814895,-0.00015271631,-0.077242665,0.27262375,9.805907,2,1683969923.0534003
-0.008963938,0.02841629,1.0002413,-0.0022907446,-0.004276057,-0.0013744468,-0.077242665,0.27262375,9.805907,2,1683969923.073877
-0.009451771,0.02792846,1.0002413,-0.0022907446,-0.004276057,-0.0013744468,-0.077242665,0.27262375,9.805907,2,1683969923.0841434
-0.009451771,0.02792846,1.0002413,-0.0022907446,-0.004276057,-0.0013744468,-0.07714032,0.27269846,9.805905,2,1683969923.0944135
-0.009451771,0.02792846,1.0002413,-0.0022907446,-0.004276057,-0.0013744468,-0.07707571,0.2725968,9.805909,2,1683969923.1200652
-0.009451771,0.02792846,1.0002413,0.0013744468,0.004428773,-0.00015271631,-0.07707571,0.2725968,9.805909,2,1683969923.1251972
-0.0074394583,0.027440626,0.9973753,0.0013744468,0.004428773,-0.00015271631,-0.07707571,0.2725968,9.805909,2,1683969923.13033
-0.0074394583,0.027440626,0.9973753,0.0013744468,0.004428773,-0.00015271631,-0.077086546,0.27275267,9.805905,2,1683969923.1559849
-0.0074394583,0.027440626,0.9973753,0.00015271631,-0.00045814895,0.0010690142,-0.077086546,0.27275267,9.805905,2,1683969923.1611183
-0.0074394583,0.027440626,0.9973753,0.0025961774,-0.0053450707,-0.0,-0.077086546,0.27275267,9.805905,2,1683969923.1662517
-0.005488125,0.029391957,0.99396044,0.0025961774,-0.0053450707,-0.0,-0.077086546,0.27275267,9.805905,2,1683969923.1713436
-0.005488125,0.029391957,0.99396044,0.0025961774,-0.0053450707,-0.0,-0.0748254,0.27590957,9.805834,2,1683969923.176476
-0.005488125,0.029391957,0.99396044,0.0025961774,-0.0053450707,-0.0,-0.07445839,0.27620742,9.805828,2,1683969923.1918707
-0.006524771,0.028904125,0.9997535,0.0025961774,-0.0053450707,-0.0,-0.07445839,0.27620742,9.805828,2,1683969923.1970031
-0.006524771,0.028904125,0.9997535,0.0038179078,-0.00290161,0.0012217305,-0.07445839,0.27620742,9.805828,2,1683969923.202136
