acc_x,acc_y,acc_z,gyr_x,gyr_y,gyr_z,grav_x,grav_y,grav_z,label,timestamp
-0.0074394583,0.027440626,0.9949361,0.0025961774,-0.004428773,-0.0025961774,-0.07349958,0.26857775,9.806047,2,1683969903.34957
-0.0074394583,0.027440626,0.9949361,0.0025961774,-0.004428773,-0.0025961774,-0.07336216,0.26863897,9.806047,2,1683969903.4353828
-0.007378479,0.025977125,0.99060655,0.0038179078,0.00045814895,0.0009162979,-0.073066466,0.26901233,9.806039,2,1683969903.44057
-0.007378479,0.025977125,0.99060655,0.0038179078,-0.001985312,-0.00030543262,-0.073066466,0.26901233,9.806039,2,1683969903.45083
-0.007378479,0.025977125,0.99060655,0.0038179078,-0.001985312,-0.00030543262,-0.07284293,0.26928595,9.806034,2,1683969903.4713433
-0.007378479,0.025977125,0.99060655,0.0025961774,-0.00076358154,-0.00030543262,-0.07284293,0.26928595,9.806034,2,1683969903.4816203
-0.008598062,0.02414775,1.0182302,0.0025961774,-0.00076358154,-0.00030543262,-0.07284293,0.26928595,9.806034,2,1683969903.4867492
-0.008598062,0.02414775,1.0182302,-0.0010690142,0.0053450707,-0.00030543262,-0.07284293,0.26928595,9.806034,2,1683969903.512323
-0.010061563,0.02555027,1.0143275,-0.0010690142,0.0053450707,-0.00030543262,-0.07284293,0.26928595,9.806034,2,1683969903.5174549
-0.010061563,0.02555027,1.0143275,-0.0010690142,0.0053450707,-0.00030543262,-0.073081136,0.269301,9.80603,2,1683969903.5225856
-0.005488125,0.02646496,0.9945092,-0.0010690142,0.0053450707,-0.00030543262,-0.073081136,0.269301,9.80603,2,1683969903.537974
-0.005488125,0.02646496,0.9945092,-0.0047342055,0.0053450707,0.0009162979,-0.073081136,0.269301,9.80603,2,1683969903.5532815
-0.005488125,0.02646496,0.9945092,-0.0047342055,0.0053450707,0.0009162979,-0.07326183,0.26906067,9.806036,2,1683969903.5584157
-0.005488125,0.02646496,0.9945092,0.00015271631,0.00045814895,0.0021380284,-0.07326183,0.26906067,9.806036,2,1683969903.5738032
-0.005488125,0.02646496,0.9945092,0.00015271631,0.00045814895,0.0021380284,-0.073317446,0.2687605,9.806045,2,1683969903.5840418
-0.005854,0.029757833,0.9799352,0.00015271631,0.00045814895,0.0021380284,-0.073317446,0.2687605,9.806045,2,1683969903.5942614
-0.005854,0.029757833,0.9799352,0.00015271631,0.00045814895,0.0021380284,-0.07335212,0.2688513,9.806042,2,1683969903.6096184
-0.007378479,0.02933098,0.9857892,0.00015271631,0.00045814895,0.0021380284,-0.07335212,0.2688513,9.806042,2,1683969903.6147513
-0.007378479,0.02933098,0.9857892,0.0038179078,0.00045814895,-0.0015271631,-0.07335212,0.2688513,9.806042,2,1683969903.625003
-0.007073583,0.026525937,1.0090222,0.0038179078,0.00045814895,-0.0015271631,-0.07335212,0.2688513,9.806042,2,1683969903.6505797
-0.007073583,0.026525937,1.0090222,0.0038179078,0.00045814895,-0.0015271631,-0.07340681,0.26946667,9.806025,2,1683969903.6557171
-0.007073583,0.026525937,1.0090222,0.0025961774,-0.001985312,-0.00030543262,-0.07340681,0.26946667,9.806025,2,1683969903.6608455
-0.007561417,0.02841629,1.0090222,0.0025961774,-0.001985312,-0.00030543262,-0.07340681,0.26946667,9.806025,2,1683969903.6762443
-0.007561417,0.02841629,1.0090222,0.0025961774,-0.001985312,-0.00030543262,-0.07338167,0.26961032,9.80602,2,1683969903.6967666
-0.007561417,0.02841629,1.0090222,0.0025961774,-0.001985312,-0.00030543262,-0.073462166,0.26993278,9.80601,2,1683969903.7121592
-0.007561417,0.02841629,1.0090222,0.0025961774,0.0016798794,-0.00030543262,-0.073462166,0.26993278,9.80601,2,1683969903.7326653
-0.010854292,0.027379647,0.99396044,0.0025961774,0.0016798794,-0.00030543262,-0.073462166,0.26993278,9.80601,2,1683969903.7378013
-0.010854292,0.027379647,0.99396044,0.0025961774,-0.001985312,0.0021380284,-0.073462166,0.26993278,9.80601,2,1683969903.7480643
-0.009817646,0.025489293,0.99109435,0.0025961774,-0.001985312,0.0021380284,-0.073462166,0.26993278,9.80601,2,1683969903.7531981
-0.009817646,0.025489293,0.99109435,0.0025961774,-0.001985312,0.0021380284,-0.073362835,0.2699374,9.806011,2,1683969903.7583265
-0.009817646,0.025489293,0.99109435,0.0025961774,-0.00076358154,-0.00030543262,-0.073362835,0.2699374,9.806011,2,1683969903.7992594
-0.009817646,0.025489293,0.99109435,0.0025961774,-0.00076358154,-0.00030543262,-0.07332449,0.2701268,9.806006,2,1683969903.8043847
-0.007927292,0.027440626,0.9988388,0.0025961774,-0.00076358154,-0.00030543262,-0.07332449,0.2701268,9.806006,2,1683969903.8095152
-0.007927292,0.027440626,0.9988388,0.0013744468,0.001985312,-0.00030543262,-0.07332449,0.2701268,9.806006,2,1683969903.8249116
-0.007561417,0.027501604,1.0080466,0.0013744468,0.001985312,-0.00030543262,-0.07332449,0.2701268,9.806006,2,1683969903.8402915
-0.007561417,0.027501604,1.0080466,0.0013744468,0.001985312,-0.00030543262,-0.0733233,0.27038786,9.805999,2,1683969903.845396
-0.007561417,0.027501604,1.0080466,0.00015271631,-0.00045814895,-0.00030543262,-0.0733233,0.27038786,9.805999,2,1683969903.8556068
-0.005061271,0.028904125,1.0032293,0.00015271631,-0.00045814895,-0.00030543262,-0.0733233,0.27038786,9.805999,2,1683969903.8658285
-0.005061271,0.028904125,1.0032293,0.00015271631,-0.00045814895,-0.00030543262,-0.073134184,0.27053735,9.805996,2,1683969903.8709507
-0.005000292,0.031282313,0.9973753,0.00015271631,-0.00045814895,-0.00030543262,-0.073134184,0.27053735,9.805996,2,1683969903.8914664
-0.005000292,0.031282313,0.9973753,0.0013744468,-0.0016798794,0.0021380284,-0.073134184,0.27053735,9.805996,2,1683969903.8965824
-0.005000292,0.031282313,0.9973753,0.0013744468,-0.0016798794,0.0021380284,-0.072844006,0.27060127,9.805997,2,1683969903.9119704
-0.005000292,0.028904125,0.9968874,0.0013744468,-0.0016798794,0.0021380284,-0.072844006,0.27060127,9.805997,2,1683969903.937581
-0.005000292,0.028904125,0.9968874,-0.0010690142,-0.0016798794,-0.00030543262,-0.072844006,0.27060127,9.805997,2,1683969903.9427147
-0.005000292,0.028904125,0.9968874,-0.0010690142,-0.0016798794,-0.00030543262,-0.07292316,0.2705946,9.805997,2,1683969903.9478505
-0.005549104,0.02792846,1.0017658,-0.0010690142,-0.0016798794,-0.00030543262,-0.07292316,0.2705946,9.805997,2,1683969903.9581032
-0.005549104,0.02792846,1.0017658,-0.0010690142,-0.0016798794,-0.00030543262,-0.072849356,0.270539,9.805999,2,1683969903.9683287
-0.005549104,0.02792846,1.0017658,0.00015271631,0.0032070426,-0.00030543262,-0.072849356,0.270539,9.805999,2,1683969903.9734654
-0.005549104,0.02792846,1.0017658,0.00015271631,0.0032070426,-0.00030543262,-0.07295954,0.27066997,9.805994,2,1683969903.993978
-0.005549104,0.02792846,1.0017658,-0.0022907446,0.00076358154,-0.00030543262,-0.07295954,0.27066997,9.805994,2,1683969904.0042434
-0.0060369377,0.030855458,1.0031683,-0.0022907446,0.00076358154,-0.00030543262,-0.07295954,0.27066997,9.805994,2,1683969904.009331
-0.0075004376,0.029879792,1.0026805,-0.0022907446,0.00076358154,-0.00030543262,-0.07295954,0.27066997,9.805994,2,1683969904.0298588
-0.0075004376,0.029879792,1.0026805,-0.0022907446,-0.0018325958,-0.0015271631,-0.07295954,0.27066997,9.805994,2,1683969904.0349889
-0.0075004376,0.029879792,1.0026805,-0.0022907446,-0.0018325958,-0.0015271631,-0.07297954,0.27072674,9.805993,2,1683969904.0503392
-0.007927292,0.02646496,0.9963996,-0.0022907446,-0.0018325958,-0.0015271631,-0.07297954,0.27072674,9.805993,2,1683969904.0656888
-0.007927292,0.02646496,0.9963996,-0.0022907446,-0.0018325958,-0.0015271631,-0.07308133,0.27043155,9.806,2,1683969904.0707855
-0.007927292,0.02646496,0.9963996,-0.0022907446,0.00076358154,-0.00030543262,-0.07308133,0.27043155,9.806,2,1683969904.0758781
-0.007927292,0.02646496,0.9963996,0.00015271631,0.00076358154,-0.00030543262,-0.07308133,0.27043155,9.806,2,1683969904.101431
-0.009878625,0.02792846,0.9959117,0.00015271631,0.00076358154,-0.00030543262,-0.07308133,0.27043155,9.806,2,1683969904.1219842
-0.009878625,0.02792846,0.9959117,0.00015271631,0.00076358154,-0.00030543262,-0.073112234,0.27029082,9.806004,2,1683969904.1322482
-0.009878625,0.02792846,0.9959117,0.00015271631,0.00076358154,-0.00030543262,-0.073117964,0.27013525,9.806008,2,1683969904.1526873
-0.009878625,0.02792846,0.9959117,-0.0010690142,0.0032070426,-0.00030543262,-0.073117964,0.27013525,9.806008,2,1683969904.157819
-0.010915271,0.02792846,0.9992657,-0.0010690142,0.0032070426,-0.00030543262,-0.073117964,0.27013525,9.806008,2,1683969904.1629512
-0.010915271,0.02792846,0.9992657,0.00015271631,0.00076358154,-0.0015271631,-0.073117964,0.27013525,9.806008,2,1683969904.178333
-0.011342125,0.025489293,0.9954239,0.00015271631,0.00076358154,-0.0015271631,-0.073117964,0.27013525,9.806008,2,1683969904.1885867
-0.011342125,0.025489293,0.9954239,0.00015271631,0.00076358154,-0.0015271631,-0.07314207,0.2701244,9.806008,2,1683969904.2039716
-0.011342125,0.025977125,0.9968874,0.00015271631,0.00076358154,-0.0015271631,-0.07314207,0.2701244,9.806008,2,1683969904.214229
-0.011342125,0.025977125,0.9968874,0.0013744468,0.004428773,0.0009162979,-0.07314207,0.2701244,9.806008,2,1683969904.2244499
-0.011342125,0.025977125,0.9968874,0.0013744468,0.004428773,0.0009162979,-0.07318366,0.27009717,9.806008,2,1683969904.234716
-0.011342125,0.025977125,0.9968874,0.00015271631,0.00076358154,0.0009162979,-0.07318366,0.27009717,9.806008,2,1683969904.2602358
-0.010854292,0.025001459,0.9954239,0.00015271631,0.00076358154,0.0009162979,-0.07318366,0.27009717,9.806008,2,1683969904.2653098
-0.010854292,0.025001459,0.9954239,0.00015271631,0.00076358154,0.0009162979,-0.07332784,0.27015048,9.8060055,2,1683969904.2755315
-0.009390792,0.024025792,0.9993266,0.00015271631,0.00076358154,0.0009162979,-0.07332784,0.27015048,9.8060055,2,1683969904.3010805
-0.009390792,0.024025792,0.9993266,0.0025961774,-0.00290161,0.0009162979,-0.07332784,0.27015048,9.8060055,2,1683969904.3062122
-0.009390792,0.024025792,0.9993266,0.0025961774,-0.00290161,0.0009162979,-0.07337034,0.2702754,9.806002,2,1683969904.311303
-0.009390792,0.024025792,0.9993266,0.0025961774,-0.00290161,0.0009162979,-0.07339455,0.27053168,9.805994,2,1683969904.3266995
-0.0075004376,0.025977125,1.0007901,0.0025961774,-0.00290161,0.0009162979,-0.07339455,0.27053168,9.805994,2,1683969904.3318331
-0.0075004376,0.025977125,1.0007901,0.0038179078,-0.00290161,-0.00030543262,-0.07339455,0.27053168,9.805994,2,1683969904.342087
-0.0075004376,0.025977125,1.0007901,0.0038179078,-0.00290161,-0.00030543262,-0.07312856,0.27085575,9.805988,2,1683969904.357445
-0.005549104,0.02841629,0.9998144,0.0038179078,-0.00290161,-0.00030543262,-0.07312856,0.27085575,9.805988,2,1683969904.3677049
-0.005549104,0.02841629,0.9998144,-0.0010690142,-0.0016798794,-0.00030543262,-0.07312856,0.27085575,9.805988,2,1683969904.3831005
-0.005549104,0.02841629,0.9998144,-0.0010690142,-0.0016798794,-0.00030543262,-0.07298603,0.27111033,9.805983,2,1683969904.393351
-0.005549104,0.02841629,0.9998144,0.0038179078,-0.00045814895,0.0009162979,-0.07298603,0.27111033,9.805983,2,1683969904.403612
-0.0060369377,0.031831127,1.0007901,0.0038179078,-0.00045814895,0.0009162979,-0.07298603,0.27111033,9.805983,2,1683969904.4087343
-0.0060369377,0.031831127,1.0007901,0.0013744468,0.00076358154,-0.00030543262,-0.07298603,0.27111033,9.805983,2,1683969904.4395177
-0.0060369377,0.031831127,1.0007901,0.0013744468,0.00076358154,-0.00030543262,-0.07300858,0.2712272,9.805978,2,1683969904.4446518
-0.0064637917,0.028904125,0.998351,0.0013744468,0.00076358154,-0.00030543262,-0.07300858,0.2712272,9.805978,2,1683969904.449781
-0.0060369377,0.030367626,1.0007901,0.0013744468,0.00076358154,-0.00030543262,-0.07300858,0.2712272,9.805978,2,1683969904.4651663
-0.0060369377,0.030367626,1.0007901,0.00015271631,-0.0016798794,0.0009162979,-0.07300858,0.2712272,9.805978,2,1683969904.4805293
-0.0060369377,0.030367626,1.0007901,0.00015271631,-0.0016798794,0.0009162979,-0.07295122,0.27151316,9.805971,2,1683969904.4856606
-0.0060369377,0.030367626,1.0007901,0.00015271631,-0.0016798794,0.0009162979,-0.07272097,0.27163038,9.805969,2,1683969904.5061853
-0.0060369377,0.030367626,1.0007901,0.0013744468,-0.00045814895,0.0021380284,-0.07272097,0.27163038,9.805969,2,1683969904.5112762
-0.00798827,0.029879792,1.0007901,0.0013744468,-0.00045814895,0.0021380284,-0.07272097,0.27163038,9.805969,2,1683969904.526665
-0.00798827,0.029879792,1.0007901,0.0013744468,-0.00045814895,0.0021380284,-0.072731845,0.27168134,9.805968,2,1683969904.5368886
-0.00798827,0.029879792,1.0007901,-0.0010690142,0.001985312,0.0009162979,-0.072731845,0.27168134,9.805968,2,1683969904.5420265
-0.0059759584,0.029879792,0.9993266,-0.0010690142,0.001985312,0.0009162979,-0.072731845,0.27168134,9.805968,2,1683969904.5574176
-0.0059759584,0.029879792,0.9993266,-0.0010690142,0.001985312,0.0009162979,-0.07285854,0.27168173,9.805967,2,1683969904.577936
-0.006524771,0.02792846,1.0003022,-0.0010690142,0.001985312,0.0009162979,-0.07285854,0.27168173,9.805967,2,1683969904.5830646
-0.006524771,0.02792846,1.0003022,0.0013744468,0.001985312,-0.00030543262,-0.07285854,0.27168173,9.805967,2,1683969904.5933235
-0.009939604,0.027440626,1.0003022,0.0013744468,0.001985312,-0.00030543262,-0.07285854,0.27168173,9.805967,2,1683969904.6087136
-0.009939604,0.027440626,1.0003022,-0.0010690142,-0.0016798794,0.0009162979,-0.07285854,0.27168173,9.805967,2,1683969904.6189704
-0.009939604,0.027440626,1.0003022,-0.0010690142,-0.0016798794,0.0009162979,-0.07267808,0.27165508,9.805969,2,1683969904.6240978
-0.009939604,0.027440626,1.0003022,0.00015271631,-0.0041233404,-0.00030543262,-0.07267808,0.27165508,9.805969,2,1683969904.6497262
-0.008902958,0.02841629,0.9993266,0.00015271631,-0.0041233404,-0.00030543262,-0.07267808,0.27165508,9.805969,2,1683969904.6651163
-0.008902958,0.02841629,0.9993266,0.00015271631,-0.0041233404,-0.00030543262,-0.07268797,0.27160016,9.80597,2,1683969904.6702487
-0.008415125,0.025001459,0.9959117,0.00015271631,-0.0041233404,-0.00030543262,-0.07268797,0.27160016,9.80597,2,1683969904.6907558
-0.008415125,0.025001459,0.9959117,0.00015271631,-0.0041233404,-0.00030543262,-0.07262199,0.2714137,9.805976,2,1683969904.6958876
-0.008415125,0.025001459,0.9959117,0.00015271631,-0.00290161,-0.00030543262,-0.07262199,0.2714137,9.805976,2,1683969904.701021
-0.008415125,0.025001459,0.9959117,0.00015271631,-0.00290161,-0.00030543262,-0.07257864,0.27130023,9.80598,2,1683969904.731747
-0.008415125,0.025001459,0.9959117,-0.0010690142,-0.00045814895,-0.00030543262,-0.07257864,0.27130023,9.80598,2,1683969904.7368708
-0.0074394583,0.02695279,0.9963996,-0.0010690142,-0.00045814895,-0.00030543262,-0.07257864,0.27130023,9.80598,2,1683969904.7419944
-0.0074394583,0.02695279,0.9963996,0.0013744468,-0.0016798794,-0.00030543262,-0.07257864,0.27130023,9.80598,2,1683969904.7573798
-0.0074394583,0.024513626,0.9998144,0.0013744468,-0.0016798794,-0.00030543262,-0.07257864,0.27130023,9.80598,2,1683969904.762511
-0.0074394583,0.024513626,0.9998144,0.0013744468,-0.0016798794,-0.00030543262,-0.0727467,0.27122018,9.805981,2,1683969904.7676415
-0.007927292,0.025489293,0.9993266,0.0013744468,-0.0016798794,-0.00030543262,-0.0727467,0.27122018,9.805981,2,1683969904.7932754
-0.007927292,0.025489293,0.9993266,0.0013744468,-0.0016798794,-0.00030543262,-0.07287152,0.27126712,9.805979,2,1683969904.7984097
-0.007927292,0.025489293,0.9993266,-0.0010690142,-0.00045814895,-0.0015271631,-0.07287152,0.27126712,9.805979,2,1683969904.8137999
-0.0069516255,0.02695279,0.9978631,-0.0010690142,-0.00045814895,-0.0015271631,-0.07287152,0.27126712,9.805979,2,1683969904.8189294
-0.0069516255,0.02695279,0.9978631,-0.0010690142,-0.00045814895,-0.0015271631,-0.072874494,0.27122286,9.80598,2,1683969904.824073
-0.0069516255,0.02695279,0.9978631,0.0013744468,0.001985312,-0.00030543262,-0.072874494,0.27122286,9.80598,2,1683969904.839419
-0.0069516255,0.02695279,0.9978631,0.00015271631,-0.0016798794,-0.00030543262,-0.072874494,0.27122286,9.80598,2,1683969904.8598568
-0.00798827,0.02646496,1.0003022,0.00015271631,-0.0016798794,-0.00030543262,-0.072874494,0.27122286,9.80598,2,1683969904.870076
-0.00798827,0.02646496,1.0003022,0.00015271631,-0.0016798794,-0.00030543262,-0.0728093,0.27128065,9.805979,2,1683969904.8803034
-0.007927292,0.025977125,0.9978631,0.00015271631,-0.0016798794,-0.00030543262,-0.0728093,0.27128065,9.805979,2,1683969904.8905616
-0.007927292,0.025977125,0.9978631,0.00015271631,-0.00045814895,-0.0015271631,-0.0728093,0.27128065,9.805979,2,1683969904.9059112
-0.007927292,0.025977125,0.9978631,0.00015271631,-0.00045814895,-0.0015271631,-0.07279063,0.27114716,9.805983,2,1683969904.9110432
-0.007927292,0.025977125,0.9978631,0.0013744468,0.00076358154,0.0009162979,-0.07279063,0.27114716,9.805983,2,1683969904.9315634
-0.007927292,0.025977125,0.9978631,0.0013744468,0.00076358154,0.0009162979,-0.07274084,0.2711455,9.805983,2,1683969904.936688
-0.0069516255,0.025001459,0.9978631,0.0013744468,0.00076358154,0.0009162979,-0.07274084,0.2711455,9.805983,2,1683969904.9520373
-0.008415125,0.025001459,0.998351,0.0013744468,0.00076358154,0.0009162979,-0.07274084,0.2711455,9.805983,2,1683969904.9673865
-0.008415125,0.025001459,0.998351,0.0038179078,-0.0016798794,-0.00030543262,-0.07274084,0.2711455,9.805983,2,1683969904.97252
-0.008415125,0.025001459,0.998351,0.0038179078,-0.0016798794,-0.00030543262,-0.072798274,0.27130184,9.805978,2,1683969904.9878638
-0.008415125,0.025001459,0.998351,0.0038179078,-0.0016798794,-0.00030543262,-0.07280926,0.27151704,9.805972,2,1683969904.9981217
-0.009451771,0.028904125,1.0003022,0.0038179078,-0.0016798794,-0.00030543262,-0.07280926,0.27151704,9.805972,2,1683969905.008315
-0.009451771,0.028904125,1.0003022,0.0025961774,-0.00045814895,0.0021380284,-0.07280926,0.27151704,9.805972,2,1683969905.0134487
-0.0074394583,0.027440626,0.9993266,0.0025961774,-0.00045814895,0.0021380284,-0.07280926,0.27151704,9.805972,2,1683969905.0441513
-0.0074394583,0.027440626,0.9993266,0.0025961774,-0.00045814895,0.0021380284,-0.072703324,0.27160442,9.80597,2,1683969905.0544126
-0.0074394583,0.027440626,0.9993266,0.0013744468,-0.0016798794,-0.0015271631,-0.072703324,0.27160442,9.80597,2,1683969905.0595434
-0.0074394583,0.027440626,0.9993266,0.0013744468,-0.00290161,0.0021380284,-0.072703324,0.27160442,9.80597,2,1683969905.0800233
-0.008476105,0.025001459,1.0007901,0.0013744468,-0.00290161,0.0021380284,-0.072703324,0.27160442,9.80597,2,1683969905.090291
-0.008476105,0.025001459,1.0007901,0.0013744468,-0.00290161,0.0021380284,-0.07265483,0.2717903,9.805965,2,1683969905.0954149
-0.008476105,0.025001459,1.0007901,0.00015271631,-0.00045814895,0.0009162979,-0.07265483,0.2717903,9.805965,2,1683969905.1005485
-0.008476105,0.025001459,1.0007901,0.00015271631,-0.00045814895,0.0009162979,-0.0724281,0.27201268,9.805961,2,1683969905.1210735
-0.0064637917,0.028904125,0.9978631,0.00015271631,-0.00045814895,0.0009162979,-0.0724281,0.27201268,9.805961,2,1683969905.1262064
-0.0064637917,0.028904125,0.9978631,0.0013744468,-0.0016798794,-0.0015271631,-0.0724281,0.27201268,9.805961,2,1683969905.1313004
-0.0069516255,0.025489293,0.9988388,0.0013744468,-0.0016798794,-0.0015271631,-0.0724281,0.27201268,9.805961,2,1683969905.1415677
-0.0069516255,0.025489293,0.9988388,0.0013744468,-0.0016798794,-0.0015271631,-0.0735981,0.2710958,9.805978,2,1683969905.1518288
-0.0069516255,0.025489293,0.9988388,0.0013744468,-0.0016798794,-0.0015271631,-0.07350026,0.2710993,9.805978,2,1683969905.1877115
-0.0070126047,0.025977125,1.0032293,0.0013744468,-0.0016798794,-0.0015271631,-0.07350026,0.2710993,9.805978,2,1683969905.19284
-0.0070126047,0.025977125,1.0032293,-0.0035124752,-0.00061086525,-0.00030543262,-0.07350026,0.2710993,9.805978,2,1683969905.1979704
-0.0070126047,0.025977125,1.0032293,-0.0035124752,-0.00061086525,-0.00030543262,-0.07353123,0.27089614,9.805984,2,1683969905.2236218
-0.0070126047,0.025977125,1.0032293,0.00015271631,0.001985312,-0.00030543262,-0.07353123,0.27089614,9.805984,2,1683969905.228753
-0.0075004376,0.02841629,1.0022537,0.00015271631,0.001985312,-0.00030543262,-0.07353123,0.27089614,9.805984,2,1683969905.2338853
-0.0075004376,0.02841629,1.0022537,0.00015271631,0.0032070426,-0.00030543262,-0.07353123,0.27089614,9.805984,2,1683969905.2492754
-0.0075004376,0.02841629,1.0022537,0.00015271631,0.0032070426,-0.00030543262,-0.07356689,0.27090234,9.805984,2,1683969905.2544007
-0.006524771,0.031343292,0.9998144,0.00015271631,0.0032070426,-0.00030543262,-0.07356689,0.27090234,9.805984,2,1683969905.2646544
-0.006524771,0.031343292,0.9998144,0.00015271631,0.0032070426,-0.00030543262,-0.07365042,0.2709299,9.805982,2,1683969905.2851639
-0.006524771,0.031343292,0.9998144,-0.0047342055,-0.0018325958,-0.00030543262,-0.07365042,0.2709299,9.805982,2,1683969905.2902932
-0.0035977708,0.032745812,0.9993266,-0.0047342055,-0.0018325958,-0.00030543262,-0.07365042,0.2709299,9.805982,2,1683969905.3056486
-0.005549104,0.03225798,0.9998144,-0.0047342055,-0.0018325958,-0.00030543262,-0.07365042,0.2709299,9.805982,2,1683969905.3261337
-0.005549104,0.03225798,0.9998144,-0.0010690142,0.001985312,0.0009162979,-0.07365042,0.2709299,9.805982,2,1683969905.3312027
-0.005549104,0.03225798,0.9998144,-0.0010690142,0.001985312,0.0009162979,-0.07362904,0.27078852,9.805986,2,1683969905.3414497
-0.005549104,0.03225798,0.9998144,-0.0010690142,0.001985312,0.0009162979,-0.07366497,0.27081627,9.805985,2,1683969905.3568401
-0.0060369377,0.030855458,1.0007291,-0.0010690142,0.001985312,0.0009162979,-0.07366497,0.27081627,9.805985,2,1683969905.3619728
-0.0060369377,0.030855458,1.0007291,0.00015271631,-0.00290161,0.0009162979,-0.07366497,0.27081627,9.805985,2,1683969905.372199
-0.008476105,0.029879792,1.0046318,0.00015271631,-0.00290161,0.0009162979,-0.07366497,0.27081627,9.805985,2,1683969905.4029558
-0.008476105,0.029879792,1.0046318,0.00015271631,-0.00290161,0.0009162979,-0.07371253,0.27064258,9.805989,2,1683969905.4080904
-0.008476105,0.029879792,1.0046318,0.00015271631,0.001985312,-0.0015271631,-0.07371253,0.27064258,9.805989,2,1683969905.4132206
-0.008476105,0.029879792,1.0046318,0.00015271631,0.001985312,-0.0015271631,-0.07359394,0.26840982,9.806052,2,1683969905.418352
-0.008902958,0.02792846,0.9963996,0.00015271631,0.001985312,-0.0015271631,-0.07359394,0.26840982,9.806052,2,1683969905.4388425
-0.008902958,0.02792846,0.9963996,0.0038179078,-0.00045814895,-0.00030543262,-0.07359394,0.26840982,9.806052,2,1683969905.443973
-0.008902958,0.02792846,0.9963996,0.0038179078,-0.00045814895,-0.00030543262,-0.07373151,0.26839083,9.806051,2,1683969905.4644105
-0.0069516255,0.02933098,0.99304575,0.0038179078,-0.00045814895,-0.00030543262,-0.07373151,0.26839083,9.806051,2,1683969905.4797673
-0.0069516255,0.02933098,0.99304575,0.0038179078,-0.00045814895,-0.00030543262,-0.073867686,0.26855323,9.806046,2,1683969905.4848983
-0.0069516255,0.02933098,0.99304575,0.00015271631,-0.0016798794,-0.0015271631,-0.073867686,0.26855323,9.806046,2,1683969905.500278
-0.0045124586,0.032745812,0.9963996,0.00015271631,-0.0016798794,-0.0015271631,-0.073867686,0.26855323,9.806046,2,1683969905.5105455
-0.0045124586,0.032745812,0.9963996,0.0013744468,0.001985312,-0.0027488936,-0.073867686,0.26855323,9.806046,2,1683969905.53106
-0.0045124586,0.032745812,0.9963996,0.0013744468,0.001985312,-0.0027488936,-0.07369706,0.26870993,9.806043,2,1683969905.5361946
-0.005061271,0.03280679,1.0022537,0.0013744468,0.001985312,-0.0027488936,-0.07369706,0.26870993,9.806043,2,1683969905.5515866
-0.005061271,0.03280679,1.0022537,0.0013744468,0.001985312,-0.0027488936,-0.07364005,0.26897782,9.806036,2,1683969905.5567179
-0.005061271,0.03280679,1.0022537,0.0013744468,-0.0016798794,0.0009162979,-0.07364005,0.26897782,9.806036,2,1683969905.572108
-0.00798827,0.032745812,1.0003022,0.0013744468,-0.0016798794,0.0009162979,-0.07364005,0.26897782,9.806036,2,1683969905.5875065
-0.00798827,0.032745812,1.0003022,0.0013744468,-0.0016798794,0.0009162979,-0.07346128,0.2692146,9.80603,2,1683969905.6028972
-0.00798827,0.032745812,1.0003022,0.00015271631,0.001985312,-0.00030543262,-0.07346128,0.2692146,9.80603,2,1683969905.6080353
-0.00798827,0.032745812,1.0003022,-0.0010690142,-0.00045814895,-0.0015271631,-0.07346128,0.2692146,9.80603,2,1683969905.6285543
-0.00798827,0.032745812,1.0003022,-0.0010690142,-0.00045814895,-0.0015271631,-0.07348962,0.2693165,9.806027,2,1683969905.6336882
-0.005610083,0.030855458,1.0065831,-0.0010690142,-0.00045814895,-0.0015271631,-0.07348962,0.2693165,9.806027,2,1683969905.64395
-0.0060369377,0.02841629,1.0042049,-0.0010690142,-0.00045814895,-0.0015271631,-0.07348962,0.2693165,9.806027,2,1683969905.6592965
-0.0060369377,0.02841629,1.0042049,-0.0010690142,-0.00045814895,-0.0015271631,-0.0734804,0.2691807,9.806031,2,1683969905.674674
-0.0060369377,0.02841629,1.0042049,0.00015271631,0.00076358154,-0.0015271631,-0.0734804,0.2691807,9.806031,2,1683969905.6798058
-0.0060369377,0.02841629,1.0042049,-0.0035124752,-0.00061086525,0.0009162979,-0.0734804,0.2691807,9.806031,2,1683969905.6849365
-0.008415125,0.02792846,0.9993266,-0.0035124752,-0.00061086525,0.0009162979,-0.0734804,0.2691807,9.806031,2,1683969905.7003088
-0.008415125,0.02792846,0.9993266,0.0013744468,0.0032070426,0.0021380284,-0.0734804,0.2691807,9.806031,2,1683969905.7157073
-0.008415125,0.02792846,0.9993266,0.0013744468,0.0032070426,0.0021380284,-0.073495,0.26842055,9.806052,2,1683969905.720844
-0.0074394583,0.025001459,0.9968874,0.0013744468,0.0032070426,0.0021380284,-0.073495,0.26842055,9.806052,2,1683969905.7464976
-0.0074394583,0.025001459,0.9968874,-0.0010690142,0.001985312,0.0009162979,-0.073495,0.26842055,9.806052,2,1683969905.7516406
-0.0074394583,0.025001459,0.9968874,-0.0010690142,0.001985312,0.0009162979,-0.073626496,0.26818377,9.806058,2,1683969905.7618997
-0.0074394583,0.025001459,0.9968874,-0.0010690142,0.00076358154,0.0009162979,-0.073626496,0.26818377,9.806058,2,1683969905.777242
-0.008415125,0.022562291,0.99396044,-0.0010690142,0.00076358154,0.0009162979,-0.073626496,0.26818377,9.806058,2,1683969905.7823777
-0.008415125,0.022562291,0.99396044,-0.0010690142,0.00076358154,0.0009162979,-0.07366428,0.267942,9.806064,2,1683969905.7875261
-0.008415125,0.022562291,0.99396044,0.00015271631,0.00076358154,0.0009162979,-0.07366428,0.267942,9.806064,2,1683969905.8183093
-0.0074394583,0.024513626,0.9963996,0.00015271631,0.00076358154,0.0009162979,-0.07366428,0.267942,9.806064,2,1683969905.823453
-0.0074394583,0.024513626,0.9963996,0.00015271631,0.00076358154,0.0009162979,-0.07374856,0.26780528,9.806067,2,1683969905.8337235
-0.009390792,0.025977125,0.9988388,0.00015271631,0.00076358154,0.0009162979,-0.07374856,0.26780528,9.806067,2,1683969905.859333
-0.009390792,0.025977125,0.9988388,0.00015271631,-0.0016798794,-0.00030543262,-0.07374856,0.26780528,9.806067,2,1683969905.8644645
-0.009390792,0.025977125,0.9988388,0.00015271631,-0.0016798794,-0.00030543262,-0.07386617,0.26777193,9.806067,2,1683969905.869598
-0.008415125,0.023537958,0.99347264,0.00015271631,-0.0016798794,-0.00030543262,-0.07386617,0.26777193,9.806067,2,1683969905.8849494
-0.008415125,0.023537958,0.99347264,-0.0010690142,-0.0016798794,-0.0015271631,-0.07386617,0.26777193,9.806067,2,1683969905.8900833
-0.008415125,0.023537958,0.99347264,-0.0010690142,-0.0016798794,-0.0015271631,-0.07385939,0.2677062,9.806068,2,1683969905.8951352
-0.008415125,0.023537958,0.99347264,-0.0010690142,-0.0016798794,-0.0015271631,-0.073808126,0.2677914,9.806067,2,1683969905.9207716
-0.008415125,0.023537958,0.99347264,0.00015271631,-0.00045814895,-0.00030543262,-0.073808126,0.2677914,9.806067,2,1683969905.9310372
-0.0069516255,0.025977125,0.9959117,0.00015271631,-0.00045814895,-0.00030543262,-0.073808126,0.2677914,9.806067,2,1683969905.9361691
-0.0075004376,0.027440626,1.0007901,0.00015271631,-0.00045814895,-0.00030543262,-0.073808126,0.2677914,9.806067,2,1683969905.961807
-0.0075004376,0.027440626,1.0007901,0.00015271631,-0.00045814895,-0.00030543262,-0.07460683,0.26782215,9.80606,2,1683969905.9720685
-0.0075004376,0.027440626,1.0007901,-0.0035124752,0.004428773,0.0021380284,-0.07460683,0.26782215,9.80606,2,1683969905.9772027
-0.0075004376,0.027440626,1.0007901,0.0013744468,-0.00045814895,-0.00030543262,-0.07460683,0.26782215,9.80606,2,1683969905.992579
-0.007927292,0.029879792,0.998351,0.0013744468,-0.00045814895,-0.00030543262,-0.07460683,0.26782215,9.80606,2,1683969905.997708
-0.007927292,0.029879792,0.998351,0.0013744468,-0.00045814895,-0.00030543262,-0.07475163,0.26785058,9.806058,2,1683969906.0131009
-0.007927292,0.029879792,0.998351,0.0013744468,-0.00045814895,-0.00030543262,-0.075005844,0.26787984,9.806056,2,1683969906.0489624
-0.00798827,0.02792846,0.9997535,0.0013744468,-0.00045814895,-0.00030543262,-0.075005844,0.26787984,9.806056,2,1683969906.054097
-0.00798827,0.02792846,0.9997535,-0.0035124752,-0.00061086525,-0.00030543262,-0.075005844,0.26787984,9.806056,2,1683969906.059187
-0.00798827,0.02792846,0.9997535,-0.0035124752,-0.00061086525,-0.00030543262,-0.075122364,0.26785597,9.806055,2,1683969906.0745354
-0.00798827,0.02792846,0.9997535,-0.0010690142,0.0032070426,0.0009162979,-0.075122364,0.26785597,9.806055,2,1683969906.0848036
-0.008963938,0.02646496,0.9998144,-0.0010690142,0.0032070426,0.0009162979,-0.075122364,0.26785597,9.806055,2,1683969906.0899384
-0.008963938,0.02646496,0.9998144,0.00015271631,-0.0016798794,-0.00030543262,-0.075122364,0.26785597,9.806055,2,1683969906.1053197
-0.00798827,0.024513626,1.0007901,0.00015271631,-0.0016798794,-0.00030543262,-0.075122364,0.26785597,9.806055,2,1683969906.115584
-0.00798827,0.024513626,1.0007901,0.00015271631,-0.0016798794,-0.00030543262,-0.075334765,0.2676775,9.806059,2,1683969906.1309698
-0.008415125,0.024513626,0.9988388,0.00015271631,-0.0016798794,-0.00030543262,-0.075334765,0.2676775,9.806059,2,1683969906.146351
-0.008415125,0.024513626,0.9988388,0.00015271631,-0.0016798794,-0.00030543262,-0.07536421,0.26754782,9.806062,2,1683969906.1514723
-0.008415125,0.024513626,0.9988388,-0.0010690142,-0.0041233404,0.0009162979,-0.07536421,0.26754782,9.806062,2,1683969906.1566005
-0.008415125,0.024513626,0.9988388,-0.0010690142,-0.0041233404,0.0009162979,-0.07529757,0.26717678,9.806072,2,1683969906.1873403
-0.008902958,0.024513626,0.9959117,-0.0010690142,-0.0041233404,0.0009162979,-0.07529757,0.26717678,9.806072,2,1683969906.192473
-0.008902958,0.024513626,0.9959117,-0.0022907446,-0.0030543262,-0.00030543262,-0.07529757,0.26717678,9.806072,2,1683969906.202729
-0.008902958,0.024513626,0.9959117,0.00015271631,0.004428773,-0.0015271631,-0.07529757,0.26717678,9.806072,2,1683969906.212949
-0.0064637917,0.025489293,0.9945092,0.00015271631,0.004428773,-0.0015271631,-0.07529757,0.26717678,9.806072,2,1683969906.2283237
-0.0064637917,0.025489293,0.9945092,0.00015271631,0.004428773,-0.0015271631,-0.07519519,0.2670503,9.806077,2,1683969906.2385783
-0.006524771,0.030855458,1.0012169,0.00015271631,0.004428773,-0.0015271631,-0.07519519,0.2670503,9.806077,2,1683969906.2539582
-0.006524771,0.030855458,1.0012169,0.00015271631,0.004428773,-0.0015271631,-0.076574475,0.26755524,9.806052,2,1683969906.2641926
-0.0075004376,0.031770147,0.9993266,0.00015271631,0.004428773,-0.0015271631,-0.076574475,0.26755524,9.806052,2,1683969906.274413
-0.0075004376,0.031770147,0.9993266,0.00015271631,0.0056505036,-0.0015271631,-0.076574475,0.26755524,9.806052,2,1683969906.3000128
-0.0075004376,0.031770147,0.9993266,0.00015271631,0.0056505036,-0.0015271631,-0.0765312,0.26751336,9.806053,2,1683969906.3051145
-0.0075004376,0.031770147,0.9993266,-0.0010690142,-0.0016798794,0.0009162979,-0.0765312,0.26751336,9.806053,2,1683969906.3204153
-0.0075004376,0.031770147,0.9993266,-0.0010690142,-0.0016798794,0.0009162979,-0.07673035,0.26760095,9.80605,2,1683969906.325547
-0.0074394583,0.029391957,0.9988388,-0.0010690142,-0.0016798794,0.0009162979,-0.07673035,0.26760095,9.80605,2,1683969906.3358045
-0.0074394583,0.029391957,0.9988388,-0.0022907446,-0.00061086525,-0.0015271631,-0.07673035,0.26760095,9.80605,2,1683969906.346069
-0.0074394583,0.029391957,0.9988388,-0.0022907446,-0.00061086525,-0.0015271631,-0.07672487,0.2675377,9.806051,2,1683969906.3614593
-0.0075004376,0.029391957,0.9993266,-0.0022907446,-0.00061086525,-0.0015271631,-0.07672487,0.2675377,9.806051,2,1683969906.3768046
-0.009939604,0.02792846,0.9993266,-0.0022907446,-0.00061086525,-0.0015271631,-0.07672487,0.2675377,9.806051,2,1683969906.392198
-0.009939604,0.02792846,0.9993266,0.00015271631,0.00076358154,-0.00030543262,-0.07672487,0.2675377,9.806051,2,1683969906.397331
-0.009939604,0.02792846,0.9993266,0.00015271631,0.00076358154,-0.00030543262,-0.076663524,0.26751414,9.806053,2,1683969906.4075685
-0.009939604,0.02792846,0.9993266,-0.0022907446,0.001985312,-0.00030543262,-0.076663524,0.26751414,9.806053,2,1683969906.4279888
-0.008415125,0.02646496,0.9973753,-0.0022907446,0.001985312,-0.00030543262,-0.076663524,0.26751414,9.806053,2,1683969906.4331222
-0.008415125,0.02646496,0.9973753,-0.0022907446,0.001985312,-0.00030543262,-0.076728374,0.26735198,9.806056,2,1683969906.4382513
-0.008415125,0.02646496,0.9973753,0.00015271631,0.00076358154,-0.00030543262,-0.076728374,0.26735198,9.806056,2,1683969906.4536
-0.0074394583,0.02646496,0.9963996,0.00015271631,0.00076358154,-0.00030543262,-0.076728374,0.26735198,9.806056,2,1683969906.458734
-0.0074394583,0.02646496,0.9963996,0.00015271631,0.00076358154,-0.00030543262,-0.07671747,0.2671869,9.806061,2,1683969906.4638665
-0.0074394583,0.02646496,0.9963996,0.00015271631,0.00076358154,-0.00030543262,-0.076777995,0.26715925,9.806061,2,1683969906.4945104
-0.0074394583,0.02646496,0.9963996,0.0013744468,-0.00290161,0.0009162979,-0.076777995,0.26715925,9.806061,2,1683969906.5047677
-0.008476105,0.024025792,1.0003022,0.0013744468,-0.00290161,0.0009162979,-0.076777995,0.26715925,9.806061,2,1683969906.5098608
-0.008476105,0.024025792,1.0003022,0.0013744468,-0.00290161,0.0009162979,-0.076665394,0.2671165,9.806064,2,1683969906.5200622
-0.008476105,0.024025792,1.0003022,0.0013744468,-0.00290161,0.0009162979,-0.07772491,0.26805946,9.806029,2,1683969906.5456538
-0.008476105,0.024025792,1.0003022,0.00015271631,0.00076358154,-0.00030543262,-0.07772491,0.26805946,9.806029,2,1683969906.550783
-0.008902958,0.028904125,0.9973753,0.00015271631,0.00076358154,-0.00030543262,-0.07772491,0.26805946,9.806029,2,1683969906.5712612
-0.008902958,0.028904125,0.9973753,0.00015271631,0.00076358154,-0.00030543262,-0.07768166,0.26812628,9.806027,2,1683969906.5815167
-0.008902958,0.028904125,0.9973753,-0.0010690142,0.00076358154,0.0009162979,-0.07768166,0.26812628,9.806027,2,1683969906.5866404
-0.008902958,0.028904125,0.9973753,0.0013744468,0.00076358154,0.0009162979,-0.07768166,0.26812628,9.806027,2,1683969906.6122038
-0.008902958,0.028904125,0.9973753,0.0013744468,0.00076358154,0.0009162979,-0.077899754,0.268061,9.806027,2,1683969906.6172864
-0.0045124586,0.02646496,0.9988388,0.0013744468,0.00076358154,0.0009162979,-0.077899754,0.268061,9.806027,2,1683969906.6223767
-0.00798827,0.027440626,1.0003022,0.0013744468,0.00076358154,0.0009162979,-0.077899754,0.268061,9.806027,2,1683969906.6377544
-0.00798827,0.027440626,1.0003022,0.0013744468,0.00076358154,0.0009162979,-0.07780114,0.2680491,9.806029,2,1683969906.6530993
-0.00798827,0.027440626,1.0003022,-0.0022907446,-0.0016798794,0.0009162979,-0.07780114,0.2680491,9.806029,2,1683969906.6582289
-0.00798827,0.027440626,1.0003022,-0.0010690142,0.001985312,-0.00030543262,-0.07780114,0.2680491,9.806029,2,1683969906.6735616
-0.007927292,0.02646496,0.9973753,-0.0010690142,0.001985312,-0.00030543262,-0.07780114,0.2680491,9.806029,2,1683969906.6786935
-0.007927292,0.02646496,0.9973753,-0.0010690142,0.001985312,-0.00030543262,-0.07797179,0.26795086,9.80603,2,1683969906.688911
-0.0069516255,0.025489293,0.9978631,-0.0010690142,0.001985312,-0.00030543262,-0.07797179,0.26795086,9.80603,2,1683969906.7195807
-0.0069516255,0.025489293,0.9978631,-0.0010690142,0.001985312,-0.00030543262,-0.07810292,0.26792312,9.80603,2,1683969906.7247295
-0.0069516255,0.025489293,0.9978631,0.0013744468,0.00076358154,0.0021380284,-0.07810292,0.26792312,9.80603,2,1683969906.7298534
-0.0074394583,0.025977125,0.9978631,0.0013744468,0.00076358154,0.0021380284,-0.07810292,0.26792312,9.80603,2,1683969906.7503705
-0.0074394583,0.025977125,0.9978631,0.0013744468,0.00076358154,0.0021380284,-0.07828042,0.26788902,9.806029,2,1683969906.75549
-0.0074394583,0.025977125,0.9978631,0.0013744468,0.00076358154,0.0009162979,-0.07828042,0.26788902,9.806029,2,1683969906.7657464
-0.0074394583,0.025977125,0.9978631,0.00015271631,-0.0016798794,-0.00030543262,-0.07828042,0.26788902,9.806029,2,1683969906.79134
-0.008963938,0.024025792,1.0007901,0.00015271631,-0.0016798794,-0.00030543262,-0.07828042,0.26788902,9.806029,2,1683969906.8015993
-0.008415125,0.02841629,0.9993266,0.00015271631,-0.0016798794,-0.00030543262,-0.07828042,0.26788902,9.806029,2,1683969906.806724
-0.008415125,0.02841629,0.9993266,-0.0022907446,-0.0016798794,0.0009162979,-0.07828042,0.26788902,9.806029,2,1683969906.8118532
-0.008415125,0.02841629,0.9993266,-0.0022907446,-0.0016798794,0.0009162979,-0.07837015,0.26788184,9.806029,2,1683969906.8221087
-0.008415125,0.025489293,0.9954239,-0.0022907446,-0.0016798794,0.0009162979,-0.07837015,0.26788184,9.806029,2,1683969906.852832
-0.008415125,0.025489293,0.9954239,-0.0022907446,-0.0016798794,0.0009162979,-0.07833818,0.26771536,9.806034,2,1683969906.857965
-0.008415125,0.025489293,0.9954239,0.0013744468,0.00076358154,-0.0015271631,-0.07833818,0.26771536,9.806034,2,1683969906.8631034
-0.008415125,0.025489293,0.9954239,0.0013744468,0.00076358154,-0.0015271631,-0.078289606,0.26768705,9.806035,2,1683969906.888744
-0.0074394583,0.02792846,0.9988388,0.0013744468,0.00076358154,-0.0015271631,-0.078289606,0.26768705,9.806035,2,1683969906.8938742
-0.0074394583,0.02792846,0.9988388,-0.0022907446,0.001985312,0.0009162979,-0.078289606,0.26768705,9.806035,2,1683969906.899025
-0.0074394583,0.02792846,0.9988388,-0.0010690142,0.00076358154,-0.00030543262,-0.078289606,0.26768705,9.806035,2,1683969906.9144254
-0.0074394583,0.02792846,0.9988388,-0.0010690142,0.00076358154,-0.00030543262,-0.07806448,0.2676014,9.80604,2,1683969906.9297714
-0.008902958,0.02646496,0.9993266,-0.0010690142,0.00076358154,-0.00030543262,-0.07806448,0.2676014,9.80604,2,1683969906.9349065
-0.0075004376,0.027440626,1.0007901,-0.0010690142,0.00076358154,-0.00030543262,-0.07806448,0.2676014,9.80604,2,1683969906.9400468
-0.0075004376,0.027440626,1.0007901,-0.0010690142,0.00076358154,-0.00030543262,-0.078257,0.26750684,9.80604,2,1683969906.9605453
-0.0075004376,0.027440626,1.0007901,-0.0022907446,-0.0018325958,-0.00030543262,-0.078257,0.26750684,9.80604,2,1683969906.9656355
-0.0075004376,0.027440626,1.0007901,0.00015271631,-0.00290161,0.0009162979,-0.078257,0.26750684,9.80604,2,1683969906.9861097
-0.0069516255,0.025977125,0.9973753,0.00015271631,-0.00290161,0.0009162979,-0.078257,0.26750684,9.80604,2,1683969906.9911847
-0.0069516255,0.025977125,0.9973753,0.00015271631,-0.00290161,0.0009162979,-0.07822246,0.26747823,9.806042,2,1683969906.996306
-0.0069516255,0.025977125,0.9973753,0.0013744468,-0.0016798794,0.0009162979,-0.07822246,0.26747823,9.806042,2,1683969907.0116897
-0.0069516255,0.02792846,0.9968874,0.0013744468,-0.0016798794,0.0009162979,-0.07822246,0.26747823,9.806042,2,1683969907.027001
-0.0069516255,0.02792846,0.9968874,0.0013744468,-0.0016798794,0.0009162979,-0.07777925,0.2673221,9.806049,2,1683969907.042398
-0.008415125,0.029391957,0.9978631,0.0013744468,-0.0016798794,0.0009162979,-0.07777925,0.2673221,9.806049,2,1683969907.0526435
-0.008415125,0.029391957,0.9978631,0.0013744468,-0.0016798794,0.0009162979,-0.07760096,0.26735145,9.806049,2,1683969907.0577674
-0.008415125,0.029391957,0.9978631,-0.0010690142,-0.00290161,0.0009162979,-0.07760096,0.26735145,9.806049,2,1683969907.0680215
-0.008415125,0.029391957,0.9978631,-0.0010690142,-0.00290161,0.0009162979,-0.07750078,0.2673561,9.80605,2,1683969907.0782826
-0.0074394583,0.02646496,0.9973753,-0.0010690142,-0.00290161,0.0009162979,-0.07750078,0.2673561,9.80605,2,1683969907.0987504
-0.0074394583,0.02646496,0.9973753,-0.0010690142,-0.00290161,0.0009162979,-0.07790145,0.26691806,9.806059,2,1683969907.1038804
-0.0074394583,0.02646496,0.9973753,0.00015271631,0.001985312,-0.00030543262,-0.07790145,0.26691806,9.806059,2,1683969907.1090107
-0.0074394583,0.02646496,0.9973753,0.00015271631,0.001985312,-0.00030543262,-0.07804666,0.26706988,9.806053,2,1683969907.1294034
-0.008415125,0.025977125,0.9993266,0.00015271631,0.001985312,-0.00030543262,-0.07804666,0.26706988,9.806053,2,1683969907.1345363
-0.008415125,0.025977125,0.9993266,0.0025961774,0.00076358154,-0.00030543262,-0.07804666,0.26706988,9.806053,2,1683969907.1447942
-0.008415125,0.025977125,0.9993266,0.0025961774,0.00076358154,-0.00030543262,-0.078054786,0.2671466,9.806052,2,1683969907.1601827
-0.0070126047,0.02841629,1.0007291,0.0025961774,0.00076358154,-0.00030543262,-0.078054786,0.2671466,9.806052,2,1683969907.170447
-0.0070126047,0.02841629,1.0007291,0.0013744468,-0.00290161,-0.00030543262,-0.078054786,0.2671466,9.806052,2,1683969907.1806984
-0.008963938,0.029879792,1.0017048,0.0013744468,-0.00290161,-0.00030543262,-0.078054786,0.2671466,9.806052,2,1683969907.1909566
-0.008963938,0.029879792,1.0017048,0.00015271631,0.001985312,-0.0015271631,-0.078054786,0.2671466,9.806052,2,1683969907.2012107
-0.008963938,0.029879792,1.0017048,0.00015271631,0.001985312,-0.0015271631,-0.077983685,0.26725873,9.806049,2,1683969907.2114534
-0.008963938,0.029879792,1.0017048,0.00015271631,0.001985312,-0.0015271631,-0.078212276,0.26724845,9.806047,2,1683969907.2422142
-0.008963938,0.029879792,1.0017048,-0.0022907446,-0.00045814895,0.0009162979,-0.078212276,0.26724845,9.806047,2,1683969907.2473028
-0.0059759584,0.030367626,1.0007901,-0.0022907446,-0.00045814895,0.0009162979,-0.078212276,0.26724845,9.806047,2,1683969907.2575579
-0.0059759584,0.030367626,1.0007901,-0.0022907446,-0.00045814895,0.0009162979,-0.07811792,0.26730353,9.806047,2,1683969907.27808
-0.0075004376,0.029391957,0.9993266,-0.0022907446,-0.00045814895,0.0009162979,-0.07811792,0.26730353,9.806047,2,1683969907.2831845
-0.0075004376,0.029391957,0.9993266,-0.0022907446,-0.0018325958,-0.00030543262,-0.07811792,0.26730353,9.806047,2,1683969907.2934039
-0.0075004376,0.029391957,0.9993266,-0.0022907446,-0.0018325958,-0.00030543262,-0.07782449,0.26723778,9.80605,2,1683969907.3036616
-0.0075004376,0.029391957,0.9993266,-0.0010690142,-0.00045814895,-0.00030543262,-0.07782449,0.26723778,9.80605,2,1683969907.3241878
-0.006524771,0.029391957,0.9998144,-0.0010690142,-0.00045814895,-0.00030543262,-0.07782449,0.26723778,9.80605,2,1683969907.3293173
-0.006524771,0.029391957,0.9998144,0.00015271631,0.001985312,0.0009162979,-0.07782449,0.26723778,9.80605,2,1683969907.3447056
-0.0064637917,0.02792846,0.9993266,0.00015271631,0.001985312,0.0009162979,-0.07782449,0.26723778,9.80605,2,1683969907.3549652
-0.0064637917,0.02792846,0.9993266,0.00015271631,0.001985312,-0.00030543262,-0.07782449,0.26723778,9.80605,2,1683969907.3754675
-0.0064637917,0.02792846,0.9993266,0.00015271631,0.001985312,-0.00030543262,-0.07771319,0.26703063,9.806058,2,1683969907.3806067
-0.009390792,0.025489293,0.9998144,0.00015271631,0.001985312,-0.00030543262,-0.07771319,0.26703063,9.806058,2,1683969907.3908722
-0.008415125,0.02841629,0.9988388,0.00015271631,0.001985312,-0.00030543262,-0.07771319,0.26703063,9.806058,2,1683969907.4165075
-0.008415125,0.02841629,0.9988388,0.00015271631,0.001985312,-0.00030543262,-0.077933356,0.26722258,9.80605,2,1683969907.4216383
-0.008415125,0.02841629,0.9988388,0.0013744468,0.0032070426,0.0021380284,-0.077933356,0.26722258,9.80605,2,1683969907.4267693
-0.008415125,0.02841629,0.9988388,0.0013744468,0.0032070426,0.0021380284,-0.07798313,0.26725215,9.806049,2,1683969907.4370368
-0.008415125,0.02841629,0.9988388,0.0013744468,0.001985312,-0.0015271631,-0.07798313,0.26725215,9.806049,2,1683969907.4421682
-0.00798827,0.02841629,1.0003022,0.0013744468,0.001985312,-0.0015271631,-0.07798313,0.26725215,9.806049,2,1683969907.4472544
-0.007927292,0.028904125,0.9988388,0.0013744468,0.001985312,-0.0015271631,-0.07798313,0.26725215,9.806049,2,1683969907.4626448
-0.007927292,0.028904125,0.9988388,0.0013744468,0.001985312,-0.0015271631,-0.07796446,0.26733562,9.806047,2,1683969907.4779952
-0.007927292,0.028904125,0.9988388,-0.0010690142,-0.0016798794,-0.00030543262,-0.07796446,0.26733562,9.806047,2,1683969907.4883013
-0.007927292,0.028904125,0.9988388,-0.0010690142,-0.0016798794,-0.00030543262,-0.07770439,0.26733026,9.806049,2,1683969907.4985585
-0.0075004376,0.027440626,0.9998144,-0.0010690142,-0.0016798794,-0.00030543262,-0.07770439,0.26733026,9.806049,2,1683969907.5190737
-0.0075004376,0.027440626,0.9998144,0.00015271631,-0.00290161,-0.0015271631,-0.07770439,0.26733026,9.806049,2,1683969907.5292892
-0.008963938,0.028904125,0.9993266,0.00015271631,-0.00290161,-0.0015271631,-0.07770439,0.26733026,9.806049,2,1683969907.5394661
-0.008963938,0.028904125,0.9993266,0.0013744468,-0.00045814895,0.0021380284,-0.07770439,0.26733026,9.806049,2,1683969907.5548067
-0.008963938,0.028904125,0.9993266,0.0013744468,-0.00045814895,0.0021380284,-0.0775436,0.26736224,9.80605,2,1683969907.5650642
-0.008963938,0.028904125,0.9993266,0.0013744468,-0.00045814895,0.0021380284,-0.07739657,0.26754403,9.806046,2,1683969907.5855374
-0.008963938,0.028904125,0.9993266,-0.0010690142,-0.00045814895,0.0021380284,-0.07739657,0.26754403,9.806046,2,1683969907.5957937
-0.0074394583,0.02841629,0.998351,-0.0010690142,-0.00045814895,0.0021380284,-0.07739657,0.26754403,9.806046,2,1683969907.6009247
-0.0064637917,0.027440626,0.9993266,-0.0010690142,-0.00045814895,0.0021380284,-0.07739657,0.26754403,9.806046,2,1683969907.6163166
-0.0064637917,0.027440626,0.9993266,-0.0010690142,-0.00045814895,0.0021380284,-0.07746371,0.26751053,9.8060465,2,1683969907.6214097
-0.0064637917,0.027440626,0.9993266,-0.0022907446,-0.0030543262,0.0009162979,-0.07746371,0.26751053,9.8060465,2,1683969907.6265428
-0.0064637917,0.027440626,0.9993266,-0.0022907446,-0.0030543262,0.0009162979,-0.07746726,0.26790604,9.806035,2,1683969907.6469402
-0.0064637917,0.027440626,0.9993266,-0.0010690142,-0.00076358154,0.0009162979,-0.07746726,0.26790604,9.806035,2,1683969907.657195
-0.0060369377,0.02792846,1.0017048,-0.0010690142,-0.00076358154,0.0009162979,-0.07746726,0.26790604,9.806035,2,1683969907.6623242
-0.0060369377,0.02792846,1.0017048,-0.0010690142,-0.00076358154,0.0009162979,-0.077609934,0.26792175,9.806034,2,1683969907.677696
-0.0060369377,0.02792846,1.0017048,0.00015271631,-0.00076358154,-0.0015271631,-0.077609934,0.26792175,9.806034,2,1683969907.6879566
-0.0060369377,0.02792846,1.0017048,0.00015271631,-0.00076358154,-0.0015271631,-0.0773001,0.26780143,9.80604,2,1683969907.7033024
-0.00798827,0.02646496,1.0003022,0.00015271631,-0.00076358154,-0.0015271631,-0.0773001,0.26780143,9.80604,2,1683969907.718694
-0.007927292,0.025977125,0.9988388,0.00015271631,-0.00076358154,-0.0015271631,-0.0773001,0.26780143,9.80604,2,1683969907.7340167
-0.007927292,0.025977125,0.9988388,-0.0010690142,-0.001985312,-0.00030543262,-0.0773001,0.26780143,9.80604,2,1683969907.7441986
-0.007927292,0.025977125,0.9988388,-0.0010690142,-0.001985312,-0.00030543262,-0.07718448,0.2677053,9.806043,2,1683969907.7493186
-0.007927292,0.025977125,0.9988388,-0.0010690142,-0.001985312,-0.00030543262,-0.077142335,0.26761663,9.806046,2,1683969907.7698374
-0.007927292,0.025977125,0.9988388,-0.0022907446,-0.00076358154,0.0009162979,-0.077142335,0.26761663,9.806046,2,1683969907.780097
-0.007927292,0.025977125,0.9978631,-0.0022907446,-0.00076358154,0.0009162979,-0.077142335,0.26761663,9.806046,2,1683969907.7852328
-0.007927292,0.025977125,0.9978631,-0.0022907446,-0.00076358154,0.0009162979,-0.0771315,0.26752123,9.806048,2,1683969907.8057501
-0.009939604,0.025489293,1.0002413,-0.0022907446,-0.00076358154,0.0009162979,-0.0771315,0.26752123,9.806048,2,1683969907.81088
-0.009939604,0.025489293,1.0002413,0.00015271631,-0.001985312,-0.0027488936,-0.0771315,0.26752123,9.806048,2,1683969907.8160112
-0.009939604,0.025489293,1.0002413,0.00015271631,-0.00076358154,0.0009162979,-0.0771315,0.26752123,9.806048,2,1683969907.8313656
-0.009939604,0.025489293,1.0002413,0.00015271631,-0.00076358154,0.0009162979,-0.07717189,0.26753196,9.806048,2,1683969907.8415506
-0.0069516255,0.025977125,0.9988388,0.00015271631,-0.00076358154,0.0009162979,-0.07717189,0.26753196,9.806048,2,1683969907.846644
-0.0069516255,0.025977125,0.9988388,0.00015271631,-0.00076358154,0.0009162979,-0.077149466,0.2675634,9.806047,2,1683969907.87228
-0.0074394583,0.027440626,0.9973753,0.00015271631,-0.00076358154,0.0009162979,-0.077149466,0.2675634,9.806047,2,1683969907.8825421
-0.0074394583,0.027440626,0.9973753,-0.0022907446,0.00045814895,0.0009162979,-0.077149466,0.2675634,9.806047,2,1683969907.8928025
-0.0069516255,0.025977125,0.998351,-0.0022907446,0.00045814895,0.0009162979,-0.077149466,0.2675634,9.806047,2,1683969907.9030285
-0.0069516255,0.025977125,0.998351,0.0013744468,0.0065668016,-0.00030543262,-0.077149466,0.2675634,9.806047,2,1683969907.9338207
-0.008963938,0.028904125,0.9992657,0.0013744468,0.0065668016,-0.00030543262,-0.077149466,0.2675634,9.806047,2,1683969907.9389172
-0.008963938,0.028904125,0.9992657,0.0013744468,0.0065668016,-0.00030543262,-0.07678191,0.2678534,9.806043,2,1683969907.9440117
-0.0074394583,0.02841629,0.9968874,0.0013744468,0.0065668016,-0.00030543262,-0.07678191,0.2678534,9.806043,2,1683969907.964441
-0.0074394583,0.02841629,0.9968874,0.0013744468,0.0065668016,-0.00030543262,-0.076739915,0.26799858,9.806038,2,1683969907.9695752
-0.0074394583,0.02841629,0.9968874,0.00015271631,-0.0032070426,-0.00030543262,-0.076739915,0.26799858,9.806038,2,1683969907.9746668
-0.0074394583,0.02841629,0.9968874,0.0013744468,0.0016798794,0.0021380284,-0.076739915,0.26799858,9.806038,2,1683969907.9900515
-0.0074394583,0.02841629,0.9968874,0.0013744468,0.0016798794,0.0021380284,-0.076541446,0.26802588,9.80604,2,1683969908.0002718
-0.008902958,0.02792846,0.9987778,0.0013744468,0.0016798794,0.0021380284,-0.076541446,0.26802588,9.80604,2,1683969908.0105305
-0.0064637917,0.024513626,0.9978631,0.0013744468,0.0016798794,0.0021380284,-0.076541446,0.26802588,9.80604,2,1683969908.0259225
-0.0064637917,0.024513626,0.9978631,0.0013744468,0.0016798794,0.0021380284,-0.07635097,0.2681155,9.806038,2,1683969908.0310137
-0.0064637917,0.024513626,0.9978631,0.00015271631,0.0016798794,-0.00030543262,-0.07635097,0.2681155,9.806038,2,1683969908.041272
-0.0064637917,0.02695279,0.9988388,0.00015271631,0.0016798794,-0.00030543262,-0.07635097,0.2681155,9.806038,2,1683969908.061707
-0.0064637917,0.02695279,0.9988388,0.0013744468,0.0016798794,-0.0027488936,-0.07635097,0.2681155,9.806038,2,1683969908.0668359
-0.0064637917,0.02695279,0.9988388,0.0013744468,0.0016798794,-0.0027488936,-0.07620225,0.26815856,9.806039,2,1683969908.0719686
-0.008902958,0.02792846,0.9973753,0.0013744468,0.0016798794,-0.0027488936,-0.07620225,0.26815856,9.806039,2,1683969908.097564
-0.008902958,0.02792846,0.9973753,0.0013744468,0.0016798794,-0.0027488936,-0.07622051,0.26821473,9.806037,2,1683969908.1078262
-0.008902958,0.02792846,0.9973753,0.00015271631,0.00045814895,-0.0015271631,-0.07622051,0.26821473,9.806037,2,1683969908.1129572
-0.008415125,0.02695279,0.9993266,0.00015271631,0.00045814895,-0.0015271631,-0.07622051,0.26821473,9.806037,2,1683969908.133397
-0.008415125,0.02695279,0.9993266,-0.0010690142,0.0016798794,0.0009162979,-0.07622051,0.26821473,9.806037,2,1683969908.1436548
-0.008415125,0.02695279,0.9993266,-0.0010690142,0.0016798794,0.0009162979,-0.07629439,0.2682871,9.806034,2,1683969908.1488316
-0.009451771,0.028904125,0.9997535,-0.0010690142,0.0016798794,0.0009162979,-0.07629439,0.2682871,9.806034,2,1683969908.1744823
-0.009451771,0.028904125,0.9997535,0.0025961774,0.00045814895,-0.0015271631,-0.07629439,0.2682871,9.806034,2,1683969908.1796117
-0.009451771,0.028904125,0.9997535,0.0025961774,0.00045814895,-0.0015271631,-0.076340504,0.2683107,9.806033,2,1683969908.1847494
-0.009451771,0.028904125,0.9997535,0.0025961774,0.00045814895,-0.0015271631,-0.076094314,0.26915848,9.806012,2,1683969908.18988
-0.008902958,0.027440626,0.9992657,0.0025961774,0.00045814895,-0.0015271631,-0.076094314,0.26915848,9.806012,2,1683969908.2155173
-0.008902958,0.027440626,0.9992657,-0.0035124752,-0.0021380284,-0.0015271631,-0.076094314,0.26915848,9.806012,2,1683969908.2206545
-0.008902958,0.027440626,0.9992657,-0.0035124752,-0.0021380284,-0.0015271631,-0.076220654,0.26912352,9.806012,2,1683969908.2257864
-0.009390792,0.025977125,0.9978631,-0.0035124752,-0.0021380284,-0.0015271631,-0.076220654,0.26912352,9.806012,2,1683969908.246301
-0.009390792,0.025977125,0.9978631,-0.0010690142,0.00045814895,-0.00030543262,-0.076220654,0.26912352,9.806012,2,1683969908.2565532
-0.009390792,0.025977125,0.9978631,-0.0010690142,0.00045814895,-0.00030543262,-0.07614823,0.26902005,9.806016,2,1683969908.2616835
-0.009390792,0.025977125,0.9978631,0.00015271631,0.00290161,0.0009162979,-0.07614823,0.26902005,9.806016,2,1683969908.2924254
-0.0074394583,0.027440626,0.9993266,0.00015271631,0.00290161,0.0009162979,-0.07614823,0.26902005,9.806016,2,1683969908.297554
-0.0074394583,0.027440626,0.9993266,0.00015271631,0.00290161,0.0009162979,-0.07618853,0.2687029,9.806024,2,1683969908.3026848
-0.0074394583,0.027440626,0.9993266,0.0025961774,0.0016798794,-0.00030543262,-0.07618853,0.2687029,9.806024,2,1683969908.3180304
-0.008415125,0.02646496,0.9978631,0.0025961774,0.0016798794,-0.00030543262,-0.07618853,0.2687029,9.806024,2,1683969908.3231678
-0.008415125,0.02646496,0.9978631,0.0025961774,0.0016798794,-0.00030543262,-0.07627741,0.26886687,9.806019,2,1683969908.333389
-0.008415125,0.02646496,0.9978631,-0.0010690142,-0.008246681,-0.00030543262,-0.07627741,0.26886687,9.806019,2,1683969908.3590217
-0.007927292,0.025977125,0.9988388,-0.0010690142,-0.008246681,-0.00030543262,-0.07627741,0.26886687,9.806019,2,1683969908.3641515
-0.007927292,0.025977125,0.9988388,-0.0010690142,-0.008246681,-0.00030543262,-0.07639267,0.2688809,9.806017,2,1683969908.3692877
-0.007927292,0.025977125,0.9988388,-0.0010690142,0.00290161,0.0021380284,-0.07639267,0.2688809,9.806017,2,1683969908.3795483
-0.007927292,0.02646496,0.9993266,-0.0010690142,0.00290161,0.0021380284,-0.07639267,0.2688809,9.806017,2,1683969908.3949378
-0.007927292,0.02646496,0.9993266,-0.0010690142,0.00290161,0.0021380284,-0.07622485,0.2688413,9.80602,2,1683969908.4051573
-0.007927292,0.02646496,0.9993266,-0.0010690142,0.00290161,0.0021380284,-0.07634575,0.26875165,9.806022,2,1683969908.430713
-0.0069516255,0.027440626,0.998351,-0.0010690142,0.00290161,0.0021380284,-0.07634575,0.26875165,9.806022,2,1683969908.4358084
-0.0069516255,0.027440626,0.998351,0.00015271631,0.00045814895,0.0009162979,-0.07634575,0.26875165,9.806022,2,1683969908.4409373
-0.007927292,0.02646496,0.998351,0.00015271631,0.00045814895,0.0009162979,-0.07634575,0.26875165,9.806022,2,1683969908.4665756
-0.007927292,0.02646496,0.998351,0.00015271631,0.00045814895,0.0009162979,-0.07640879,0.2696302,9.805997,2,1683969908.497328
-0.007927292,0.028904125,0.9973753,0.00015271631,0.00045814895,0.0009162979,-0.07640879,0.2696302,9.805997,2,1683969908.507539
-0.0070126047,0.02792846,1.0007291,0.00015271631,0.00045814895,0.0009162979,-0.07640879,0.2696302,9.805997,2,1683969908.5229292
-0.0070126047,0.02792846,1.0007291,0.00015271631,0.00045814895,0.0009162979,-0.07655091,0.26955992,9.805998,2,1683969908.538324
-0.0070126047,0.02792846,1.0007291,0.0013744468,-0.00076358154,-0.0015271631,-0.07655091,0.26955992,9.805998,2,1683969908.5536559
-0.0070126047,0.02792846,1.0007291,0.0013744468,-0.00076358154,-0.0015271631,-0.07660009,0.2694315,9.806001,2,1683969908.5689015
-0.008902958,0.02792846,0.9992657,0.0013744468,-0.00076358154,-0.0015271631,-0.07660009,0.2694315,9.806001,2,1683969908.5791357
-0.008902958,0.02792846,0.9992657,0.0013744468,0.0016798794,-0.00030543262,-0.07660009,0.2694315,9.806001,2,1683969908.584269
-0.0075004376,0.028904125,1.0012169,0.0013744468,0.0016798794,-0.00030543262,-0.07660009,0.2694315,9.806001,2,1683969908.5996408
-0.0075004376,0.028904125,1.0012169,0.0013744468,0.0016798794,-0.00030543262,-0.076580234,0.2694789,9.805999,2,1683969908.615028
-0.0075004376,0.028904125,1.0012169,0.00015271631,0.00045814895,0.0009162979,-0.076580234,0.2694789,9.805999,2,1683969908.625283
-0.0075004376,0.028904125,1.0012169,0.00015271631,0.00045814895,0.0009162979,-0.07684154,0.269427,9.805999,2,1683969908.6406186
-0.00798827,0.027440626,1.0002413,0.00015271631,0.00045814895,0.0009162979,-0.07684154,0.269427,9.805999,2,1683969908.6457474
-0.00798827,0.027440626,1.0002413,0.00015271631,0.00045814895,0.0009162979,-0.077015534,0.26944906,9.805997,2,1683969908.671318
-0.00798827,0.027440626,1.0002413,-0.0022907446,-0.0033597588,-0.00030543262,-0.077015534,0.26944906,9.805997,2,1683969908.6815288
-0.007927292,0.02841629,0.998351,-0.0022907446,-0.0033597588,-0.00030543262,-0.077015534,0.26944906,9.805997,2,1683969908.686661
-0.007927292,0.02841629,0.998351,-0.0022907446,-0.0033597588,-0.00030543262,-0.07690602,0.26912978,9.806006,2,1683969908.7122552
-0.008902958,0.025977125,0.9978631,-0.0022907446,-0.0033597588,-0.00030543262,-0.07690602,0.26912978,9.806006,2,1683969908.71739
-0.008902958,0.025977125,0.9978631,-0.0022907446,0.00290161,-0.00030543262,-0.07690602,0.26912978,9.806006,2,1683969908.7225163
-0.0069516255,0.025977125,0.9993266,-0.0022907446,0.00290161,-0.00030543262,-0.07690602,0.26912978,9.806006,2,1683969908.7430258
-0.0074394583,0.02695279,0.9988388,-0.0022907446,0.00290161,-0.00030543262,-0.07690602,0.26912978,9.806006,2,1683969908.763544
-0.0074394583,0.02695279,0.9988388,-0.0010690142,0.00045814895,-0.00030543262,-0.07690602,0.26912978,9.806006,2,1683969908.773803
-0.0074394583,0.02695279,0.9988388,-0.0010690142,0.00045814895,-0.00030543262,-0.0746834,0.26947504,9.806014,2,1683969908.7789414
-0.006524771,0.028904125,1.0007901,-0.0010690142,0.00045814895,-0.00030543262,-0.0746834,0.26947504,9.806014,2,1683969908.7994523
-0.006524771,0.028904125,1.0007901,-0.0010690142,0.00045814895,-0.00030543262,-0.07456126,0.26937392,9.806018,2,1683969908.8097117
-0.006524771,0.028904125,1.0007901,0.0025961774,-0.001985312,-0.0015271631,-0.07456126,0.26937392,9.806018,2,1683969908.8199759
-0.0074394583,0.02792846,0.9988388,0.0025961774,-0.001985312,-0.0015271631,-0.07456126,0.26937392,9.806018,2,1683969908.8404665
-0.0074394583,0.02792846,0.9988388,0.00015271631,0.0016798794,-0.0015271631,-0.07456126,0.26937392,9.806018,2,1683969908.8507288
-0.0074394583,0.02792846,0.9988388,0.00015271631,0.0016798794,-0.0015271631,-0.07440626,0.26952085,9.806015,2,1683969908.8558533
-0.0074394583,0.02792846,0.9988388,0.0025961774,-0.00076358154,-0.00030543262,-0.07440626,0.26952085,9.806015,2,1683969908.8609834
-0.0069516255,0.027440626,0.9978631,0.0025961774,-0.00076358154,-0.00030543262,-0.07440626,0.26952085,9.806015,2,1683969908.8763087
-0.0069516255,0.027440626,0.9978631,0.0025961774,-0.00076358154,-0.00030543262,-0.07429021,0.26964217,9.806012,2,1683969908.886572
-0.0074394583,0.028904125,0.9968874,0.0025961774,-0.00076358154,-0.00030543262,-0.07429021,0.26964217,9.806012,2,1683969908.9070768
-0.0074394583,0.028904125,0.9968874,0.0025961774,-0.00076358154,-0.00030543262,-0.07420542,0.26981556,9.806008,2,1683969908.9122076
-0.0074394583,0.028904125,0.9968874,-0.0010690142,-0.001985312,0.0021380284,-0.07420542,0.26981556,9.806008,2,1683969908.9224687
-0.008902958,0.028904125,0.998351,-0.0010690142,-0.001985312,0.0021380284,-0.07420542,0.26981556,9.806008,2,1683969908.9327207
-0.008902958,0.028904125,0.998351,-0.0010690142,-0.001985312,0.0021380284,-0.07415311,0.26983437,9.806008,2,1683969908.9583607
-0.008902958,0.028904125,0.998351,0.00015271631,0.00290161,-0.00030543262,-0.07415311,0.26983437,9.806008,2,1683969908.9634597
-0.008902958,0.028904125,0.998351,0.0013744468,0.0016798794,0.0009162979,-0.07415311,0.26983437,9.806008,2,1683969908.9890294
-0.008902958,0.028904125,0.998351,0.0013744468,0.0016798794,0.0009162979,-0.07427789,0.26986536,9.806006,2,1683969908.9941628
-0.0064637917,0.02695279,0.9988388,0.0013744468,0.0016798794,0.0009162979,-0.07427789,0.26986536,9.806006,2,1683969908.9992511
-0.0064637917,0.02695279,0.9988388,0.00015271631,-0.0032070426,-0.00030543262,-0.07427789,0.26986536,9.806006,2,1683969909.01977
-0.0064637917,0.02695279,0.9988388,0.00015271631,-0.0032070426,-0.00030543262,-0.07435537,0.26998264,9.806003,2,1683969909.0249038
-0.0069516255,0.027440626,0.9993266,0.00015271631,-0.0032070426,-0.00030543262,-0.07435537,0.26998264,9.806003,2,1683969909.0300226
-0.0069516255,0.027440626,0.9993266,0.00015271631,-0.0032070426,-0.00030543262,-0.07365981,0.27023047,9.806002,2,1683969909.045411
-0.0069516255,0.027440626,0.9993266,-0.0022907446,-0.00580322,0.0009162979,-0.07365981,0.27023047,9.806002,2,1683969909.0607972
-0.0069516255,0.027440626,0.9993266,-0.0022907446,-0.00580322,0.0009162979,-0.073284745,0.27011093,9.806006,2,1683969909.0761838
-0.0069516255,0.027440626,0.9993266,-0.0010690142,0.00045814895,0.0009162979,-0.073284745,0.27011093,9.806006,2,1683969909.081316
-0.008415125,0.02841629,0.9988388,-0.0010690142,0.00045814895,0.0009162979,-0.073284745,0.27011093,9.806006,2,1683969909.0864482
-0.00798827,0.02695279,1.0007901,-0.0010690142,0.00045814895,0.0009162979,-0.073284745,0.27011093,9.806006,2,1683969909.1222131
-0.00798827,0.02695279,1.0007901,-0.0010690142,0.00045814895,0.0009162979,-0.07327962,0.27016622,9.8060055,2,1683969909.1272998
-0.00798827,0.02695279,1.0007901,-0.0010690142,0.00045814895,0.0021380284,-0.07327962,0.27016622,9.8060055,2,1683969909.1324303
-0.00798827,0.02695279,1.0007901,0.00015271631,-0.001985312,0.0021380284,-0.07327962,0.27016622,9.8060055,2,1683969909.1375632
-0.00798827,0.02695279,1.0007901,0.00015271631,-0.001985312,0.0021380284,-0.07330865,0.27014822,9.8060055,2,1683969909.152947
-0.0075004376,0.027440626,1.0012779,0.00015271631,-0.001985312,0.0021380284,-0.07330865,0.27014822,9.8060055,2,1683969909.1580806
-0.0075004376,0.027440626,1.0012779,0.00015271631,-0.001985312,0.0021380284,-0.07325983,0.27013165,9.806006,2,1683969909.1888297
-0.0075004376,0.027440626,1.0012779,0.0013744468,0.007788532,0.0009162979,-0.07325983,0.27013165,9.806006,2,1683969909.1939602
-0.008902958,0.025977125,0.9993266,0.0013744468,0.007788532,0.0009162979,-0.07325983,0.27013165,9.806006,2,1683969909.1990926
-0.008902958,0.025977125,0.9993266,0.00015271631,-0.001985312,0.0009162979,-0.07325983,0.27013165,9.806006,2,1683969909.2298565
-0.008902958,0.025977125,0.9993266,0.00015271631,-0.001985312,0.0009162979,-0.07359337,0.27009758,9.8060055,2,1683969909.2349873
-0.0074394583,0.027440626,0.9959117,0.00015271631,-0.001985312,0.0009162979,-0.07359337,0.27009758,9.8060055,2,1683969909.2401204
-0.0074394583,0.027440626,0.9959117,0.00015271631,-0.001985312,0.0009162979,-0.07360114,0.2700686,9.806006,2,1683969909.2605765
-0.0074394583,0.027440626,0.9959117,0.00015271631,0.0016798794,0.0021380284,-0.07360114,0.2700686,9.806006,2,1683969909.265707
-0.008415125,0.025489293,0.9978631,0.00015271631,0.0016798794,0.0021380284,-0.07360114,0.2700686,9.806006,2,1683969909.2759383
-0.0074394583,0.025001459,0.9993266,0.00015271631,0.0016798794,0.0021380284,-0.07360114,0.2700686,9.806006,2,1683969909.296426
-0.0074394583,0.025001459,0.9993266,0.00015271631,0.00290161,0.0009162979,-0.07360114,0.2700686,9.806006,2,1683969909.3066852
-0.009390792,0.02646496,0.9978631,0.00015271631,0.00290161,0.0009162979,-0.07360114,0.2700686,9.806006,2,1683969909.311818
-0.009390792,0.02646496,0.9978631,-0.0,-0.00045814895,0.0033597588,-0.07360114,0.2700686,9.806006,2,1683969909.3271916
-0.009390792,0.02646496,0.9978631,-0.0,-0.00045814895,0.0033597588,-0.075844824,0.26919562,9.806013,2,1683969909.332325
-0.009390792,0.02646496,0.9978631,-0.0,-0.00045814895,0.0033597588,-0.07603046,0.26908076,9.806014,2,1683969909.357888
-0.009390792,0.02646496,0.9978631,-0.0012217305,0.00076358154,-0.00030543262,-0.07603046,0.26908076,9.806014,2,1683969909.3630195
-0.008963938,0.02646496,0.9998144,-0.0012217305,0.00076358154,-0.00030543262,-0.07603046,0.26908076,9.806014,2,1683969909.3732772
-0.009390792,0.025489293,0.9988388,-0.0012217305,0.00076358154,-0.00030543262,-0.07603046,0.26908076,9.806014,2,1683969909.3835282
-0.009390792,0.025489293,0.9988388,0.0012217305,0.00076358154,-0.0015271631,-0.07603046,0.26908076,9.806014,2,1683969909.3989377
-0.009390792,0.025489293,0.9988388,0.0012217305,0.00076358154,-0.0015271631,-0.07617629,0.2689897,9.806016,2,1683969909.4040453
-0.009390792,0.025489293,0.9988388,-0.002443461,0.00076358154,0.0009162979,-0.07617629,0.2689897,9.806016,2,1683969909.424539
-0.005488125,0.02695279,0.998351,-0.002443461,0.00076358154,0.0009162979,-0.07617629,0.2689897,9.806016,2,1683969909.439927
-0.005488125,0.02695279,0.998351,-0.002443461,0.00076358154,0.0009162979,-0.07636612,0.26900867,9.806014,2,1683969909.4450626
-0.0064637917,0.02695279,0.9968874,-0.002443461,0.00076358154,0.0009162979,-0.07636612,0.26900867,9.806014,2,1683969909.4604065
-0.0064637917,0.02695279,0.9968874,-0.002443461,0.00076358154,0.0009162979,-0.0764309,0.26891243,9.806016,2,1683969909.4706953
-0.0064637917,0.02695279,0.9968874,0.0012217305,0.0032070426,0.0009162979,-0.0764309,0.26891243,9.806016,2,1683969909.486018
-0.0064637917,0.02695279,0.9968874,0.0012217305,0.0032070426,0.0009162979,-0.07666069,0.2688814,9.806015,2,1683969909.501403
-0.008902958,0.027440626,0.9973753,0.0012217305,0.0032070426,0.0009162979,-0.07666069,0.2688814,9.806015,2,1683969909.5167885
-0.008902958,0.027440626,0.9973753,-0.0,-0.00045814895,-0.0015271631,-0.07666069,0.2688814,9.806015,2,1683969909.521919
-0.0064637917,0.02841629,0.9988388,-0.0,-0.00045814895,-0.0015271631,-0.07666069,0.2688814,9.806015,2,1683969909.5373132
-0.0064637917,0.02841629,0.9988388,-0.0,0.004428773,-0.00030543262,-0.07666069,0.2688814,9.806015,2,1683969909.542442
-0.0064637917,0.02841629,0.9988388,-0.0,0.004428773,-0.00030543262,-0.076669335,0.2688025,9.806017,2,1683969909.5526953
-0.0064637917,0.02841629,0.9988388,0.002443461,-0.0053450707,-0.00015271631,-0.076669335,0.2688025,9.806017,2,1683969909.5732126
-0.007927292,0.02646496,0.9993266,0.002443461,-0.0053450707,-0.00015271631,-0.076669335,0.2688025,9.806017,2,1683969909.5783389
-0.007927292,0.02646496,0.9993266,0.002443461,-0.0053450707,-0.00015271631,-0.07600833,0.2701478,9.805985,2,1683969909.593719
-0.00798827,0.029391957,1.0002413,0.002443461,-0.0053450707,-0.00015271631,-0.07600833,0.2701478,9.805985,2,1683969909.6143098
-0.00798827,0.029391957,1.0002413,0.002443461,-0.00290161,-0.0015271631,-0.07600833,0.2701478,9.805985,2,1683969909.619439
-0.00798827,0.029391957,1.0002413,-0.0,-0.0016798794,0.0009162979,-0.07600833,0.2701478,9.805985,2,1683969909.6348188
-0.008963938,0.02792846,1.0007291,-0.0,-0.0016798794,0.0009162979,-0.07600833,0.2701478,9.805985,2,1683969909.645085
-0.008963938,0.02792846,1.0007291,-0.0,-0.0016798794,0.0009162979,-0.07599534,0.27012637,9.805986,2,1683969909.65022
-0.008902958,0.027440626,0.9968874,-0.0,-0.0016798794,0.0009162979,-0.07599534,0.27012637,9.805986,2,1683969909.6604428
-0.008902958,0.027440626,0.9968874,-0.0,-0.0016798794,0.0009162979,-0.07598707,0.27014711,9.805985,2,1683969909.670696
-0.008902958,0.027440626,0.9968874,-0.0,-0.0016798794,-0.00030543262,-0.07598707,0.27014711,9.805985,2,1683969909.6809673
-0.008902958,0.027440626,0.9968874,-0.0,-0.0016798794,-0.00030543262,-0.07577333,0.27015516,9.805987,2,1683969909.696298
-0.008902958,0.027440626,0.9968874,-0.0012217305,-0.00045814895,0.0033597588,-0.07577333,0.27015516,9.805987,2,1683969909.7014334
-0.009390792,0.02646496,0.9988388,-0.0012217305,-0.00045814895,0.0033597588,-0.07577333,0.27015516,9.805987,2,1683969909.7116935
-0.009390792,0.02646496,0.9988388,0.0012217305,-0.0016798794,-0.00030543262,-0.07577333,0.27015516,9.805987,2,1683969909.7424326
-0.007927292,0.02646496,0.9978631,0.0012217305,-0.0016798794,-0.00030543262,-0.07577333,0.27015516,9.805987,2,1683969909.7526877
-0.007927292,0.02646496,0.9978631,0.0012217305,-0.0016798794,-0.00030543262,-0.0756345,0.27016628,9.805988,2,1683969909.7578177
-0.007927292,0.02646496,0.9978631,-0.0012217305,0.00076358154,0.0009162979,-0.0756345,0.27016628,9.805988,2,1683969909.7783358
-0.007927292,0.025977125,0.9988388,-0.0012217305,0.00076358154,0.0009162979,-0.0756345,0.27016628,9.805988,2,1683969909.78858
-0.007927292,0.025977125,0.9988388,-0.0012217305,0.00076358154,0.0009162979,-0.07554205,0.27017754,9.805988,2,1683969909.79884
-0.009390792,0.02695279,0.998351,0.0036651916,-0.0065668016,-0.0013744468,-0.07554205,0.27017754,9.805988,2,1683969909.8091218
-0.009390792,0.02695279,0.998351,0.0036651916,-0.0065668016,-0.0013744468,-0.07554073,0.27009767,9.80599,2,1683969909.8193424
-0.007927292,0.02646496,0.9988388,0.0036651916,-0.0065668016,-0.0013744468,-0.07554073,0.27009767,9.80599,2,1683969909.8347735
-0.007927292,0.02646496,0.9988388,0.0036651916,-0.0065668016,-0.0013744468,-0.07544305,0.27018884,9.805988,2,1683969909.8552747
-0.007927292,0.02646496,0.9988388,-0.0,-0.005497787,-0.00030543262,-0.07544305,0.27018884,9.805988,2,1683969909.8655295
-0.0070126047,0.02646496,1.0007901,-0.0,-0.005497787,-0.00030543262,-0.07544305,0.27018884,9.805988,2,1683969909.8860614
-0.0070126047,0.02646496,1.0007901,-0.0,-0.005497787,-0.00030543262,-0.07519231,0.2696102,9.806006,2,1683969909.891212
-0.0070126047,0.02646496,1.0007901,-0.0,0.0056505036,0.0009162979,-0.07519231,0.2696102,9.806006,2,1683969909.901529
-0.0070126047,0.02646496,1.0007901,-0.0,0.0056505036,0.0009162979,-0.07504839,0.26962748,9.806007,2,1683969909.9066198
-0.008415125,0.02646496,0.9988388,-0.0,0.0056505036,0.0009162979,-0.07504839,0.26962748,9.806007,2,1683969909.9117143
-0.008902958,0.02646496,0.9992657,-0.0,0.0056505036,0.0009162979,-0.07504839,0.26962748,9.806007,2,1683969909.9321966
-0.008902958,0.02646496,0.9992657,-0.0,0.0056505036,0.0009162979,-0.07534933,0.26961535,9.8060055,2,1683969909.9372866
-0.008902958,0.02646496,0.9992657,-0.0,0.00076358154,0.0009162979,-0.07534933,0.26961535,9.8060055,2,1683969909.9577982
-0.008902958,0.02646496,0.9992657,0.002443461,-0.0016798794,0.0021380284,-0.07534933,0.26961535,9.8060055,2,1683969909.9782598
-0.008902958,0.02646496,0.9992657,0.002443461,-0.0016798794,0.0021380284,-0.07533188,0.26947516,9.806009,2,1683969909.9833543
-0.009390792,0.025977125,0.99829,0.002443461,-0.0016798794,0.0021380284,-0.07533188,0.26947516,9.806009,2,1683969909.99353
-0.009390792,0.025977125,0.99829,-0.0,-0.00045814895,-0.00030543262,-0.07533188,0.26947516,9.806009,2,1683969910.0191329
-0.008415125,0.02695279,0.9992657,-0.0,-0.00045814895,-0.00030543262,-0.07533188,0.26947516,9.806009,2,1683969910.0242624
-0.008415125,0.02695279,0.9992657,-0.0,-0.00045814895,-0.00030543262,-0.075407654,0.26959804,9.8060055,2,1683969910.0293958
-0.008415125,0.02695279,0.9992657,-0.0012217305,-0.00290161,0.0009162979,-0.075407654,0.26959804,9.8060055,2,1683969910.0345263
-0.009390792,0.02695279,0.9963996,-0.0012217305,-0.00290161,0.0009162979,-0.075407654,0.26959804,9.8060055,2,1683969910.0447922
-0.009390792,0.02695279,0.9963996,-0.0012217305,-0.00290161,0.0009162979,-0.07543596,0.2696394,9.806004,2,1683969910.0653107
-0.009390792,0.02695279,0.9963996,-0.0,-0.0016798794,-0.00030543262,-0.07543596,0.2696394,9.806004,2,1683969910.0755682
-0.0074394583,0.02792846,0.9992657,-0.0,-0.0016798794,-0.00030543262,-0.07543596,0.2696394,9.806004,2,1683969910.085842
-0.0074394583,0.02792846,0.9992657,-0.0,-0.0016798794,-0.00030543262,-0.07528224,0.26956666,9.806007,2,1683969910.1011124
-0.007927292,0.02695279,0.9963996,-0.0,-0.0016798794,-0.00030543262,-0.07528224,0.26956666,9.806007,2,1683969910.121529
-0.007927292,0.02695279,0.9963996,-0.0,-0.0016798794,-0.00030543262,-0.075134285,0.26946113,9.806011,2,1683969910.1317868
-0.007927292,0.02695279,0.9963996,0.002443461,-0.00045814895,0.0021380284,-0.075134285,0.26946113,9.806011,2,1683969910.1369188
-0.007927292,0.02695279,0.9963996,0.002443461,-0.00045814895,0.0021380284,-0.07547683,0.26854336,9.806034,2,1683969910.147134
-0.006524771,0.02646496,1.0003022,0.002443461,-0.00045814895,0.0021380284,-0.07547683,0.26854336,9.806034,2,1683969910.172739
-0.006524771,0.02646496,1.0003022,0.0012217305,-0.00290161,-0.00030543262,-0.07547683,0.26854336,9.806034,2,1683969910.1881173
-0.006524771,0.02646496,1.0003022,0.0012217305,-0.00290161,-0.00030543262,-0.07544242,0.26856172,9.806034,2,1683969910.1932042
-0.006524771,0.02646496,1.0003022,0.0012217305,0.001985312,0.0009162979,-0.07544242,0.26856172,9.806034,2,1683969910.2033713
-0.006524771,0.02646496,1.0003022,0.0012217305,0.001985312,0.0009162979,-0.07543177,0.26861984,9.806032,2,1683969910.208502
-0.0069516255,0.02695279,0.9988388,0.0012217305,0.001985312,0.0009162979,-0.07543177,0.26861984,9.806032,2,1683969910.2239082
-0.0069516255,0.02695279,0.9988388,-0.0,-0.00290161,-0.0015271631,-0.07543177,0.26861984,9.806032,2,1683969910.2342007
-0.0069516255,0.02695279,0.9988388,-0.0,-0.00290161,-0.0015271631,-0.07555504,0.26856905,9.806032,2,1683969910.249549
-0.0069516255,0.02646496,0.9988388,-0.0,-0.00290161,-0.0015271631,-0.07555504,0.26856905,9.806032,2,1683969910.26494
-0.0069516255,0.02646496,0.9988388,-0.0,0.001985312,0.0009162979,-0.07555504,0.26856905,9.806032,2,1683969910.2905257
-0.0069516255,0.02646496,0.9988388,-0.0,0.001985312,0.0009162979,-0.07538197,0.26853698,9.806034,2,1683969910.295654
-0.007927292,0.02646496,0.9993266,-0.0,0.001985312,0.0009162979,-0.07538197,0.26853698,9.806034,2,1683969910.300781
-0.007927292,0.02646496,0.9993266,-0.0,-0.0041233404,0.0009162979,-0.07538197,0.26853698,9.806034,2,1683969910.311
-0.007927292,0.025977125,0.9998144,-0.0,-0.0041233404,0.0009162979,-0.07538197,0.26853698,9.806034,2,1683969910.3314867
-0.007927292,0.025977125,0.9998144,-0.0,-0.0041233404,0.0009162979,-0.07557746,0.26862487,9.80603,2,1683969910.3366182
-0.007927292,0.025977125,0.9998144,-0.0012217305,-0.0016798794,-0.00030543262,-0.07557746,0.26862487,9.80603,2,1683969910.3571253
-0.007927292,0.025977125,0.9998144,-0.0012217305,-0.0016798794,-0.00030543262,-0.0754239,0.2685817,9.806033,2,1683969910.3622494
-0.008415125,0.02646496,0.998351,-0.0012217305,-0.0016798794,-0.00030543262,-0.0754239,0.2685817,9.806033,2,1683969910.3673415
-0.0070126047,0.02695279,1.0017658,-0.0012217305,-0.0016798794,-0.00030543262,-0.0754239,0.2685817,9.806033,2,1683969910.3775642
-0.0070126047,0.02695279,1.0017658,0.0012217305,-0.00045814895,0.0009162979,-0.0754239,0.2685817,9.806033,2,1683969910.3929439
-0.0070126047,0.02695279,1.0017658,0.0012217305,-0.00045814895,0.0009162979,-0.07539874,0.2685999,9.806033,2,1683969910.3980534
-0.0070126047,0.02695279,1.0017658,-0.0,0.00076358154,-0.00030543262,-0.07539874,0.2685999,9.806033,2,1683969910.4134197
-0.0070126047,0.028904125,1.0003022,-0.0,0.00076358154,-0.00030543262,-0.07539874,0.2685999,9.806033,2,1683969910.4236753
-0.0070126047,0.028904125,1.0003022,0.0012217305,0.00076358154,0.0009162979,-0.07539874,0.2685999,9.806033,2,1683969910.428755
-0.0070126047,0.028904125,1.0003022,0.0012217305,0.00076358154,0.0009162979,-0.0762503,0.26942956,9.806004,2,1683969910.444094
-0.007927292,0.029391957,0.9988388,0.0012217305,0.00076358154,0.0009162979,-0.0762503,0.26942956,9.806004,2,1683969910.4594445
-0.007927292,0.029391957,0.9988388,0.0012217305,-0.00290161,-0.00030543262,-0.0762503,0.26942956,9.806004,2,1683969910.4645739
-0.0059759584,0.028904125,0.9978631,0.0012217305,-0.00290161,-0.00030543262,-0.0762503,0.26942956,9.806004,2,1683969910.4697099
-0.0059759584,0.028904125,0.9978631,0.0012217305,-0.00290161,-0.00030543262,-0.07634184,0.26948896,9.806001,2,1683969910.4748392
-0.00798827,0.027440626,0.9998144,0.0012217305,-0.00290161,-0.00030543262,-0.07634184,0.26948896,9.806001,2,1683969910.505378
-0.00798827,0.027440626,0.9998144,0.002443461,0.00076358154,-0.00030543262,-0.07634184,0.26948896,9.806001,2,1683969910.5207295
-0.00798827,0.027440626,0.9998144,0.002443461,0.00076358154,-0.00030543262,-0.076231554,0.26944947,9.806003,2,1683969910.5309849
-0.00798827,0.027440626,0.9998144,0.002443461,0.00076358154,-0.00030543262,-0.0761897,0.26945782,9.806004,2,1683969910.546378
-0.00798827,0.027440626,0.9998144,-0.0012217305,-0.00045814895,0.0009162979,-0.0761897,0.26945782,9.806004,2,1683969910.5565968
-0.007927292,0.02792846,0.9988388,-0.0012217305,-0.00045814895,0.0009162979,-0.0761897,0.26945782,9.806004,2,1683969910.5668488
-0.007927292,0.02792846,0.9988388,-0.0012217305,-0.00045814895,0.0009162979,-0.07614683,0.26939958,9.8060055,2,1683969910.587332
-0.007927292,0.02792846,0.9988388,-0.004886922,0.00061086525,-0.00030543262,-0.07614683,0.26939958,9.8060055,2,1683969910.597594
-0.008476105,0.02792846,1.0012169,-0.004886922,0.00061086525,-0.00030543262,-0.07614683,0.26939958,9.8060055,2,1683969910.6026957
-0.00798827,0.02695279,1.0003022,-0.004886922,0.00061086525,-0.00030543262,-0.07614683,0.26939958,9.8060055,2,1683969910.6128678
-0.00798827,0.02695279,1.0003022,-0.0012217305,0.00076358154,-0.00030543262,-0.07614683,0.26939958,9.8060055,2,1683969910.6333714
-0.00798827,0.02695279,1.0003022,-0.0012217305,0.00076358154,-0.00030543262,-0.07617022,0.26930392,9.806007,2,1683969910.6385128
-0.00798827,0.02695279,1.0003022,-0.0,0.00076358154,0.0009162979,-0.07617022,0.26930392,9.806007,2,1683969910.6436398
-0.00798827,0.02695279,1.0003022,-0.0,0.00076358154,0.0009162979,-0.07613721,0.2692172,9.80601,2,1683969910.6590214
-0.007927292,0.02792846,0.998351,-0.0,0.00076358154,0.0009162979,-0.07613721,0.2692172,9.80601,2,1683969910.6744132
-0.007927292,0.02792846,0.998351,0.002443461,0.00076358154,0.0009162979,-0.07613721,0.2692172,9.80601,2,1683969910.7050872
-0.00798827,0.027440626,0.9998144,-0.0,0.00076358154,-0.00030543262,-0.0761643,0.26878598,9.806022,2,1683969910.7154014
-0.0069516255,0.02695279,0.9988388,-0.0012217305,-0.00045814895,0.0009162979,-0.076137304,0.26872113,9.806024,2,1683969910.7205503
-0.007927292,0.028904125,0.998351,-0.0012217305,-0.00290161,0.0009162979,-0.07606757,0.26872024,9.806025,2,1683969910.7257707
-0.007927292,0.028904125,0.998351,0.0012217305,-0.0016798794,0.0009162979,-0.07606757,0.26872024,9.806025,2,1683969910.7513497
-0.007927292,0.028904125,0.998351,0.0012217305,-0.0016798794,0.0009162979,-0.07600123,0.2687318,9.806025,2,1683969910.7616093
-0.008415125,0.02792846,0.9988388,0.0012217305,-0.0016798794,0.0009162979,-0.07600123,0.2687318,9.806025,2,1683969910.7667375
-0.007927292,0.027440626,0.9973753,0.0012217305,-0.0016798794,0.0009162979,-0.07600123,0.2687318,9.806025,2,1683969910.7820892
-0.007927292,0.027440626,0.9973753,0.0012217305,-0.0016798794,0.0009162979,-0.075933754,0.26878396,9.806024,2,1683969910.7871985
-0.007927292,0.027440626,0.9973753,0.0012217305,-0.00045814895,0.0009162979,-0.075933754,0.26878396,9.806024,2,1683969910.7923274
-0.007927292,0.02792846,0.99829,0.0012217305,-0.00045814895,0.0009162979,-0.075933754,0.26878396,9.806024,2,1683969910.8077145
-0.007927292,0.02792846,0.99829,0.00015271631,-0.0016798794,0.001985312,-0.075933754,0.26878396,9.806024,2,1683969910.817881
-0.007927292,0.02792846,0.99829,0.00015271631,-0.0016798794,0.001985312,-0.07584854,0.2686371,9.806028,2,1683969910.8229995
-0.007927292,0.02792846,0.99829,-0.0022907446,0.00076358154,0.001985312,-0.07584854,0.2686371,9.806028,2,1683969910.8486094
-0.0060369377,0.027440626,1.0012169,-0.0022907446,0.00076358154,0.001985312,-0.07584854,0.2686371,9.806028,2,1683969910.853742
-0.0060369377,0.027440626,1.0012169,-0.0022907446,0.00076358154,0.001985312,-0.075983174,0.26865667,9.806026,2,1683969910.863973
-0.008476105,0.02841629,0.9997535,-0.0022907446,0.00076358154,0.001985312,-0.075983174,0.26865667,9.806026,2,1683969910.8895879
-0.008476105,0.02841629,0.9997535,-0.0022907446,0.00076358154,0.001985312,-0.07585877,0.2686777,9.806027,2,1683969910.894718
-0.008476105,0.02841629,0.9997535,-0.0010690142,-0.00290161,-0.00045814895,-0.07585877,0.2686777,9.806027,2,1683969910.9049244
-0.008476105,0.02841629,0.9997535,-0.0035124752,-0.0030543262,0.001985312,-0.07585877,0.2686777,9.806027,2,1683969910.925344
-0.007927292,0.02792846,0.9959117,-0.0035124752,-0.0030543262,0.001985312,-0.07585877,0.2686777,9.806027,2,1683969910.935606
-0.007927292,0.02792846,0.9959117,-0.0035124752,-0.0030543262,0.001985312,-0.07566,0.26863527,9.806029,2,1683969910.940737
-0.007927292,0.029391957,0.9963996,-0.0035124752,-0.0030543262,0.001985312,-0.07566,0.26863527,9.806029,2,1683969910.9612615
-0.007927292,0.029391957,0.9963996,-0.0035124752,-0.0030543262,0.001985312,-0.07538656,0.2685416,9.806034,2,1683969910.966392
-0.007927292,0.029391957,0.9963996,0.00015271631,0.00076358154,0.00076358154,-0.07538656,0.2685416,9.806034,2,1683969910.9817836
-0.0060369377,0.028904125,0.9998144,0.00015271631,0.00076358154,0.00076358154,-0.07538656,0.2685416,9.806034,2,1683969910.9920464
-0.0060369377,0.028904125,0.9998144,0.00015271631,0.004428773,0.00076358154,-0.07538656,0.2685416,9.806034,2,1683969911.007423
-0.0060369377,0.028904125,0.9998144,0.00015271631,0.004428773,0.00076358154,-0.07559435,0.26864693,9.80603,2,1683969911.0125258
-0.0069516255,0.02841629,0.9988388,0.00015271631,0.004428773,0.00076358154,-0.07559435,0.26864693,9.80603,2,1683969911.032972
-0.0069516255,0.02841629,0.9988388,0.00015271631,0.004428773,0.00076358154,-0.07583329,0.26884657,9.806023,2,1683969911.0431883
-0.0069516255,0.02841629,0.9988388,0.00015271631,-0.00290161,0.001985312,-0.07583329,0.26884657,9.806023,2,1683969911.0483239
-0.00798827,0.02841629,1.0002413,0.00015271631,-0.00290161,0.001985312,-0.07583329,0.26884657,9.806023,2,1683969911.053459
-0.00798827,0.02841629,1.0002413,0.00015271631,0.0032070426,-0.00045814895,-0.07583329,0.26884657,9.806023,2,1683969911.0739846
-0.00798827,0.02841629,1.0002413,0.00015271631,0.0032070426,-0.00045814895,-0.0759976,0.26893386,9.806019,2,1683969911.0791218
