acc_x,acc_y,acc_z,gyr_x,gyr_y,gyr_z,grav_x,grav_y,grav_z,label,timestamp
-0.0064637917,0.02792846,0.9988997,0.0010690142,0.004428773,0.0021380284,-0.08235197,0.26190516,9.806158,2,1683969841.2205584
-0.008476105,0.02695279,1.0012779,0.0022907446,0.00076358154,-0.00030543262,-0.08251182,0.2619173,9.806156,2,1683969841.2788413
-0.0075004376,0.027440626,1.0003633,-0.00015271631,-0.0016798794,0.0009162979,-0.08247584,0.2621203,9.806151,2,1683969841.2839835
-0.0074394583,0.025001459,0.9979241,-0.0025961774,-0.00061086525,-0.00030543262,-0.082270384,0.26174688,9.806163,2,1683969841.2892845
-0.0074394583,0.025001459,0.9979241,-0.0025961774,-0.0030543262,-0.0015271631,-0.082270384,0.26174688,9.806163,2,1683969841.2944067
-0.009878625,0.024513626,0.99938756,-0.00015271631,0.00076358154,0.0009162979,-0.08209995,0.2615777,9.806169,2,1683969841.3047585
-0.007927292,0.02646496,0.9979241,0.0010690142,0.00076358154,-0.00030543262,-0.08216513,0.26173097,9.806164,2,1683969841.391546
-0.007927292,0.02646496,0.9979241,0.0010690142,0.00076358154,-0.00030543262,-0.08210403,0.26167813,9.806167,2,1683969841.3966742
-0.005488125,0.025977125,0.9979241,0.0010690142,0.00076358154,-0.00030543262,-0.08210403,0.26167813,9.806167,2,1683969841.4171848
-0.005488125,0.025977125,0.9979241,0.0010690142,0.00076358154,-0.00030543262,-0.08217122,0.26172638,9.806164,2,1683969841.4223158
-0.005488125,0.025977125,0.9979241,-0.00015271631,0.00076358154,-0.0015271631,-0.08217122,0.26172638,9.806164,2,1683969841.4274113
-0.007927292,0.025977125,0.9998144,-0.00015271631,0.00076358154,-0.0015271631,-0.08217122,0.26172638,9.806164,2,1683969841.4530103
-0.007927292,0.025977125,0.9998144,-0.00015271631,0.00076358154,-0.0015271631,-0.082193494,0.26173386,9.806164,2,1683969841.4581394
-0.007927292,0.028904125,0.9979241,-0.00015271631,0.00076358154,-0.0015271631,-0.082193494,0.26173386,9.806164,2,1683969841.4940066
-0.007927292,0.028904125,0.9979241,0.0010690142,-0.00045814895,-0.00030543262,-0.082193494,0.26173386,9.806164,2,1683969841.5042644
-0.007927292,0.028904125,0.9979241,0.0010690142,-0.00045814895,-0.00030543262,-0.082101285,0.2616767,9.806166,2,1683969841.5093975
-0.007927292,0.028904125,0.9979241,0.0010690142,-0.00045814895,-0.00030543262,-0.08209177,0.26159805,9.806169,2,1683969841.5247865
-0.0075004376,0.025977125,1.0003022,0.0010690142,-0.00045814895,-0.00030543262,-0.08209177,0.26159805,9.806169,2,1683969841.5299218
-0.0075004376,0.025977125,1.0003022,-0.0013744468,0.001985312,-0.00030543262,-0.08209177,0.26159805,9.806169,2,1683969841.545309
-0.009390792,0.02646496,0.9984119,-0.0013744468,0.001985312,-0.00030543262,-0.08209177,0.26159805,9.806169,2,1683969841.5606818
-0.009390792,0.02646496,0.9984119,-0.00015271631,-0.0016798794,0.0009162979,-0.08209177,0.26159805,9.806169,2,1683969841.5709496
-0.009390792,0.02646496,0.9984119,-0.00015271631,-0.0016798794,0.0009162979,-0.082097344,0.26149407,9.80617,2,1683969841.5812159
-0.0074394583,0.025977125,0.99938756,-0.00015271631,-0.0016798794,0.0009162979,-0.082097344,0.26149407,9.80617,2,1683969841.5966
-0.0074394583,0.025977125,0.99938756,-0.00015271631,-0.0016798794,0.0009162979,-0.082095474,0.26152012,9.80617,2,1683969841.601731
-0.0074394583,0.025977125,0.99938756,0.0010690142,-0.0067195175,-0.00030543262,-0.082095474,0.26152012,9.80617,2,1683969841.6119924
-0.0074394583,0.025977125,0.99938756,0.0010690142,-0.0067195175,-0.00030543262,-0.081893966,0.26139164,9.806176,2,1683969841.6273417
-0.008902958,0.027440626,0.9993266,0.0010690142,-0.0067195175,-0.00030543262,-0.081893966,0.26139164,9.806176,2,1683969841.6324763
-0.008902958,0.027440626,0.9993266,-0.00015271631,0.001985312,0.0009162979,-0.081893966,0.26139164,9.806176,2,1683969841.637607
-0.008902958,0.027440626,0.9993266,-0.0013744468,0.00076358154,-0.0015271631,-0.081893966,0.26139164,9.806176,2,1683969841.6683297
-0.008902958,0.027440626,0.9993266,-0.0013744468,0.00076358154,-0.0015271631,-0.08200259,0.2613114,9.806177,2,1683969841.6785533
-0.009390792,0.027440626,0.9988388,-0.0013744468,-0.005497787,-0.0015271631,-0.08210405,0.26117152,9.80618,2,1683969841.6838605
-0.009390792,0.027440626,0.9988388,-0.0013744468,-0.005497787,-0.0015271631,-0.08178408,0.26110595,9.806184,2,1683969841.688995
-0.007927292,0.025977125,0.9988997,0.0022907446,0.00076358154,0.0009162979,-0.08178408,0.26110595,9.806184,2,1683969841.689006
-0.0064637917,0.02646496,0.9964606,0.0022907446,0.00076358154,0.0009162979,-0.08178408,0.26110595,9.806184,2,1683969841.6941276
-0.0064637917,0.02646496,0.9964606,-0.00015271631,-0.0016798794,0.0009162979,-0.08178408,0.26110595,9.806184,2,1683969841.7044141
-0.0064637917,0.02646496,0.9964606,-0.00015271631,-0.0016798794,0.0009162979,-0.08161778,0.2612323,9.806182,2,1683969841.7095025
-0.0064637917,0.02646496,0.9964606,-0.00015271631,-0.0016798794,0.0009162979,-0.08145532,0.26116213,9.806185,2,1683969841.7351098
-0.0064637917,0.02646496,0.9964606,-0.00015271631,-0.00045814895,-0.0015271631,-0.08145532,0.26116213,9.806185,2,1683969841.7402399
-0.007927292,0.02646496,0.9988997,-0.00015271631,-0.00045814895,-0.0015271631,-0.08145532,0.26116213,9.806185,2,1683969841.7607486
-0.00798827,0.02695279,1.0007901,-0.00015271631,-0.00045814895,-0.0015271631,-0.08145532,0.26116213,9.806185,2,1683969841.771006
-0.00798827,0.02695279,1.0007901,-0.00015271631,-0.0016798794,0.0009162979,-0.08145532,0.26116213,9.806185,2,1683969841.7761412
-0.00798827,0.02695279,1.0007901,-0.00015271631,-0.0016798794,0.0009162979,-0.08148126,0.2611538,9.806185,2,1683969841.7812715
-0.0075004376,0.02841629,0.9998144,-0.00015271631,-0.0016798794,0.0009162979,-0.08148126,0.2611538,9.806185,2,1683969841.8067987
-0.0075004376,0.02841629,0.9998144,-0.00015271631,-0.0016798794,0.0009162979,-0.081458956,0.26109374,9.806187,2,1683969841.82218
-0.0075004376,0.02841629,0.9998144,0.0010690142,0.00076358154,-0.00030543262,-0.081458956,0.26109374,9.806187,2,1683969841.8272715
-0.0075004376,0.02841629,0.9998144,-0.00015271631,-0.0016798794,0.0009162979,-0.081458956,0.26109374,9.806187,2,1683969841.832403
-0.008415125,0.027440626,0.9993266,-0.00015271631,-0.0016798794,0.0009162979,-0.081458956,0.26109374,9.806187,2,1683969841.8426588
-0.008415125,0.027440626,0.9993266,-0.00015271631,-0.0016798794,0.0009162979,-0.08150604,0.2612095,9.806184,2,1683969841.8529146
-0.008415125,0.027440626,0.9993266,-0.00015271631,-0.0016798794,0.0009162979,-0.08160168,0.26131558,9.80618,2,1683969841.883696
-0.008415125,0.027440626,0.9993266,-0.00015271631,0.001985312,-0.0015271631,-0.08160168,0.26131558,9.80618,2,1683969841.8887901
-0.00798827,0.02695279,1.0003022,-0.00015271631,0.001985312,-0.0015271631,-0.08160168,0.26131558,9.80618,2,1683969841.8989758
-0.007927292,0.027440626,0.99938756,-0.00015271631,0.001985312,-0.0015271631,-0.08160168,0.26131558,9.80618,2,1683969841.9091487
-0.007927292,0.027440626,0.99938756,-0.00015271631,0.001985312,-0.0015271631,-0.0818927,0.2612217,9.80618,2,1683969841.929631
-0.007927292,0.027440626,0.99938756,-0.0013744468,-0.0016798794,-0.00030543262,-0.0818927,0.2612217,9.80618,2,1683969841.9347644
-0.007927292,0.027440626,0.99938756,-0.0013744468,-0.0016798794,-0.00030543262,-0.082043216,0.2612791,9.806177,2,1683969841.9552405
-0.007927292,0.027440626,0.99938756,-0.0013744468,0.0056505036,0.0021380284,-0.082043216,0.2612791,9.806177,2,1683969841.9603724
-0.008902958,0.02646496,0.9974363,-0.0013744468,0.0056505036,0.0021380284,-0.082043216,0.2612791,9.806177,2,1683969841.9655004
-0.008902958,0.027440626,0.9993266,-0.0013744468,0.0056505036,0.0021380284,-0.082043216,0.2612791,9.806177,2,1683969841.9859185
-0.008902958,0.027440626,0.9993266,-0.0025961774,-0.00061086525,-0.00030543262,-0.082043216,0.2612791,9.806177,2,1683969841.9961033
-0.008902958,0.027440626,0.9993266,-0.0025961774,-0.00061086525,-0.00030543262,-0.08228066,0.26132122,9.806174,2,1683969842.0011895
-0.008902958,0.025001459,0.99938756,-0.0025961774,-0.00061086525,-0.00030543262,-0.08228066,0.26132122,9.806174,2,1683969842.0164876
-0.008902958,0.025001459,0.99938756,-0.0025961774,-0.00061086525,-0.00030543262,-0.08239565,0.26131058,9.806173,2,1683969842.0267484
-0.008902958,0.025001459,0.99938756,-0.0013744468,0.001985312,-0.0015271631,-0.08239565,0.26131058,9.806173,2,1683969842.0370142
-0.009390792,0.025977125,0.9993266,-0.0013744468,0.001985312,-0.0015271631,-0.08239565,0.26131058,9.806173,2,1683969842.057492
-0.009390792,0.025977125,0.9993266,-0.0013744468,0.001985312,-0.0015271631,-0.082294025,0.26118487,9.806177,2,1683969842.0677083
-0.009390792,0.025977125,0.9993266,0.0022907446,0.0032070426,0.0009162979,-0.082294025,0.26118487,9.806177,2,1683969842.0779564
-0.0074394583,0.025489293,0.9988997,0.0022907446,0.0032070426,0.0009162979,-0.082294025,0.26118487,9.806177,2,1683969842.0881736
-0.0074394583,0.025489293,0.9988997,0.0022907446,0.0032070426,0.0009162979,-0.08235116,0.26118904,9.806177,2,1683969842.1086206
-0.0074394583,0.025489293,0.9988997,0.0035124752,0.00076358154,0.0033597588,-0.08235116,0.26118904,9.806177,2,1683969842.113756
-0.007927292,0.025001459,0.9984119,0.0035124752,0.00076358154,0.0033597588,-0.08235116,0.26118904,9.806177,2,1683969842.1342635
-0.007927292,0.025001459,0.9984119,0.0010690142,-0.0016798794,-0.0015271631,-0.08235116,0.26118904,9.806177,2,1683969842.1445165
-0.007927292,0.025001459,0.9984119,0.0010690142,-0.0016798794,-0.0015271631,-0.08238105,0.26135084,9.806172,2,1683969842.1496487
-0.007927292,0.025001459,0.9984119,0.0010690142,-0.0016798794,-0.0015271631,-0.08239957,0.2613548,9.806172,2,1683969842.1599343
-0.007927292,0.025977125,0.99938756,0.0010690142,-0.0016798794,-0.0015271631,-0.08239957,0.2613548,9.806172,2,1683969842.17519
-0.007927292,0.025977125,0.99938756,0.0035124752,0.00076358154,-0.00030543262,-0.08239957,0.2613548,9.806172,2,1683969842.1854515
-0.007927292,0.025977125,0.99938756,0.0035124752,0.00076358154,-0.00030543262,-0.08229926,0.26143435,9.806171,2,1683969842.1957133
-0.0074394583,0.025001459,0.99938756,0.0035124752,0.00076358154,-0.00030543262,-0.08229926,0.26143435,9.806171,2,1683969842.2059717
-0.0074394583,0.025001459,0.99938756,-0.00015271631,-0.0016798794,0.0009162979,-0.08229926,0.26143435,9.806171,2,1683969842.211126
-0.0074394583,0.025001459,0.99938756,-0.0025961774,0.00076358154,0.0009162979,-0.08229926,0.26143435,9.806171,2,1683969842.226483
-0.009878625,0.02646496,0.9964606,-0.0025961774,0.00076358154,0.0009162979,-0.08229926,0.26143435,9.806171,2,1683969842.2316108
-0.009878625,0.02646496,0.9964606,-0.0025961774,0.00076358154,0.0009162979,-0.082151905,0.26138005,9.806173,2,1683969842.2470057
-0.009390792,0.02695279,0.9993266,-0.0025961774,0.00076358154,0.0009162979,-0.082151905,0.26138005,9.806173,2,1683969842.2726421
-0.009390792,0.02695279,0.9993266,-0.0025961774,0.00076358154,0.0009162979,-0.08225422,0.26126975,9.806176,2,1683969842.2777326
-0.009390792,0.02695279,0.9993266,-0.0013744468,0.004428773,-0.0015271631,-0.08225422,0.26126975,9.806176,2,1683969842.293122
-0.008415125,0.02646496,0.9984119,-0.0013744468,0.004428773,-0.0015271631,-0.08225422,0.26126975,9.806176,2,1683969842.3033412
-0.008415125,0.02646496,0.9984119,0.0010690142,-0.0016798794,0.0021380284,-0.08225422,0.26126975,9.806176,2,1683969842.3136015
-0.008415125,0.02646496,0.9984119,0.0010690142,-0.0016798794,0.0021380284,-0.082427196,0.26115605,9.806177,2,1683969842.328984
-0.00798827,0.02841629,0.9998144,0.0010690142,-0.0016798794,0.0021380284,-0.082427196,0.26115605,9.806177,2,1683969842.3341131
-0.00798827,0.02841629,0.9998144,0.0010690142,-0.0016798794,0.0021380284,-0.08244002,0.26109296,9.806179,2,1683969842.354526
-0.00798827,0.02841629,0.9998144,-0.0025961774,-0.00045814895,0.0009162979,-0.08244002,0.26109296,9.806179,2,1683969842.3647943
-0.007927292,0.027440626,0.9984119,-0.0025961774,-0.00045814895,0.0009162979,-0.08244002,0.26109296,9.806179,2,1683969842.3699243
-0.007927292,0.027440626,0.9984119,-0.00015271631,0.00076358154,0.0009162979,-0.08244002,0.26109296,9.806179,2,1683969842.3853073
-0.007927292,0.027440626,0.9984119,-0.00015271631,0.00076358154,0.0009162979,-0.082297444,0.26092252,9.806185,2,1683969842.3955557
-0.007927292,0.027440626,0.9984119,-0.00015271631,0.00076358154,0.0009162979,-0.0821891,0.260945,9.806185,2,1683969842.405817
-0.007927292,0.027440626,0.9984119,-0.0025961774,-0.0018325958,-0.0015271631,-0.0821891,0.260945,9.806185,2,1683969842.4109442
-0.007927292,0.02792846,0.9979241,-0.0025961774,-0.0018325958,-0.0015271631,-0.0821891,0.260945,9.806185,2,1683969842.4160678
-0.009451771,0.02646496,1.0003022,-0.0025961774,-0.0018325958,-0.0015271631,-0.0821891,0.260945,9.806185,2,1683969842.4570837
-0.009451771,0.02646496,1.0003022,-0.00015271631,-0.00045814895,0.0009162979,-0.0821891,0.260945,9.806185,2,1683969842.4621701
-0.009451771,0.02646496,1.0003022,-0.00015271631,-0.00045814895,0.0009162979,-0.08204026,0.2608325,9.806189,2,1683969842.4672635
-0.009451771,0.02646496,1.0003022,-0.00015271631,-0.00045814895,0.0009162979,-0.082059935,0.260827,9.80619,2,1683969842.4928668
-0.009390792,0.024513626,0.99938756,-0.00015271631,-0.00045814895,0.0009162979,-0.082059935,0.260827,9.80619,2,1683969842.4979992
-0.009390792,0.024513626,0.99938756,-0.00015271631,0.0032070426,-0.00030543262,-0.082059935,0.260827,9.80619,2,1683969842.5082662
-0.009390792,0.024513626,0.99938756,-0.0013744468,-0.00290161,0.0033597588,-0.082059935,0.260827,9.80619,2,1683969842.523652
-0.009390792,0.02646496,0.9988997,-0.0013744468,-0.00290161,0.0033597588,-0.082059935,0.260827,9.80619,2,1683969842.5287392
-0.009390792,0.02646496,0.9988997,-0.0013744468,-0.00290161,0.0033597588,-0.08217982,0.2607969,9.80619,2,1683969842.5389988
-0.009390792,0.02646496,0.9988997,-0.0013744468,-0.00290161,0.0033597588,-0.0821135,0.2606911,9.806192,2,1683969842.56465
-0.009390792,0.02646496,0.9988997,-0.0013744468,0.001985312,0.0009162979,-0.0821135,0.2606911,9.806192,2,1683969842.574908
-0.008415125,0.025977125,0.9984119,-0.0013744468,0.001985312,0.0009162979,-0.0821135,0.2606911,9.806192,2,1683969842.5800416
-0.009390792,0.025489293,0.9984119,-0.0013744468,0.001985312,0.0009162979,-0.0821135,0.2606911,9.806192,2,1683969842.5903103
-0.009390792,0.025489293,0.9984119,-0.0013744468,0.001985312,0.0009162979,-0.08221017,0.26050743,9.806196,2,1683969842.6056201
-0.009390792,0.025489293,0.9984119,0.0010690142,0.00076358154,-0.0015271631,-0.08221017,0.26050743,9.806196,2,1683969842.6158814
-0.009390792,0.027440626,0.99938756,0.0010690142,0.00076358154,-0.0015271631,-0.08221017,0.26050743,9.806196,2,1683969842.6311915
-0.009390792,0.027440626,0.99938756,0.0010690142,0.00076358154,-0.0015271631,-0.082202554,0.26053432,9.806195,2,1683969842.6363242
-0.009390792,0.027440626,0.99938756,0.0022907446,0.00076358154,-0.0015271631,-0.082202554,0.26053432,9.806195,2,1683969842.6414154
-0.009390792,0.027440626,0.99938756,-0.00015271631,-0.0016798794,0.0021380284,-0.082202554,0.26053432,9.806195,2,1683969842.6722345
-0.007927292,0.025977125,0.99987537,-0.00015271631,-0.0016798794,0.0021380284,-0.082202554,0.26053432,9.806195,2,1683969842.6773636
-0.007927292,0.025977125,0.99987537,-0.00015271631,-0.0016798794,0.0021380284,-0.082178615,0.26053855,9.806195,2,1683969842.68249
-0.009451771,0.027440626,1.0022537,-0.00015271631,-0.0016798794,0.0021380284,-0.082178615,0.26053855,9.806195,2,1683969842.7133038
-0.009451771,0.027440626,1.0022537,-0.0013744468,0.00076358154,0.0009162979,-0.082178615,0.26053855,9.806195,2,1683969842.7184076
-0.009451771,0.027440626,1.0022537,-0.0013744468,0.00076358154,0.0009162979,-0.082094766,0.26055822,9.806195,2,1683969842.7234888
-0.010854292,0.025001459,0.9988388,-0.0013744468,0.00076358154,0.0009162979,-0.082094766,0.26055822,9.806195,2,1683969842.7285836
-0.009390792,0.025001459,0.9969484,-0.0013744468,0.00076358154,0.0009162979,-0.082094766,0.26055822,9.806195,2,1683969842.7490745
-0.009390792,0.025001459,0.9969484,0.0010690142,0.00076358154,0.0009162979,-0.082094766,0.26055822,9.806195,2,1683969842.754205
-0.009390792,0.025001459,0.9969484,0.0010690142,0.00076358154,0.0009162979,-0.08261831,0.26029083,9.806198,2,1683969842.7592952
-0.009390792,0.025001459,0.9969484,0.0010690142,0.00076358154,0.0009162979,-0.0826493,0.26036277,9.806196,2,1683969842.7746787
-0.009390792,0.025001459,0.9969484,0.0010690142,-0.00045814895,-0.00030543262,-0.0826493,0.26036277,9.806196,2,1683969842.7798088
-0.009390792,0.02646496,0.9979241,0.0010690142,-0.00045814895,-0.00030543262,-0.0826493,0.26036277,9.806196,2,1683969842.7900717
-0.009390792,0.024025792,0.9974363,0.0010690142,-0.00045814895,-0.00030543262,-0.0826493,0.26036277,9.806196,2,1683969842.8207574
-0.009390792,0.024025792,0.9974363,0.0010690142,-0.00045814895,-0.00030543262,-0.08261972,0.26022798,9.8062,2,1683969842.825841
-0.009390792,0.024025792,0.9974363,0.0010690142,-0.00045814895,0.0009162979,-0.08261972,0.26022798,9.8062,2,1683969842.8309567
-0.008902958,0.027440626,0.9988997,0.0010690142,-0.00045814895,0.0009162979,-0.08261972,0.26022798,9.8062,2,1683969842.8514402
-0.008902958,0.027440626,0.9988997,0.0010690142,-0.00045814895,0.0009162979,-0.08254252,0.26021174,9.806201,2,1683969842.856575
-0.008902958,0.027440626,0.9988997,0.0022907446,0.00076358154,0.0009162979,-0.08254252,0.26021174,9.806201,2,1683969842.8617027
-0.008902958,0.027440626,0.9988997,0.0022907446,0.00076358154,-0.0027488936,-0.08254252,0.26021174,9.806201,2,1683969842.8872976
-0.008902958,0.027440626,0.9988997,0.0022907446,0.00076358154,-0.0027488936,-0.08256545,0.26026344,9.8062,2,1683969842.8924239
-0.008902958,0.025977125,0.9984119,0.0022907446,0.00076358154,-0.0027488936,-0.08256545,0.26026344,9.8062,2,1683969842.8975565
-0.008902958,0.025977125,0.9984119,-0.0013744468,0.00076358154,0.0009162979,-0.08256545,0.26026344,9.8062,2,1683969842.9230835
-0.007927292,0.02695279,0.9984119,-0.0013744468,0.00076358154,0.0009162979,-0.08256545,0.26026344,9.8062,2,1683969842.9332783
-0.007927292,0.02695279,0.9984119,-0.0013744468,0.00076358154,0.0009162979,-0.08254827,0.26040256,9.806196,2,1683969842.9384086
-0.007927292,0.02695279,0.9984119,-0.00015271631,0.001985312,-0.0015271631,-0.08254827,0.26040256,9.806196,2,1683969842.9486632
-0.007927292,0.02695279,0.9984119,-0.00015271631,0.001985312,-0.0015271631,-0.0823896,0.26040468,9.806197,2,1683969842.9537957
-0.009878625,0.025977125,0.9979241,-0.00015271631,0.001985312,-0.0015271631,-0.0823896,0.26040468,9.806197,2,1683969842.9691029
-0.009878625,0.025977125,0.9979241,-0.00015271631,0.001985312,-0.0015271631,-0.08244443,0.26036432,9.806198,2,1683969842.9997993
-0.009878625,0.025977125,0.9979241,0.0012217305,0.001985312,-0.00030543262,-0.08244443,0.26036432,9.806198,2,1683969843.0049322
-0.0074394583,0.02646496,0.99938756,0.0012217305,0.001985312,-0.00030543262,-0.08244443,0.26036432,9.806198,2,1683969843.040667
-0.0074394583,0.02646496,0.99938756,0.0012217305,0.001985312,-0.00030543262,-0.08231882,0.26091027,9.806185,2,1683969843.0457983
-0.0074394583,0.02646496,0.99938756,0.0,0.001985312,0.0009162979,-0.08231882,0.26091027,9.806185,2,1683969843.0509295
-0.0074394583,0.02646496,0.99938756,0.0012217305,0.001985312,-0.0015271631,-0.08231882,0.26091027,9.806185,2,1683969843.056062
-0.0074394583,0.02646496,0.99938756,0.0012217305,0.001985312,-0.0015271631,-0.082291685,0.2609346,9.806185,2,1683969843.0817118
-0.009390792,0.024513626,0.9988997,0.0012217305,0.001985312,-0.0015271631,-0.082291685,0.2609346,9.806185,2,1683969843.0868516
-0.009390792,0.024513626,0.9988997,0.0012217305,-0.00290161,0.0021380284,-0.082291685,0.2609346,9.806185,2,1683969843.0971117
-0.0074394583,0.025977125,0.9974363,0.0012217305,-0.00290161,0.0021380284,-0.082291685,0.2609346,9.806185,2,1683969843.10737
-0.0074394583,0.025977125,0.9974363,0.0012217305,-0.00290161,0.0021380284,-0.08243891,0.26106545,9.806179,2,1683969843.112503
-0.0074394583,0.025977125,0.9974363,0.0012217305,-0.00290161,0.0021380284,-0.082444906,0.26101515,9.806181,2,1683969843.132906
-0.009390792,0.025489293,0.9988388,0.0012217305,-0.00290161,0.0021380284,-0.082444906,0.26101515,9.806181,2,1683969843.1431174
-0.009390792,0.025489293,0.9988388,0.0,-0.0016798794,-0.00030543262,-0.082444906,0.26101515,9.806181,2,1683969843.1585019
-0.008415125,0.02695279,0.9984119,0.0,-0.0016798794,-0.00030543262,-0.082444906,0.26101515,9.806181,2,1683969843.1687644
-0.008415125,0.02695279,0.9984119,0.0,-0.0016798794,-0.00030543262,-0.08244947,0.26105377,9.80618,2,1683969843.1790233
-0.008415125,0.02695279,0.9984119,-0.0012217305,-0.0016798794,0.0009162979,-0.08244947,0.26105377,9.80618,2,1683969843.1944087
-0.008415125,0.02695279,0.9984119,0.0,0.0032070426,-0.00030543262,-0.08244947,0.26105377,9.80618,2,1683969843.214879
-0.00798827,0.02792846,1.0003022,0.0,0.0032070426,-0.00030543262,-0.08244947,0.26105377,9.80618,2,1683969843.2199736
-0.00798827,0.02792846,1.0003022,0.0,0.0032070426,-0.00030543262,-0.08242369,0.26103038,9.80618,2,1683969843.2250693
-0.007927292,0.02695279,0.9984119,0.0,0.0032070426,-0.00030543262,-0.08242369,0.26103038,9.80618,2,1683969843.250634
-0.007927292,0.02695279,0.9984119,0.0012217305,-0.00045814895,-0.0015271631,-0.08242369,0.26103038,9.80618,2,1683969843.255765
-0.007927292,0.02695279,0.9984119,0.0012217305,-0.00045814895,-0.0015271631,-0.08276716,0.26102272,9.806178,2,1683969843.260899
-0.0074394583,0.02646496,0.9974363,0.0012217305,-0.00045814895,-0.0015271631,-0.08276716,0.26102272,9.806178,2,1683969843.307026
-0.0074394583,0.02646496,0.9974363,0.0012217305,-0.00045814895,-0.0015271631,-0.08313056,0.26025513,9.806195,2,1683969843.31215
-0.0074394583,0.02646496,0.9974363,0.0012217305,0.001985312,-0.00030543262,-0.08313056,0.26025513,9.806195,2,1683969843.3172452
-0.010854292,0.025489293,0.9984119,0.0012217305,0.001985312,-0.00030543262,-0.08313056,0.26025513,9.806195,2,1683969843.3223755
-0.010854292,0.025489293,0.9984119,0.0,0.001985312,-0.00030543262,-0.08313056,0.26025513,9.806195,2,1683969843.3480225
-0.010854292,0.025489293,0.9984119,0.0,0.001985312,-0.00030543262,-0.08310923,0.2602549,9.806195,2,1683969843.3531485
-0.010854292,0.025489293,0.9984119,0.0,0.001985312,-0.0015271631,-0.08310923,0.2602549,9.806195,2,1683969843.3685381
-0.008963938,0.02646496,1.0003633,0.0,0.001985312,-0.0015271631,-0.08310923,0.2602549,9.806195,2,1683969843.378801
-0.008963938,0.02646496,1.0003633,0.0,0.001985312,-0.0015271631,-0.08316493,0.260277,9.806194,2,1683969843.3839316
-0.008963938,0.02646496,1.0003633,0.0012217305,-0.00045814895,0.0009162979,-0.08316493,0.260277,9.806194,2,1683969843.3941963
-0.008963938,0.02646496,1.0003633,0.0012217305,-0.00045814895,0.0009162979,-0.08323585,0.26028702,9.806194,2,1683969843.41979
-0.0074394583,0.027440626,0.9988997,0.0012217305,-0.00045814895,0.0009162979,-0.08323585,0.26028702,9.806194,2,1683969843.4249244
-0.0074394583,0.027440626,0.9988997,0.0012217305,-0.00045814895,0.0009162979,-0.08308702,0.26032785,9.806193,2,1683969843.4505723
-0.008415125,0.027440626,0.9969484,0.0012217305,-0.00045814895,0.0009162979,-0.08308702,0.26032785,9.806193,2,1683969843.4557023
-0.008415125,0.027440626,0.9969484,0.0,0.001985312,-0.00030543262,-0.08308702,0.26032785,9.806193,2,1683969843.4608366
-0.008415125,0.027440626,0.9969484,0.0012217305,0.008093964,-0.00030543262,-0.08308702,0.26032785,9.806193,2,1683969843.4659674
-0.008415125,0.027440626,0.9969484,0.0012217305,0.008093964,-0.00030543262,-0.08305955,0.26037577,9.806192,2,1683969843.4915726
-0.009390792,0.025489293,0.9969484,0.0012217305,0.008093964,-0.00030543262,-0.08305955,0.26037577,9.806192,2,1683969843.496712
-0.009390792,0.025489293,0.9969484,-0.0012217305,-0.0016798794,0.0009162979,-0.08305955,0.26037577,9.806192,2,1683969843.5069768
-0.009390792,0.025489293,0.9969484,-0.0012217305,-0.0016798794,0.0009162979,-0.08332314,0.26052943,9.806187,2,1683969843.5120819
-0.009878625,0.023537958,0.9984119,-0.0012217305,-0.0016798794,0.0009162979,-0.08332314,0.26052943,9.806187,2,1683969843.5223455
-0.009878625,0.023537958,0.9984119,-0.0012217305,-0.0016798794,0.0009162979,-0.08325259,0.26046255,9.806189,2,1683969843.5531075
-0.009878625,0.023537958,0.9984119,-0.0012217305,-0.0016798794,-0.00030543262,-0.08325259,0.26046255,9.806189,2,1683969843.5582345
-0.009878625,0.023537958,0.9984119,-0.0012217305,-0.0016798794,-0.00030543262,-0.083376385,0.2603569,9.8061905,2,1683969843.5736039
-0.009878625,0.023537958,0.9984119,0.0012217305,0.0032070426,-0.00030543262,-0.083376385,0.2603569,9.8061905,2,1683969843.5787325
-0.0069516255,0.02646496,0.9984119,0.0012217305,0.0032070426,-0.00030543262,-0.083376385,0.2603569,9.8061905,2,1683969843.5889852
-0.0069516255,0.02646496,0.9984119,-0.002443461,-0.0018325958,0.0009162979,-0.083376385,0.2603569,9.8061905,2,1683969843.6043196
-0.0059759584,0.025977125,0.99987537,-0.002443461,-0.0018325958,0.0009162979,-0.083376385,0.2603569,9.8061905,2,1683969843.6094635
-0.0059759584,0.025977125,0.99987537,-0.002443461,-0.0018325958,0.0009162979,-0.08338733,0.2603437,9.8061905,2,1683969843.6248462
-0.0059759584,0.025977125,0.99987537,-0.002443461,0.00076358154,0.0009162979,-0.08338733,0.2603437,9.8061905,2,1683969843.6453383
-0.00798827,0.025977125,1.0003633,-0.002443461,0.00076358154,0.0009162979,-0.08338733,0.2603437,9.8061905,2,1683969843.6555958
-0.00798827,0.025977125,1.0003633,-0.002443461,0.00076358154,0.0009162979,-0.08341975,0.26027313,9.806192,2,1683969843.6658611
-0.008902958,0.027440626,0.9974363,-0.002443461,0.00076358154,0.0009162979,-0.08341975,0.26027313,9.806192,2,1683969843.6914961
-0.008902958,0.027440626,0.9974363,0.0,-0.00045814895,-0.00030543262,-0.08341975,0.26027313,9.806192,2,1683969843.6966372
-0.008902958,0.027440626,0.9974363,0.0,-0.00045814895,-0.00030543262,-0.083454005,0.26010588,9.806196,2,1683969843.7017822
-0.007927292,0.02646496,0.99987537,0.0,-0.00045814895,-0.00030543262,-0.083454005,0.26010588,9.806196,2,1683969843.7171419
-0.007927292,0.02646496,0.99987537,0.0,0.00076358154,-0.00030543262,-0.083454005,0.26010588,9.806196,2,1683969843.7273612
-0.007927292,0.02646496,0.99987537,0.0,0.00076358154,-0.00030543262,-0.08342884,0.2600471,9.806198,2,1683969843.7324917
-0.007927292,0.02646496,0.99987537,0.0,0.001985312,0.0009162979,-0.08342884,0.2600471,9.806198,2,1683969843.7581556
-0.008902958,0.025977125,0.99987537,0.0,0.001985312,0.0009162979,-0.08342884,0.2600471,9.806198,2,1683969843.763208
-0.008902958,0.025977125,0.99987537,0.0,0.001985312,0.0009162979,-0.08361142,0.26010078,9.806195,2,1683969843.7734632
-0.008902958,0.025977125,0.99987537,0.0,0.001985312,0.0009162979,-0.083746895,0.26009965,9.806194,2,1683969843.7888548
-0.008902958,0.025977125,0.99987537,0.0012217305,-0.00045814895,-0.00030543262,-0.083746895,0.26009965,9.806194,2,1683969843.79399
-0.009390792,0.025977125,0.9988997,0.0012217305,-0.00045814895,-0.00030543262,-0.083746895,0.26009965,9.806194,2,1683969843.7990816
-0.008415125,0.025489293,0.9974363,0.0012217305,-0.00045814895,-0.00030543262,-0.083746895,0.26009965,9.806194,2,1683969843.8246946
-0.008415125,0.025489293,0.9974363,-0.0012217305,0.001985312,0.0009162979,-0.083746895,0.26009965,9.806194,2,1683969843.8298314
-0.008415125,0.025489293,0.9974363,0.0012217305,-0.0016798794,0.0009162979,-0.083746895,0.26009965,9.806194,2,1683969843.850313
-0.0074394583,0.02792846,0.9974363,0.0012217305,-0.0016798794,0.0009162979,-0.083746895,0.26009965,9.806194,2,1683969843.8554382
-0.0074394583,0.02792846,0.9974363,0.0012217305,-0.0016798794,0.0009162979,-0.08353934,0.25972894,9.806206,2,1683969843.8605747
-0.0075004376,0.02695279,1.0007901,0.0012217305,-0.0016798794,0.0009162979,-0.08353934,0.25972894,9.806206,2,1683969843.891305
-0.0075004376,0.02695279,1.0007901,-0.0012217305,-0.0016798794,-0.00030543262,-0.08353934,0.25972894,9.806206,2,1683969843.896448
-0.0075004376,0.02695279,1.0007901,-0.0012217305,-0.0016798794,-0.00030543262,-0.0834525,0.25972039,9.806207,2,1683969843.906712
-0.0075004376,0.02695279,1.0007901,0.0,-0.0041233404,0.0033597588,-0.0834525,0.25972039,9.806207,2,1683969843.9118395
-0.008415125,0.02792846,0.9988997,0.0,-0.0041233404,0.0033597588,-0.0834525,0.25972039,9.806207,2,1683969843.9169714
-0.008415125,0.02792846,0.9988997,0.0,-0.0041233404,0.0033597588,-0.08327839,0.2596465,9.8062105,2,1683969843.9271774
-0.0069516255,0.025977125,0.99987537,0.0,-0.0041233404,0.0033597588,-0.08327839,0.2596465,9.8062105,2,1683969843.957976
-0.0069516255,0.025977125,0.99987537,0.0,-0.0041233404,0.0033597588,-0.08315702,0.2596525,9.8062105,2,1683969843.968244
-0.0069516255,0.025977125,0.99987537,-0.0012217305,0.0032070426,-0.00030543262,-0.08315702,0.2596525,9.8062105,2,1683969843.9733753
-0.0069516255,0.025977125,0.99987537,0.0,-0.00045814895,-0.0015271631,-0.08315702,0.2596525,9.8062105,2,1683969843.9836361
-0.0069516255,0.025977125,0.99987537,0.0,-0.00045814895,-0.0015271631,-0.08329845,0.25964108,9.8062105,2,1683969843.9938962
-0.007927292,0.025489293,0.9979241,0.0,-0.00045814895,-0.0015271631,-0.08329845,0.25964108,9.8062105,2,1683969844.009247
-0.007927292,0.025489293,0.9979241,-0.0012217305,0.00076358154,0.0009162979,-0.08329845,0.25964108,9.8062105,2,1683969844.0195076
-0.007927292,0.025489293,0.9979241,-0.0012217305,0.00076358154,0.0009162979,-0.0833115,0.25961158,9.8062105,2,1683969844.024638
-0.0075004376,0.023598937,1.0012779,-0.0012217305,0.00076358154,0.0009162979,-0.0833115,0.25961158,9.8062105,2,1683969844.0502856
-0.0075004376,0.023598937,1.0012779,-0.0012217305,0.00076358154,-0.00030543262,-0.0833115,0.25961158,9.8062105,2,1683969844.0605395
-0.0075004376,0.023598937,1.0012779,-0.0012217305,0.00076358154,-0.00030543262,-0.08323539,0.2594424,9.806215,2,1683969844.0656714
-0.007927292,0.02792846,0.9988388,-0.0012217305,0.00076358154,-0.00030543262,-0.08323539,0.2594424,9.806215,2,1683969844.075929
-0.008902958,0.025977125,0.9974363,-0.0012217305,0.00076358154,-0.00030543262,-0.08323539,0.2594424,9.806215,2,1683969844.1117744
-0.008902958,0.025977125,0.9974363,-0.0012217305,0.00076358154,-0.00030543262,-0.08321786,0.25926995,9.806221,2,1683969844.1169097
-0.008415125,0.02646496,0.9984119,-0.0012217305,0.00076358154,-0.00030543262,-0.08321786,0.25926995,9.806221,2,1683969844.1425512
-0.008415125,0.02646496,0.9984119,-0.0012217305,0.00076358154,-0.00030543262,-0.083471075,0.25943875,9.806213,2,1683969844.1476905
-0.008415125,0.02646496,0.9984119,-0.0012217305,-0.00045814895,-0.0015271631,-0.083471075,0.25943875,9.806213,2,1683969844.1528268
-0.008415125,0.02646496,0.9984119,0.0036651916,0.00076358154,0.0009162979,-0.083471075,0.25943875,9.806213,2,1683969844.15796
-0.008476105,0.025001459,1.0003633,0.0036651916,0.00076358154,0.0009162979,-0.083471075,0.25943875,9.806213,2,1683969844.183519
-0.008476105,0.025001459,1.0003633,0.0036651916,0.00076358154,0.0009162979,-0.08331771,0.25944778,9.806215,2,1683969844.188651
-0.008476105,0.025001459,1.0003633,0.0,-0.00045814895,-0.0015271631,-0.08331771,0.25944778,9.806215,2,1683969844.198889
-0.008476105,0.02646496,1.0003022,0.0,-0.00045814895,-0.0015271631,-0.08331771,0.25944778,9.806215,2,1683969844.2040098
-0.008476105,0.02646496,1.0003022,0.0,-0.00045814895,-0.0015271631,-0.083228186,0.25950134,9.806214,2,1683969844.2090988
-0.008415125,0.028355313,0.9954849,0.0,-0.00045814895,-0.0015271631,-0.083228186,0.25950134,9.806214,2,1683969844.2347097
-0.008415125,0.028355313,0.9954849,0.0,-0.00045814895,-0.00030543262,-0.083228186,0.25950134,9.806214,2,1683969844.2450094
-0.008415125,0.028355313,0.9954849,0.0,-0.00045814895,-0.00030543262,-0.08320951,0.25946653,9.806215,2,1683969844.2501411
-0.008415125,0.028355313,0.9954849,-0.0012217305,-0.00045814895,-0.00030543262,-0.08320951,0.25946653,9.806215,2,1683969844.2809193
-0.008415125,0.028355313,0.9954849,-0.0012217305,-0.00045814895,-0.00030543262,-0.083125636,0.25945768,9.806216,2,1683969844.2911956
-0.009390792,0.02695279,0.9984119,-0.0012217305,-0.00045814895,-0.00030543262,-0.083125636,0.25945768,9.806216,2,1683969844.296327
-0.009390792,0.02695279,0.9984119,0.0012217305,0.00076358154,-0.00030543262,-0.083125636,0.25945768,9.806216,2,1683969844.3117216
-0.008415125,0.025977125,0.99987537,0.0012217305,0.00076358154,-0.00030543262,-0.083125636,0.25945768,9.806216,2,1683969844.321985
-0.008415125,0.025977125,0.99987537,0.0012217305,0.00076358154,-0.00030543262,-0.08317259,0.25947833,9.806215,2,1683969844.3322523
-0.008963938,0.025489293,1.0012779,0.0012217305,0.00076358154,-0.00030543262,-0.08317259,0.25947833,9.806215,2,1683969844.357868
-0.008963938,0.025489293,1.0012779,-0.0012217305,0.001985312,0.0009162979,-0.08317259,0.25947833,9.806215,2,1683969844.3630002
-0.008963938,0.025489293,1.0012779,-0.0012217305,0.001985312,0.0009162979,-0.08319274,0.25956288,9.806212,2,1683969844.3681295
-0.008963938,0.025489293,1.0012779,-0.0012217305,0.001985312,0.0009162979,-0.08340348,0.2595488,9.806211,2,1683969844.3783882
-0.008963938,0.025489293,1.0012779,0.0012217305,0.00076358154,0.0009162979,-0.08340348,0.2595488,9.806211,2,1683969844.3835268
-0.009390792,0.02695279,0.9969484,0.0012217305,0.00076358154,0.0009162979,-0.08340348,0.2595488,9.806211,2,1683969844.3937912
-0.009390792,0.02695279,0.9969484,0.0012217305,0.00076358154,0.0009162979,-0.0824456,0.25906694,9.806232,2,1683969844.3989253
-0.009390792,0.025489293,0.9988388,0.0012217305,0.00076358154,0.0009162979,-0.0824456,0.25906694,9.806232,2,1683969844.4091887
-0.009390792,0.025489293,0.9988388,0.0012217305,0.00076358154,0.0009162979,-0.0822766,0.25899336,9.806235,2,1683969844.4194448
-0.009390792,0.02695279,0.99938756,0.0012217305,0.00076358154,0.0009162979,-0.0822766,0.25899336,9.806235,2,1683969844.4245782
-0.009390792,0.02695279,0.99938756,0.0,0.00076358154,-0.0015271631,-0.0822766,0.25899336,9.806235,2,1683969844.4450967
-0.008415125,0.02646496,0.9979241,0.0,0.00076358154,-0.0015271631,-0.0822766,0.25899336,9.806235,2,1683969844.475806
-0.008415125,0.02646496,0.9979241,-0.0012217305,0.001985312,0.0021380284,-0.0822766,0.25899336,9.806235,2,1683969844.4809005
-0.008415125,0.02646496,0.9979241,-0.0012217305,0.001985312,0.0021380284,-0.08237279,0.25893912,9.806236,2,1683969844.4860232
-0.007927292,0.025489293,0.99987537,-0.0012217305,0.001985312,0.0021380284,-0.08237279,0.25893912,9.806236,2,1683969844.4962585
-0.007927292,0.025489293,0.99987537,-0.0012217305,-0.0016798794,0.0009162979,-0.08237279,0.25893912,9.806236,2,1683969844.5013897
-0.007927292,0.025489293,0.99987537,-0.0012217305,-0.0016798794,0.0009162979,-0.08246593,0.25888374,9.806237,2,1683969844.5065212
-0.007927292,0.025489293,0.99987537,-0.0012217305,0.001985312,0.0009162979,-0.08246593,0.25888374,9.806237,2,1683969844.5373418
-0.007927292,0.025489293,0.99987537,-0.0012217305,0.001985312,0.0009162979,-0.082481995,0.25872874,9.806241,2,1683969844.5476003
-0.0074394583,0.024513626,0.99987537,-0.0012217305,0.001985312,0.0009162979,-0.082481995,0.25872874,9.806241,2,1683969844.5527372
-0.0069516255,0.02646496,0.99987537,-0.0012217305,0.001985312,0.0009162979,-0.082481995,0.25872874,9.806241,2,1683969844.5732572
-0.0069516255,0.02646496,0.99987537,-0.0012217305,0.001985312,0.0009162979,-0.08250573,0.2587679,9.80624,2,1683969844.5886426
-0.0069516255,0.02646496,0.99987537,0.0012217305,-0.0016798794,-0.0015271631,-0.08250573,0.2587679,9.80624,2,1683969844.593774
-0.0069516255,0.02646496,0.99987537,0.0012217305,-0.0016798794,-0.0015271631,-0.08261944,0.25880998,9.806238,2,1683969844.604032
-0.008963938,0.025489293,1.0003633,0.0012217305,-0.0016798794,-0.0015271631,-0.08261944,0.25880998,9.806238,2,1683969844.6091602
-0.008963938,0.025489293,1.0003633,0.002443461,-0.00045814895,-0.00030543262,-0.08261944,0.25880998,9.806238,2,1683969844.6245763
-0.008963938,0.025489293,1.0003633,0.002443461,0.0032070426,0.0009162979,-0.08261944,0.25880998,9.806238,2,1683969844.6552784
-0.008963938,0.025489293,1.0003633,0.002443461,0.0032070426,0.0009162979,-0.08255965,0.25897315,9.806233,2,1683969844.660437
-0.0069516255,0.02695279,0.9988997,0.002443461,0.0032070426,0.0009162979,-0.08255965,0.25897315,9.806233,2,1683969844.6655293
-0.0069516255,0.02695279,0.9988997,0.0012217305,0.001985312,-0.00030543262,-0.08255965,0.25897315,9.806233,2,1683969844.6757703
-0.008902958,0.02646496,0.9984119,0.0012217305,0.001985312,-0.00030543262,-0.08255965,0.25897315,9.806233,2,1683969844.6809063
-0.008902958,0.02646496,0.9984119,0.0012217305,0.001985312,-0.00030543262,-0.0827129,0.25872517,9.806239,2,1683969844.6911287
-0.008902958,0.02646496,0.9984119,0.0,0.00076358154,-0.0015271631,-0.0827129,0.25872517,9.806239,2,1683969844.7116532
-0.008902958,0.02646496,0.9984119,0.0,0.00076358154,-0.0015271631,-0.08285847,0.2587523,9.806237,2,1683969844.7321703
-0.009390792,0.025977125,0.9988997,0.0,0.00076358154,-0.0015271631,-0.08285847,0.2587523,9.806237,2,1683969844.737305
-0.009878625,0.025489293,0.99987537,0.0,0.00076358154,-0.0015271631,-0.08285847,0.2587523,9.806237,2,1683969844.757785
-0.009878625,0.025489293,0.99987537,0.0012217305,0.00076358154,-0.0015271631,-0.08285847,0.2587523,9.806237,2,1683969844.7680101
-0.009878625,0.025489293,0.99987537,0.0012217305,0.00076358154,-0.0015271631,-0.08292206,0.25870252,9.806238,2,1683969844.773143
-0.007927292,0.027440626,0.9988997,0.0012217305,0.00076358154,-0.0015271631,-0.08292206,0.25870252,9.806238,2,1683969844.783357
-0.007927292,0.027440626,0.9988997,0.0012217305,0.00076358154,-0.0015271631,-0.082952306,0.25872284,9.806237,2,1683969844.7987435
-0.007927292,0.027440626,0.9988997,-0.0012217305,-0.00045814895,0.0021380284,-0.082952306,0.25872284,9.806237,2,1683969844.8038678
-0.007927292,0.027440626,0.9988997,-0.0012217305,-0.00045814895,0.0021380284,-0.082905516,0.25863892,9.806239,2,1683969844.8294692
-0.007927292,0.027440626,0.9988997,-0.0012217305,0.001985312,-0.0015271631,-0.082905516,0.25863892,9.806239,2,1683969844.834601
-0.0074394583,0.025489293,0.9988997,-0.0012217305,0.001985312,-0.0015271631,-0.082905516,0.25863892,9.806239,2,1683969844.8397305
-0.0069516255,0.02646496,0.99938756,-0.0012217305,0.001985312,-0.0015271631,-0.082905516,0.25863892,9.806239,2,1683969844.8551235
-0.0069516255,0.02646496,0.99938756,-0.0012217305,0.001985312,-0.0015271631,-0.08297653,0.25859988,9.80624,2,1683969844.8602548
-0.0069516255,0.02646496,0.99938756,-0.002443461,-0.0018325958,-0.00030543262,-0.08297653,0.25859988,9.80624,2,1683969844.8705122
-0.0069516255,0.02646496,0.99938756,0.0012217305,0.00076358154,-0.00030543262,-0.08297653,0.25859988,9.80624,2,1683969844.901278
-0.0069516255,0.02646496,0.99938756,0.0012217305,0.00076358154,-0.00030543262,-0.08297679,0.25854063,9.806242,2,1683969844.9064064
-0.009390792,0.025001459,0.9988997,0.0012217305,0.00076358154,-0.00030543262,-0.08297679,0.25854063,9.806242,2,1683969844.9115472
-0.009939604,0.029818814,0.9998144,0.0012217305,0.00076358154,-0.00030543262,-0.08297679,0.25854063,9.806242,2,1683969844.937158
-0.009939604,0.029818814,0.9998144,0.0012217305,0.00076358154,-0.00030543262,-0.08291105,0.2587652,9.806236,2,1683969844.9473398
-0.008415125,0.02841629,0.9969484,0.0012217305,0.00076358154,-0.00030543262,-0.08291105,0.2587652,9.806236,2,1683969844.9729447
-0.008415125,0.02841629,0.9969484,0.0012217305,0.00076358154,-0.00030543262,-0.08227076,0.25841832,9.806252,2,1683969844.9780755
-0.008415125,0.02841629,0.9969484,-0.0012217305,-0.0016798794,0.0021380284,-0.08227076,0.25841832,9.806252,2,1683969844.9831893
-0.00798827,0.025001459,1.0003633,-0.0012217305,-0.0016798794,0.0021380284,-0.08227076,0.25841832,9.806252,2,1683969844.9985762
-0.00798827,0.025001459,1.0003633,-0.0012217305,-0.0016798794,0.0021380284,-0.08222176,0.2582609,9.806255,2,1683969845.0088396
-0.00798827,0.025001459,1.0003633,0.0012217305,-0.0041233404,0.0009162979,-0.08222176,0.2582609,9.806255,2,1683969845.013928
-0.008415125,0.025977125,0.9984119,0.0012217305,-0.0041233404,0.0009162979,-0.08222176,0.2582609,9.806255,2,1683969845.0446851
-0.008415125,0.025977125,0.9984119,0.0012217305,-0.0041233404,0.0009162979,-0.08212935,0.25830066,9.806255,2,1683969845.0549421
-0.008415125,0.025977125,0.9984119,0.0012217305,-0.00045814895,0.0009162979,-0.08212935,0.25830066,9.806255,2,1683969845.0600743
-0.008415125,0.025977125,0.9984119,-0.002443461,-0.0016798794,0.0021380284,-0.08212935,0.25830066,9.806255,2,1683969845.0805438
-0.008415125,0.025977125,0.9984119,-0.002443461,-0.0016798794,0.0021380284,-0.08216459,0.25831878,9.806254,2,1683969845.0908048
-0.009451771,0.02646496,0.9998144,-0.002443461,-0.0016798794,0.0021380284,-0.08216459,0.25831878,9.806254,2,1683969845.1010637
-0.008963938,0.02646496,0.9998144,-0.002443461,-0.0016798794,0.0021380284,-0.08216459,0.25831878,9.806254,2,1683969845.1215332
-0.008963938,0.02646496,0.9998144,0.0,-0.0016798794,-0.00030543262,-0.08216459,0.25831878,9.806254,2,1683969845.1266637
-0.008963938,0.02646496,0.9998144,0.0,-0.0016798794,-0.00030543262,-0.08211077,0.2581305,9.80626,2,1683969845.1318007
-0.008963938,0.02646496,0.9998144,0.0,-0.0016798794,-0.00030543262,-0.0821434,0.25821564,9.806257,2,1683969845.1471822
-0.008963938,0.02646496,0.9998144,0.0012217305,-0.0016798794,-0.00030543262,-0.0821434,0.25821564,9.806257,2,1683969845.1728427
-0.008963938,0.02646496,0.9998144,0.002443461,-0.0016798794,-0.0015271631,-0.0821434,0.25821564,9.806257,2,1683969845.1933727
-0.008963938,0.02646496,0.9998144,0.002443461,-0.0016798794,-0.0015271631,-0.08211635,0.25826207,9.806256,2,1683969845.1984982
-0.009390792,0.02646496,0.9979241,0.002443461,-0.0016798794,-0.0015271631,-0.08211635,0.25826207,9.806256,2,1683969845.208707
-0.008902958,0.027440626,0.9979241,0.002443461,-0.0016798794,-0.0015271631,-0.08211635,0.25826207,9.806256,2,1683969845.229196
-0.008902958,0.027440626,0.9979241,0.002443461,-0.0016798794,-0.0015271631,-0.081770115,0.2584599,9.806254,2,1683969845.2343304
-0.008902958,0.027440626,0.9979241,-0.0012217305,0.001985312,-0.00030543262,-0.081770115,0.2584599,9.806254,2,1683969845.2445722
-0.008902958,0.027440626,0.9979241,-0.0012217305,0.001985312,-0.00030543262,-0.081866026,0.25842535,9.806253,2,1683969845.2496886
-0.008902958,0.027440626,0.9979241,0.0,0.001985312,-0.0027488936,-0.081866026,0.25842535,9.806253,2,1683969845.265072
-0.009390792,0.02695279,0.9993266,0.0,0.001985312,-0.0027488936,-0.081866026,0.25842535,9.806253,2,1683969845.270202
-0.009390792,0.02695279,0.9993266,0.0,0.001985312,-0.0027488936,-0.08201541,0.25851196,9.806251,2,1683969845.2958126
-0.009390792,0.02695279,0.9993266,0.0,0.001985312,-0.00030543262,-0.08201541,0.25851196,9.806251,2,1683969845.3009436
-0.008963938,0.027440626,1.0007901,0.0,0.001985312,-0.00030543262,-0.08201541,0.25851196,9.806251,2,1683969845.3111827
-0.008963938,0.02792846,0.9998144,0.0,0.001985312,-0.00030543262,-0.08201541,0.25851196,9.806251,2,1683969845.3367925
-0.008963938,0.02792846,0.9998144,0.0,0.0032070426,-0.00030543262,-0.08201541,0.25851196,9.806251,2,1683969845.3419256
-0.008963938,0.02792846,0.9998144,0.0,0.0032070426,-0.00030543262,-0.08188966,0.25841194,9.806254,2,1683969845.3470588
-0.008963938,0.025489293,1.0003022,0.0,0.0032070426,-0.00030543262,-0.08188966,0.25841194,9.806254,2,1683969845.3624563
-0.008963938,0.025489293,1.0003022,0.0,0.0032070426,-0.00030543262,-0.08197687,0.25849974,9.806252,2,1683969845.3676257
-0.008963938,0.025489293,1.0003022,-0.002443461,-0.00045814895,0.0021380284,-0.08197687,0.25849974,9.806252,2,1683969845.3727584
-0.008963938,0.025489293,1.0003022,-0.002443461,-0.00045814895,0.0021380284,-0.081967406,0.25841764,9.806253,2,1683969845.4086928
-0.0069516255,0.025001459,0.99938756,-0.002443461,-0.00045814895,0.0021380284,-0.081967406,0.25841764,9.806253,2,1683969845.413824
-0.0069516255,0.025001459,0.99938756,0.0,0.0056505036,0.0009162979,-0.081967406,0.25841764,9.806253,2,1683969845.4240859
-0.0064637917,0.02695279,0.99938756,0.0,0.0056505036,0.0009162979,-0.081967406,0.25841764,9.806253,2,1683969845.434272
-0.0064637917,0.02695279,0.99938756,0.0,0.0056505036,0.0009162979,-0.08212394,0.25842556,9.806252,2,1683969845.4444437
-0.0064637917,0.02695279,0.99938756,-0.0012217305,0.001985312,-0.00030543262,-0.08212394,0.25842556,9.806252,2,1683969845.4547045
-0.0074394583,0.02646496,0.9988997,-0.0012217305,0.001985312,-0.00030543262,-0.08212394,0.25842556,9.806252,2,1683969845.4700572
-0.0074394583,0.02646496,0.9988997,-0.0012217305,0.001985312,-0.00030543262,-0.08213854,0.2583584,9.806253,2,1683969845.4751842
-0.0074394583,0.02646496,0.9988997,-0.0012217305,-0.0016798794,-0.00030543262,-0.08213854,0.2583584,9.806253,2,1683969845.4853942
-0.0074394583,0.02646496,0.9988997,0.0,0.00076358154,0.0021380284,-0.08213854,0.2583584,9.806253,2,1683969845.5007777
-0.0074394583,0.02646496,0.9988997,0.0012217305,-0.00045814895,-0.00030543262,-0.08213854,0.2583584,9.806253,2,1683969845.5110366
-0.009390792,0.02695279,0.9988388,0.0012217305,-0.00045814895,-0.00030543262,-0.08213854,0.2583584,9.806253,2,1683969845.521219
-0.009390792,0.02695279,0.9988388,0.0012217305,-0.00045814895,-0.00030543262,-0.083454765,0.25795668,9.8062525,2,1683969845.5314724
-0.008902958,0.02695279,0.9979241,0.0012217305,-0.00045814895,-0.00030543262,-0.083454765,0.25795668,9.8062525,2,1683969845.5622153
-0.008902958,0.02695279,0.9979241,-0.002443461,0.00076358154,0.0009162979,-0.083454765,0.25795668,9.8062525,2,1683969845.5673063
-0.008902958,0.02695279,0.9979241,-0.002443461,0.00076358154,0.0009162979,-0.08344935,0.25805062,9.806251,2,1683969845.57244
-0.008902958,0.025489293,0.9998144,-0.002443461,0.00076358154,0.0009162979,-0.08344935,0.25805062,9.806251,2,1683969845.587788
-0.008902958,0.025489293,0.9998144,-0.002443461,0.0032070426,-0.00030543262,-0.08344935,0.25805062,9.806251,2,1683969845.59292
-0.008902958,0.025489293,0.9998144,-0.002443461,0.0032070426,-0.00030543262,-0.08368364,0.25801823,9.80625,2,1683969845.598053
-0.008902958,0.025489293,0.9998144,-0.002443461,0.0032070426,0.0021380284,-0.08368364,0.25801823,9.80625,2,1683969845.613442
-0.00798827,0.02646496,1.0007901,-0.002443461,0.0032070426,0.0021380284,-0.08368364,0.25801823,9.80625,2,1683969845.6339178
-0.00798827,0.02646496,1.0007901,-0.002443461,0.0032070426,0.0021380284,-0.08389417,0.25794488,9.80625,2,1683969845.6390386
-0.006524771,0.025001459,1.0008512,-0.002443461,0.0032070426,0.0021380284,-0.08389417,0.25794488,9.80625,2,1683969845.654384
-0.006524771,0.025001459,1.0008512,-0.002443461,0.00061086525,-0.0015271631,-0.08389417,0.25794488,9.80625,2,1683969845.664643
-0.006524771,0.025001459,1.0008512,-0.002443461,0.00061086525,-0.0015271631,-0.08398598,0.25782856,9.806252,2,1683969845.6697736
-0.009451771,0.025977125,1.0003022,-0.002443461,0.00061086525,-0.0015271631,-0.08398598,0.25782856,9.806252,2,1683969845.685098
-0.009451771,0.025977125,1.0003022,0.0,0.0032070426,0.0021380284,-0.08398598,0.25782856,9.806252,2,1683969845.700431
-0.009451771,0.025977125,1.0003022,0.0,0.0032070426,0.0021380284,-0.08399116,0.25772586,9.806254,2,1683969845.7106843
-0.008476105,0.025489293,1.0003633,0.0,0.0032070426,0.0021380284,-0.08399116,0.25772586,9.806254,2,1683969845.7312012
-0.008476105,0.025489293,1.0003633,0.0012217305,-0.0053450707,0.0021380284,-0.08399116,0.25772586,9.806254,2,1683969845.7363317
-0.008476105,0.025489293,1.0003633,0.0012217305,-0.0053450707,0.0021380284,-0.084089674,0.25768518,9.806254,2,1683969845.7465901
-0.008902958,0.025001459,0.9988997,0.0012217305,-0.0053450707,0.0021380284,-0.084089674,0.25768518,9.806254,2,1683969845.7773278
-0.008902958,0.025001459,0.9988997,0.0012217305,0.001985312,-0.00030543262,-0.084089674,0.25768518,9.806254,2,1683969845.782464
-0.008902958,0.025001459,0.9988997,0.0012217305,0.001985312,-0.00030543262,-0.08284465,0.25801632,9.806257,2,1683969845.7927544
-0.008902958,0.025001459,0.9988997,-0.0012217305,-0.00045814895,0.0033597588,-0.08284465,0.25801632,9.806257,2,1683969845.8183806
-0.009939604,0.025977125,0.9998144,-0.0012217305,-0.00045814895,0.0033597588,-0.08284465,0.25801632,9.806257,2,1683969845.8235006
-0.009939604,0.025977125,0.9998144,-0.0012217305,-0.00045814895,0.0033597588,-0.08279632,0.2580434,9.806256,2,1683969845.828631
-0.007927292,0.024513626,0.9979241,-0.0012217305,-0.00045814895,0.0033597588,-0.08279632,0.2580434,9.806256,2,1683969845.8593209
-0.007927292,0.024513626,0.9979241,-0.0012217305,0.001985312,-0.00030543262,-0.08279632,0.2580434,9.806256,2,1683969845.8644545
-0.007927292,0.024513626,0.9979241,-0.0012217305,0.001985312,-0.00030543262,-0.08278486,0.2580603,9.806256,2,1683969845.8747122
-0.008415125,0.024513626,0.9988997,-0.0012217305,0.001985312,-0.00030543262,-0.08278486,0.2580603,9.806256,2,1683969845.8849337
-0.008415125,0.024513626,0.9988997,0.0,0.00076358154,-0.0015271631,-0.08278486,0.2580603,9.806256,2,1683969845.8951368
-0.008415125,0.024513626,0.9988997,0.0,0.00076358154,-0.0015271631,-0.08277891,0.25799927,9.806257,2,1683969845.9002535
-0.008415125,0.024513626,0.9988997,0.0,0.0032070426,0.0009162979,-0.08277891,0.25799927,9.806257,2,1683969845.920787
-0.008415125,0.024513626,0.9988997,0.0,0.0032070426,0.0009162979,-0.08277105,0.25795794,9.806259,2,1683969845.9259162
-0.008415125,0.025977125,0.9979241,0.0,0.0032070426,0.0009162979,-0.08277105,0.25795794,9.806259,2,1683969845.9361794
-0.008415125,0.025489293,0.99938756,0.0,0.0032070426,0.0009162979,-0.08277105,0.25795794,9.806259,2,1683969845.9515748
-0.008415125,0.025489293,0.99938756,0.0,-0.00045814895,-0.00030543262,-0.08277105,0.25795794,9.806259,2,1683969845.956707
-0.008415125,0.025489293,0.99938756,0.0,-0.00045814895,-0.00030543262,-0.08298731,0.25792196,9.806258,2,1683969845.966969
-0.008415125,0.025489293,0.99938756,0.0012217305,0.00076358154,0.0009162979,-0.08298731,0.25792196,9.806258,2,1683969845.992494
-0.008415125,0.025489293,0.99938756,0.0012217305,0.00076358154,0.0009162979,-0.08294406,0.25789687,9.806259,2,1683969845.9976287
-0.00798827,0.02792846,1.0007901,0.0012217305,0.00076358154,0.0009162979,-0.08294406,0.25789687,9.806259,2,1683969846.0078623
-0.00798827,0.02792846,1.0007901,0.0012217305,0.001985312,-0.00030543262,-0.08294406,0.25789687,9.806259,2,1683969846.0334444
-0.008963938,0.02646496,1.0003022,0.0012217305,0.001985312,-0.00030543262,-0.08294406,0.25789687,9.806259,2,1683969846.043706
-0.008963938,0.02646496,1.0003022,-0.002443461,0.00061086525,-0.0015271631,-0.08294406,0.25789687,9.806259,2,1683969846.0846794
-0.0074394583,0.027440626,0.9988997,-0.002443461,0.00061086525,-0.0015271631,-0.08294406,0.25789687,9.806259,2,1683969846.0949364
-0.0074394583,0.027440626,0.9988997,-0.002443461,0.00061086525,-0.0015271631,-0.08216835,0.2570273,9.806289,2,1683969846.1000674
-0.0074394583,0.027440626,0.9988997,0.0,0.0032070426,-0.00030543262,-0.08216835,0.2570273,9.806289,2,1683969846.115464
-0.009451771,0.02646496,1.0007901,0.0,0.0032070426,-0.00030543262,-0.08216835,0.2570273,9.806289,2,1683969846.120597
-0.009451771,0.02646496,1.0007901,0.0,0.0032070426,-0.00030543262,-0.08232287,0.2569153,9.80629,2,1683969846.1257284
-0.009451771,0.02646496,1.0007901,0.0,0.00076358154,0.0009162979,-0.08232287,0.2569153,9.80629,2,1683969846.1462147
-0.009451771,0.02646496,1.0007901,0.0,0.00076358154,0.0009162979,-0.082439095,0.256878,9.806291,2,1683969846.1564357
-0.009451771,0.02646496,1.0007901,0.0,0.00076358154,0.0009162979,-0.0826007,0.25680035,9.806291,2,1683969846.182049
-0.008902958,0.025977125,0.99938756,0.0,0.00076358154,0.0009162979,-0.0826007,0.25680035,9.806291,2,1683969846.1871798
-0.008902958,0.025977125,0.99938756,0.0,0.0032070426,0.0009162979,-0.0826007,0.25680035,9.806291,2,1683969846.1923127
-0.0074394583,0.02646496,0.99938756,0.0,0.0032070426,0.0009162979,-0.0826007,0.25680035,9.806291,2,1683969846.2179763
-0.0074394583,0.02646496,0.99938756,0.0,0.0032070426,0.0009162979,-0.08255848,0.25682545,9.806291,2,1683969846.2282455
-0.0074394583,0.02646496,0.99938756,0.0,-0.00045814895,0.0009162979,-0.08255848,0.25682545,9.806291,2,1683969846.2333794
-0.008415125,0.025001459,0.99938756,0.0,-0.00045814895,0.0009162979,-0.08255848,0.25682545,9.806291,2,1683969846.2539005
-0.008415125,0.025001459,0.99938756,0.0,-0.00045814895,-0.00030543262,-0.08255848,0.25682545,9.806291,2,1683969846.2590346
-0.008415125,0.025001459,0.99938756,0.0,-0.00045814895,-0.00030543262,-0.08265374,0.25680885,9.806291,2,1683969846.2641692
-0.009451771,0.025489293,1.0003022,0.0,-0.00045814895,-0.00030543262,-0.08265374,0.25680885,9.806291,2,1683969846.2744362
-0.009451771,0.025489293,1.0003022,0.0,-0.00045814895,-0.00030543262,-0.08273105,0.25671765,9.806292,2,1683969846.3000836
-0.009451771,0.025489293,1.0003022,0.002443461,-0.00290161,-0.00030543262,-0.08273105,0.25671765,9.806292,2,1683969846.3052182
-0.009451771,0.025489293,1.0003022,-0.0010690142,0.00076358154,-0.00030543262,-0.08273105,0.25671765,9.806292,2,1683969846.315509
-0.0074394583,0.02841629,0.9988997,-0.0010690142,0.00076358154,-0.00030543262,-0.08273105,0.25671765,9.806292,2,1683969846.3308985
-0.0074394583,0.02841629,0.9988997,-0.0010690142,0.00076358154,-0.00030543262,-0.08271334,0.25685516,9.806289,2,1683969846.3360298
-0.009390792,0.025977125,0.9993266,-0.0010690142,0.00076358154,-0.00030543262,-0.08271334,0.25685516,9.806289,2,1683969846.3513749
-0.009390792,0.025977125,0.9993266,-0.0010690142,0.00076358154,-0.00030543262,-0.083004974,0.2572514,9.806275,2,1683969846.3565054
-0.009390792,0.025977125,0.9993266,0.0025961774,0.001985312,0.0009162979,-0.083004974,0.2572514,9.806275,2,1683969846.361639
-0.009451771,0.027440626,1.0007901,0.0025961774,0.001985312,0.0009162979,-0.083004974,0.2572514,9.806275,2,1683969846.3821177
-0.009451771,0.027440626,1.0007901,0.0025961774,0.001985312,0.0009162979,-0.082838394,0.25735962,9.806274,2,1683969846.3974264
-0.009451771,0.027440626,1.0007901,0.00015271631,0.001985312,-0.0015271631,-0.082838394,0.25735962,9.806274,2,1683969846.4025185
-0.009451771,0.027440626,1.0007901,0.00015271631,0.001985312,-0.0015271631,-0.08289335,0.2572755,9.806275,2,1683969846.4229212
-0.008902958,0.02841629,0.9979241,0.00015271631,0.001985312,-0.0015271631,-0.08289335,0.2572755,9.806275,2,1683969846.4331036
-0.008902958,0.02841629,0.9979241,-0.0010690142,0.001985312,-0.0015271631,-0.08289335,0.2572755,9.806275,2,1683969846.4432576
-0.008902958,0.02841629,0.9979241,-0.0010690142,0.001985312,-0.0015271631,-0.08285533,0.2572785,9.806275,2,1683969846.463771
-0.007927292,0.025489293,0.9984119,-0.0010690142,0.001985312,-0.0015271631,-0.08285533,0.2572785,9.806275,2,1683969846.474028
-0.007927292,0.025489293,0.9984119,-0.0010690142,-0.0016798794,-0.00030543262,-0.08285533,0.2572785,9.806275,2,1683969846.4842904
-0.007927292,0.025489293,0.9984119,-0.0010690142,0.0056505036,-0.00030543262,-0.08285533,0.2572785,9.806275,2,1683969846.494548
-0.007927292,0.025489293,0.9984119,-0.0010690142,0.0056505036,-0.00030543262,-0.08244302,0.25718975,9.806282,2,1683969846.509834
-0.008415125,0.028904125,0.9984119,-0.0010690142,0.0056505036,-0.00030543262,-0.08244302,0.25718975,9.806282,2,1683969846.514934
-0.008476105,0.02646496,1.0017658,-0.0010690142,0.0056505036,-0.00030543262,-0.08244302,0.25718975,9.806282,2,1683969846.5354466
-0.008476105,0.02646496,1.0017658,0.0013744468,-0.00045814895,0.0021380284,-0.08244302,0.25718975,9.806282,2,1683969846.5405803
-0.008476105,0.02646496,1.0017658,0.0013744468,-0.00045814895,0.0021380284,-0.08255706,0.25723177,9.80628,2,1683969846.5559692
-0.008476105,0.02646496,1.0017658,0.00015271631,-0.0041233404,-0.00030543262,-0.08255706,0.25723177,9.80628,2,1683969846.5611002
-0.008902958,0.025489293,0.99938756,0.00015271631,-0.0041233404,-0.00030543262,-0.08255706,0.25723177,9.80628,2,1683969846.5713198
-0.008902958,0.025489293,0.99938756,0.00015271631,-0.0041233404,-0.00030543262,-0.08225435,0.25730252,9.80628,2,1683969846.5867276
-0.009390792,0.02792846,0.9984119,0.00015271631,-0.0041233404,-0.00030543262,-0.08225435,0.25730252,9.80628,2,1683969846.6071959
-0.009390792,0.02792846,0.9984119,0.00015271631,-0.0016798794,-0.00030543262,-0.08225435,0.25730252,9.80628,2,1683969846.6123295
-0.009390792,0.02792846,0.9984119,0.00015271631,-0.0016798794,-0.00030543262,-0.08272577,0.25763696,9.806268,2,1683969846.6277215
-0.009390792,0.02792846,0.9984119,0.00015271631,0.00076358154,0.0009162979,-0.08272577,0.25763696,9.806268,2,1683969846.6328528
-0.0074394583,0.025977125,0.99987537,0.00015271631,0.00076358154,0.0009162979,-0.08272577,0.25763696,9.806268,2,1683969846.6379817
-0.0074394583,0.025977125,0.99987537,0.0025961774,-0.00045814895,0.0009162979,-0.08272577,0.25763696,9.806268,2,1683969846.673892
-0.008415125,0.024025792,0.9979241,0.0025961774,-0.00045814895,0.0009162979,-0.08272577,0.25763696,9.806268,2,1683969846.6790268
-0.008415125,0.024025792,0.9979241,0.0025961774,-0.00045814895,0.0009162979,-0.082716025,0.25773117,9.806265,2,1683969846.6840906
-0.008415125,0.024025792,0.9979241,0.00015271631,-0.00045814895,-0.00030543262,-0.082716025,0.25773117,9.806265,2,1683969846.7199824
-0.008415125,0.024025792,0.9979241,0.00015271631,-0.00045814895,-0.00030543262,-0.082715556,0.25784895,9.806262,2,1683969846.7251153
-0.008415125,0.025001459,0.9979241,0.00015271631,-0.00045814895,-0.00030543262,-0.082715556,0.25784895,9.806262,2,1683969846.730245
-0.008415125,0.025001459,0.9979241,0.00015271631,-0.00045814895,-0.00030543262,-0.0827809,0.25792974,9.806259,2,1683969846.745595
-0.008415125,0.025001459,0.9979241,0.00015271631,0.001985312,-0.00030543262,-0.0827809,0.25792974,9.806259,2,1683969846.7507257
-0.008476105,0.025977125,1.0003633,0.00015271631,0.001985312,-0.00030543262,-0.0827809,0.25792974,9.806259,2,1683969846.7661169
-0.008476105,0.025977125,1.0003633,-0.0010690142,-0.004276057,0.0009162979,-0.0827809,0.25792974,9.806259,2,1683969846.7763116
-0.008415125,0.02646496,0.99938756,-0.0010690142,-0.004276057,0.0009162979,-0.0827809,0.25792974,9.806259,2,1683969846.7865758
-0.008415125,0.02646496,0.99938756,-0.0010690142,-0.004276057,0.0009162979,-0.083028644,0.2578878,9.806259,2,1683969846.79171
-0.0074394583,0.025489293,0.9969484,-0.0010690142,-0.004276057,0.0009162979,-0.083028644,0.2578878,9.806259,2,1683969846.8122177
-0.0074394583,0.025489293,0.9969484,-0.0010690142,-0.004276057,0.0009162979,-0.08280673,0.2578843,9.80626,2,1683969846.832729
-0.0074394583,0.025489293,0.9969484,0.0013744468,0.0032070426,0.0009162979,-0.08280673,0.2578843,9.80626,2,1683969846.8378205
-0.009939604,0.02646496,1.0007901,0.0013744468,0.0032070426,0.0009162979,-0.08280673,0.2578843,9.80626,2,1683969846.8429713
-0.009939604,0.02646496,1.0007901,0.0025961774,0.001985312,-0.0027488936,-0.08280673,0.2578843,9.80626,2,1683969846.8583212
-0.009939604,0.02646496,1.0007901,0.0025961774,0.001985312,-0.0027488936,-0.082906246,0.2579237,9.806259,2,1683969846.8685668
-0.009451771,0.025001459,1.0007901,0.0025961774,0.001985312,-0.0027488936,-0.082906246,0.2579237,9.806259,2,1683969846.8890817
-0.009451771,0.025001459,1.0007901,0.0025961774,0.001985312,-0.0027488936,-0.082992695,0.25792912,9.806258,2,1683969846.89931
-0.009451771,0.025001459,1.0007901,0.0025961774,0.001985312,-0.0027488936,-0.08319427,0.2577286,9.806261,2,1683969846.9095654
-0.009390792,0.025977125,0.9988388,0.0025961774,0.001985312,-0.0027488936,-0.08319427,0.2577286,9.806261,2,1683969846.9198096
-0.009390792,0.025977125,0.9988388,0.0025961774,0.001985312,-0.0027488936,-0.08343788,0.25761747,9.806262,2,1683969846.9300723
-0.009390792,0.025977125,0.9988388,0.00015271631,-0.0016798794,-0.0015271631,-0.08343788,0.25761747,9.806262,2,1683969846.9351985
-0.009390792,0.025977125,0.9988388,0.00015271631,-0.00290161,-0.0015271631,-0.08343788,0.25761747,9.806262,2,1683969846.9659684
-0.009390792,0.025977125,0.9988388,0.00015271631,-0.00290161,-0.0015271631,-0.08320095,0.25755465,9.806266,2,1683969846.971105
-0.008902958,0.024513626,0.9984119,0.00015271631,-0.00290161,-0.0015271631,-0.08320095,0.25755465,9.806266,2,1683969846.976236
-0.008415125,0.02646496,0.9988388,0.00015271631,-0.00290161,-0.0015271631,-0.08320095,0.25755465,9.806266,2,1683969846.996755
-0.008415125,0.02646496,0.9988388,0.00015271631,-0.00290161,-0.0015271631,-0.08320575,0.2574993,9.806268,2,1683969847.0121326
-0.008415125,0.02646496,0.9988388,0.00015271631,0.001985312,0.0009162979,-0.08320575,0.2574993,9.806268,2,1683969847.017265
-0.008415125,0.02646496,0.9988388,0.00015271631,0.001985312,0.0009162979,-0.08336134,0.25747332,9.806267,2,1683969847.0274863
-0.008476105,0.02695279,1.0008512,0.00015271631,0.001985312,0.0009162979,-0.08336134,0.25747332,9.806267,2,1683969847.032562
-0.008476105,0.02695279,1.0008512,0.00015271631,-0.00045814895,-0.00030543262,-0.08336134,0.25747332,9.806267,2,1683969847.0530791
-0.009451771,0.02841629,1.0003022,0.00015271631,-0.00045814895,-0.00030543262,-0.08336134,0.25747332,9.806267,2,1683969847.0633006
-0.009451771,0.02841629,1.0003022,0.00015271631,-0.00045814895,-0.00030543262,-0.08360311,0.25751776,9.806264,2,1683969847.0735636
-0.009451771,0.02841629,1.0003022,0.0013744468,0.001985312,-0.0015271631,-0.08360311,0.25751776,9.806264,2,1683969847.0838225
-0.0074394583,0.024513626,0.9984119,0.0013744468,0.001985312,-0.0015271631,-0.08360311,0.25751776,9.806264,2,1683969847.1094558
-0.0074394583,0.024513626,0.9984119,0.0013744468,0.001985312,-0.0015271631,-0.08369016,0.2575469,9.806262,2,1683969847.1145785
-0.0074394583,0.024513626,0.9984119,-0.0010690142,-0.00045814895,0.0009162979,-0.08369016,0.2575469,9.806262,2,1683969847.1197083
-0.0074394583,0.024513626,0.9984119,-0.0010690142,-0.00045814895,0.0009162979,-0.08355421,0.25750193,9.806264,2,1683969847.1299353
-0.0069516255,0.02792846,0.99938756,-0.0010690142,-0.00045814895,0.0009162979,-0.08355421,0.25750193,9.806264,2,1683969847.145322
-0.0069516255,0.02792846,0.99938756,0.00015271631,-0.00045814895,-0.00030543262,-0.08355421,0.25750193,9.806264,2,1683969847.1504521
-0.008476105,0.02792846,1.0003633,0.00015271631,-0.00045814895,-0.00030543262,-0.08355421,0.25750193,9.806264,2,1683969847.16582
-0.008476105,0.02792846,1.0003633,-0.0010690142,-0.00045814895,-0.00030543262,-0.08355421,0.25750193,9.806264,2,1683969847.222216
-0.008476105,0.02792846,1.0003633,-0.0010690142,-0.00045814895,-0.00030543262,-0.08396381,0.25727966,9.806267,2,1683969847.2273114
-0.008902958,0.025489293,0.9993266,-0.0010690142,-0.00045814895,-0.00030543262,-0.08396381,0.25727966,9.806267,2,1683969847.2324448
-0.008902958,0.025489293,0.9993266,-0.0022907446,0.00076358154,-0.00030543262,-0.08396381,0.25727966,9.806267,2,1683969847.2477994
-0.0074394583,0.02695279,0.9979241,-0.0022907446,0.00076358154,-0.00030543262,-0.08396381,0.25727966,9.806267,2,1683969847.2528887
-0.0074394583,0.02695279,0.9979241,-0.0022907446,0.00076358154,-0.00030543262,-0.084007666,0.25731394,9.806266,2,1683969847.268285
-0.0074394583,0.02695279,0.9979241,0.0013744468,-0.0016798794,-0.00030543262,-0.084007666,0.25731394,9.806266,2,1683969847.2785428
-0.008415125,0.025001459,0.9959728,0.0013744468,-0.0016798794,-0.00030543262,-0.084007666,0.25731394,9.806266,2,1683969847.283676
-0.008415125,0.025001459,0.9959728,0.0013744468,-0.0016798794,-0.00030543262,-0.08404832,0.25719476,9.806268,2,1683969847.2939303
-0.008415125,0.025001459,0.9959728,0.0013744468,0.00076358154,-0.00030543262,-0.08404832,0.25719476,9.806268,2,1683969847.319569
-0.0074394583,0.027440626,0.9988997,0.0013744468,0.00076358154,-0.00030543262,-0.08404832,0.25719476,9.806268,2,1683969847.3349526
-0.0074394583,0.027440626,0.9988997,0.0013744468,0.00076358154,-0.00030543262,-0.08404333,0.25724903,9.806267,2,1683969847.3400886
-0.0069516255,0.02841629,0.99938756,0.0013744468,0.00076358154,-0.00030543262,-0.08404333,0.25724903,9.806267,2,1683969847.3554761
-0.0069516255,0.02841629,0.99938756,0.0013744468,0.00076358154,-0.00030543262,-0.08402475,0.2573868,9.806264,2,1683969847.3606057
-0.0075004376,0.02646496,1.0003022,0.0013744468,0.00076358154,-0.00030543262,-0.08402475,0.2573868,9.806264,2,1683969847.3913453
-0.0075004376,0.02646496,1.0003022,0.0013744468,0.00076358154,-0.00030543262,-0.0839929,0.25746658,9.806262,2,1683969847.4067428
-0.0075004376,0.02646496,1.0003022,0.00015271631,-0.0041233404,-0.00030543262,-0.0839929,0.25746658,9.806262,2,1683969847.4118736
-0.0075004376,0.02646496,1.0003022,0.00015271631,0.00076358154,-0.0027488936,-0.0839929,0.25746658,9.806262,2,1683969847.4322925
-0.0075004376,0.02646496,1.0003022,0.00015271631,0.00076358154,-0.0027488936,-0.083794676,0.2575234,9.806262,2,1683969847.4425528
-0.0074394583,0.02695279,0.9984119,0.00015271631,0.00076358154,-0.0027488936,-0.083794676,0.2575234,9.806262,2,1683969847.4476845
-0.0074394583,0.02695279,0.9984119,0.00015271631,0.00076358154,-0.0027488936,-0.083598815,0.25765246,9.80626,2,1683969847.468199
-0.0064637917,0.025489293,0.9984119,0.00015271631,0.00076358154,-0.0027488936,-0.083598815,0.25765246,9.80626,2,1683969847.4835944
-0.0064637917,0.025489293,0.9984119,0.00015271631,0.00076358154,-0.0027488936,-0.08350378,0.25751948,9.806264,2,1683969847.4887273
-0.0064637917,0.025489293,0.9984119,0.0025961774,0.00076358154,0.0009162979,-0.08350378,0.25751948,9.806264,2,1683969847.5041094
-0.0064637917,0.025489293,0.9984119,-0.0010690142,-0.00045814895,-0.00030543262,-0.08350378,0.25751948,9.806264,2,1683969847.5245812
-0.007927292,0.025489293,0.9988997,-0.0010690142,-0.00045814895,-0.00030543262,-0.08350378,0.25751948,9.806264,2,1683969847.529714
-0.007927292,0.025489293,0.9988997,-0.0010690142,-0.00045814895,-0.00030543262,-0.083535925,0.25739345,9.806268,2,1683969847.534842
-0.007927292,0.025489293,0.9988997,-0.0010690142,-0.00045814895,-0.00030543262,-0.083485655,0.25729257,9.806271,2,1683969847.5502298
-0.007927292,0.025489293,0.9988997,0.0013744468,0.0032070426,-0.00030543262,-0.083485655,0.25729257,9.806271,2,1683969847.5553236
-0.0069516255,0.02646496,0.99987537,0.0013744468,0.0032070426,-0.00030543262,-0.083485655,0.25729257,9.806271,2,1683969847.575841
-0.009390792,0.025489293,0.9988997,0.0013744468,0.0032070426,-0.00030543262,-0.083485655,0.25729257,9.806271,2,1683969847.596306
-0.009390792,0.025489293,0.9988997,0.0013744468,0.0032070426,-0.00030543262,-0.08370567,0.25723526,9.80627,2,1683969847.6014373
-0.009390792,0.025489293,0.9988997,-0.0010690142,-0.0016798794,-0.00030543262,-0.08370567,0.25723526,9.80627,2,1683969847.6065671
-0.009390792,0.025489293,0.9988997,-0.0022907446,0.006872234,-0.00030543262,-0.08370567,0.25723526,9.80627,2,1683969847.616786
-0.009390792,0.025489293,0.9988997,-0.0022907446,0.006872234,-0.00030543262,-0.083443955,0.25724277,9.8062725,2,1683969847.6373134
-0.0074394583,0.02646496,0.9984119,-0.0022907446,0.006872234,-0.00030543262,-0.083443955,0.25724277,9.8062725,2,1683969847.647562
-0.0074394583,0.02646496,0.9984119,0.00015271631,0.0032070426,-0.00030543262,-0.083443955,0.25724277,9.8062725,2,1683969847.6680827
-0.0074394583,0.02646496,0.9984119,0.00015271631,0.0032070426,-0.00030543262,-0.083786584,0.25724253,9.806269,2,1683969847.6732142
-0.008963938,0.02695279,0.9998144,0.00015271631,0.0032070426,-0.00030543262,-0.083786584,0.25724253,9.806269,2,1683969847.6783574
-0.007927292,0.025977125,0.99938756,0.00015271631,0.0032070426,-0.00030543262,-0.083786584,0.25724253,9.806269,2,1683969847.698861
-0.007927292,0.025977125,0.99938756,0.00015271631,0.0032070426,-0.00030543262,-0.08385746,0.25724116,9.806268,2,1683969847.703986
-0.007927292,0.025977125,0.99938756,0.00015271631,0.00076358154,-0.0027488936,-0.08385746,0.25724116,9.806268,2,1683969847.709113
-0.007927292,0.025977125,0.99938756,0.00015271631,0.00076358154,-0.0027488936,-0.08364563,0.25709495,9.806274,2,1683969847.7244592
-0.007927292,0.025977125,0.99938756,0.0013744468,-0.00045814895,0.0009162979,-0.08364563,0.25709495,9.806274,2,1683969847.7398484
-0.007927292,0.025977125,0.99938756,0.00015271631,0.0032070426,-0.0015271631,-0.08364563,0.25709495,9.806274,2,1683969847.7501104
-0.007927292,0.025977125,0.99938756,0.00015271631,0.0032070426,-0.0015271631,-0.0842402,0.25689608,9.806274,2,1683969847.7602766
-0.008963938,0.02646496,0.9998144,0.00015271631,0.0032070426,-0.0015271631,-0.0842402,0.25689608,9.806274,2,1683969847.7705328
-0.008902958,0.025977125,0.9988388,0.00015271631,0.0032070426,-0.0015271631,-0.0842402,0.25689608,9.806274,2,1683969847.7807896
-0.008902958,0.025977125,0.9988388,0.00015271631,0.0032070426,-0.0015271631,-0.084418744,0.2568479,9.806274,2,1683969847.7910078
-0.008902958,0.025977125,0.9988388,-0.0010690142,0.00076358154,-0.00030543262,-0.084418744,0.2568479,9.806274,2,1683969847.796141
-0.008902958,0.025489293,0.9998144,-0.0010690142,0.00076358154,-0.00030543262,-0.084418744,0.2568479,9.806274,2,1683969847.8320227
-0.008902958,0.025489293,0.9998144,-0.0010690142,0.00076358154,0.0033597588,-0.084418744,0.2568479,9.806274,2,1683969847.837165
-0.008902958,0.025489293,0.9998144,-0.0010690142,0.00076358154,0.0033597588,-0.0846047,0.25682342,9.806273,2,1683969847.8422968
-0.008902958,0.02695279,0.9974363,-0.0010690142,0.00076358154,0.0033597588,-0.0846047,0.25682342,9.806273,2,1683969847.8576446
-0.008902958,0.02695279,0.9974363,-0.0010690142,-0.0016798794,-0.00030543262,-0.0846047,0.25682342,9.806273,2,1683969847.8627772
-0.008902958,0.02695279,0.9974363,-0.0010690142,-0.0016798794,-0.00030543262,-0.084687196,0.2569099,9.80627,2,1683969847.8781536
-0.008902958,0.02695279,0.9974363,0.0013744468,-0.0053450707,-0.00030543262,-0.084687196,0.2569099,9.80627,2,1683969847.9088247
-0.0069516255,0.025977125,0.9984119,0.0013744468,-0.0053450707,-0.00030543262,-0.084687196,0.2569099,9.80627,2,1683969847.9139569
-0.0069516255,0.025977125,0.9984119,0.0013744468,-0.0053450707,-0.00030543262,-0.08456788,0.25697106,9.80627,2,1683969847.9190881
-0.0069516255,0.025977125,0.9984119,0.0013744468,-0.0053450707,-0.00030543262,-0.08462076,0.25707233,9.806267,2,1683969847.9396024
-0.0069516255,0.025977125,0.9984119,-0.0010690142,0.001985312,0.0009162979,-0.08462076,0.25707233,9.806267,2,1683969847.9447365
-0.009390792,0.02792846,0.9974363,-0.0010690142,0.001985312,0.0009162979,-0.08462076,0.25707233,9.806267,2,1683969847.954966
-0.009390792,0.02695279,0.9974363,-0.0010690142,0.001985312,0.0009162979,-0.08462076,0.25707233,9.806267,2,1683969847.9651875
-0.009390792,0.02695279,0.9974363,0.00015271631,0.001985312,0.0009162979,-0.08462076,0.25707233,9.806267,2,1683969847.9805632
-0.009390792,0.02695279,0.9974363,0.00015271631,0.001985312,0.0009162979,-0.084758155,0.25712028,9.806264,2,1683969847.9856975
-0.009390792,0.02695279,0.9974363,0.00015271631,0.001985312,0.0009162979,-0.08501821,0.25713646,9.806262,2,1683969848.0113196
-0.009390792,0.02695279,0.9974363,-0.0010690142,-0.004276057,0.0009162979,-0.08501821,0.25713646,9.806262,2,1683969848.0164442
-0.009390792,0.02695279,0.9974363,0.00015271631,0.00076358154,-0.00030543262,-0.08501821,0.25713646,9.806262,2,1683969848.0317903
-0.009390792,0.025977125,0.9984119,0.00015271631,0.00076358154,-0.00030543262,-0.08501821,0.25713646,9.806262,2,1683969848.0471988
-0.009390792,0.025977125,0.9984119,0.00015271631,0.00076358154,-0.00030543262,-0.08334245,0.25752214,9.806266,2,1683969848.0523298
-0.009878625,0.025977125,0.99938756,0.00015271631,0.00076358154,-0.00030543262,-0.08334245,0.25752214,9.806266,2,1683969848.0626009
-0.009878625,0.025977125,0.99938756,-0.0010690142,-0.004276057,0.0009162979,-0.08334245,0.25752214,9.806266,2,1683969848.077992
-0.009878625,0.025977125,0.99938756,-0.0010690142,-0.004276057,0.0009162979,-0.08332498,0.25759465,9.806264,2,1683969848.083138
-0.009878625,0.025977125,0.99938756,-0.0010690142,0.00061086525,-0.003970624,-0.08332498,0.25759465,9.806264,2,1683969848.108735
-0.009878625,0.025977125,0.99938756,-0.0010690142,0.00061086525,-0.003970624,-0.08321665,0.25754553,9.806266,2,1683969848.1190016
-0.008902958,0.025489293,0.9988997,-0.0010690142,0.00061086525,-0.003970624,-0.08321665,0.25754553,9.806266,2,1683969848.1241295
-0.0064637917,0.025489293,0.9988997,-0.0010690142,0.00061086525,-0.003970624,-0.08321665,0.25754553,9.806266,2,1683969848.1343892
-0.0064637917,0.025489293,0.9988997,0.0025961774,-0.00045814895,-0.00030543262,-0.08321665,0.25754553,9.806266,2,1683969848.1395147
-0.0064637917,0.025489293,0.9988997,0.0025961774,-0.00045814895,-0.00030543262,-0.083289884,0.25758666,9.806264,2,1683969848.1599872
-0.00798827,0.025977125,1.0008512,0.0025961774,-0.00045814895,-0.00030543262,-0.083289884,0.25758666,9.806264,2,1683969848.165123
-0.00798827,0.025977125,1.0008512,0.0025961774,-0.00045814895,-0.00030543262,-0.08315894,0.25772235,9.806262,2,1683969848.1804698
-0.00798827,0.025977125,1.0008512,-0.0010690142,-0.00045814895,0.0009162979,-0.08315894,0.25772235,9.806262,2,1683969848.190733
-0.00798827,0.02695279,1.0003022,-0.0010690142,-0.00045814895,0.0009162979,-0.08315894,0.25772235,9.806262,2,1683969848.2112005
-0.00798827,0.02695279,1.0003022,-0.0010690142,-0.00045814895,0.0009162979,-0.08307677,0.2578547,9.806259,2,1683969848.221454
-0.00798827,0.02695279,1.0003022,0.0013744468,0.004428773,0.0009162979,-0.08307677,0.2578547,9.806259,2,1683969848.2265472
-0.00798827,0.02695279,1.0003022,0.0013744468,0.004428773,0.0009162979,-0.08319672,0.25800154,9.806254,2,1683969848.241942
-0.00798827,0.02695279,1.0003022,0.00015271631,0.00076358154,0.0033597588,-0.08319672,0.25800154,9.806254,2,1683969848.2624633
-0.008476105,0.025977125,1.0007901,0.00015271631,0.00076358154,0.0033597588,-0.08319672,0.25800154,9.806254,2,1683969848.2675977
-0.008476105,0.025977125,1.0007901,0.00015271631,0.001985312,-0.00030543262,-0.08319672,0.25800154,9.806254,2,1683969848.2829838
-0.008476105,0.025977125,1.0007901,0.00015271631,0.001985312,-0.00030543262,-0.08302681,0.25804928,9.806254,2,1683969848.2881157
-0.008476105,0.025977125,1.0007901,0.00015271631,0.001985312,-0.00030543262,-0.08310337,0.25828612,9.806248,2,1683969848.2982957
-0.008476105,0.025977125,1.0007901,0.0013744468,0.0032070426,-0.0015271631,-0.08310337,0.25828612,9.806248,2,1683969848.3085082
-0.009451771,0.025977125,1.0003022,0.0013744468,0.0032070426,-0.0015271631,-0.08310337,0.25828612,9.806248,2,1683969848.3290246
-0.007927292,0.02646496,0.9979241,0.0013744468,0.0032070426,-0.0015271631,-0.08310337,0.25828612,9.806248,2,1683969848.3341594
-0.007927292,0.02646496,0.9979241,0.0013744468,-0.00290161,-0.00030543262,-0.08310337,0.25828612,9.806248,2,1683969848.3443842
-0.007927292,0.02646496,0.9979241,0.0013744468,-0.00290161,-0.00030543262,-0.08320571,0.2583954,9.806244,2,1683969848.3597312
-0.007927292,0.02646496,0.9979241,0.0013744468,0.001985312,-0.00030543262,-0.08320571,0.2583954,9.806244,2,1683969848.390508
-0.008415125,0.02695279,0.99938756,0.0013744468,0.001985312,-0.00030543262,-0.08320571,0.2583954,9.806244,2,1683969848.3956356
-0.008415125,0.02695279,0.99938756,0.0013744468,0.001985312,-0.00030543262,-0.0831976,0.2585335,9.80624,2,1683969848.400766
-0.008415125,0.02695279,0.99938756,0.0013744468,0.001985312,-0.00030543262,-0.08341365,0.25859663,9.806236,2,1683969848.4212759
-0.008415125,0.02695279,0.99938756,0.00015271631,-0.00290161,-0.0015271631,-0.08341365,0.25859663,9.806236,2,1683969848.4314585
-0.009390792,0.027440626,0.99938756,0.00015271631,-0.00290161,-0.0015271631,-0.08341365,0.25859663,9.806236,2,1683969848.43655
-0.009390792,0.027440626,0.99938756,0.00015271631,-0.00290161,-0.0015271631,-0.08337549,0.25864735,9.806236,2,1683969848.4570656
-0.009390792,0.027440626,0.99938756,-0.0022907446,-0.005497787,0.0009162979,-0.08337549,0.25864735,9.806236,2,1683969848.472376
-0.010366458,0.027379647,0.9959728,-0.0022907446,-0.005497787,0.0009162979,-0.08337549,0.25864735,9.806236,2,1683969848.498055
-0.010366458,0.027379647,0.9959728,-0.0022907446,-0.005497787,0.0009162979,-0.083075345,0.25855768,9.806241,2,1683969848.5031993
-0.010366458,0.027379647,0.9959728,0.00015271631,-0.00045814895,-0.00030543262,-0.083075345,0.25855768,9.806241,2,1683969848.5082915
-0.010366458,0.027379647,0.9959728,0.00015271631,-0.00045814895,-0.00030543262,-0.083169155,0.25859228,9.806239,2,1683969848.518443
-0.010366458,0.027379647,0.9959728,-0.0010690142,0.00076358154,-0.00030543262,-0.083169155,0.25859228,9.806239,2,1683969848.5235713
-0.0069516255,0.025977125,0.99987537,-0.0010690142,0.00076358154,-0.00030543262,-0.083169155,0.25859228,9.806239,2,1683969848.533835
-0.0069516255,0.025977125,0.99987537,0.00015271631,0.00076358154,-0.00030543262,-0.083169155,0.25859228,9.806239,2,1683969848.559486
-0.007927292,0.02695279,0.9979241,0.00015271631,0.00076358154,-0.00030543262,-0.083169155,0.25859228,9.806239,2,1683969848.564617
-0.007927292,0.02695279,0.9979241,0.00015271631,0.0032070426,0.0009162979,-0.083169155,0.25859228,9.806239,2,1683969848.5748775
-0.008415125,0.025977125,0.9988997,0.00015271631,0.0032070426,0.0009162979,-0.083169155,0.25859228,9.806239,2,1683969848.5851402
-0.008415125,0.025977125,0.9988997,0.00015271631,0.0032070426,0.0009162979,-0.08335179,0.2587614,9.806232,2,1683969848.6005192
-0.007927292,0.02695279,0.9988997,0.00015271631,0.0032070426,0.0009162979,-0.08335179,0.2587614,9.806232,2,1683969848.610779
-0.007927292,0.02695279,0.9988997,-0.0010690142,0.00076358154,0.0009162979,-0.08335179,0.2587614,9.806232,2,1683969848.6210027
-0.007927292,0.02695279,0.9988997,-0.0010690142,0.00076358154,0.0009162979,-0.08328036,0.25864092,9.806236,2,1683969848.641396
-0.007927292,0.02695279,0.9988997,0.0013744468,0.00076358154,0.0009162979,-0.08328036,0.25864092,9.806236,2,1683969848.6464894
-0.0069516255,0.02695279,0.9988997,0.0013744468,0.00076358154,0.0009162979,-0.08328036,0.25864092,9.806236,2,1683969848.6516032
-0.0069516255,0.02695279,0.9988997,-0.0010690142,0.00076358154,-0.0015271631,-0.08328036,0.25864092,9.806236,2,1683969848.6669576
-0.009878625,0.025001459,0.9964606,-0.0010690142,0.00076358154,-0.0015271631,-0.08328036,0.25864092,9.806236,2,1683969848.6720917
-0.009878625,0.025001459,0.9964606,-0.0010690142,0.00076358154,-0.0015271631,-0.08347112,0.2585884,9.806236,2,1683969848.6771846
-0.009878625,0.025001459,0.9964606,-0.0010690142,0.00076358154,-0.0015271631,-0.083626166,0.25854772,9.806236,2,1683969848.697664
-0.009878625,0.025001459,0.9964606,-0.0022907446,-0.00061086525,-0.00030543262,-0.083626166,0.25854772,9.806236,2,1683969848.7028265
-0.007927292,0.02646496,0.9969484,-0.0022907446,-0.00061086525,-0.00030543262,-0.083626166,0.25854772,9.806236,2,1683969848.7079234
-0.007927292,0.02646496,0.9969484,0.0013744468,0.00076358154,-0.00030543262,-0.083626166,0.25854772,9.806236,2,1683969848.728394
-0.007927292,0.02695279,0.9984119,0.0013744468,0.00076358154,-0.00030543262,-0.083626166,0.25854772,9.806236,2,1683969848.7335262
-0.007927292,0.02695279,0.9984119,0.0013744468,0.00076358154,-0.00030543262,-0.08376844,0.25864238,9.806232,2,1683969848.7386599
-0.007927292,0.02695279,0.9984119,0.0013744468,0.00076358154,-0.00030543262,-0.083737925,0.258751,9.806231,2,1683969848.7643206
-0.007927292,0.023050126,0.99938756,0.0013744468,0.00076358154,-0.00030543262,-0.083737925,0.258751,9.806231,2,1683969848.7694504
-0.007927292,0.023050126,0.99938756,0.0025961774,-0.00045814895,0.0009162979,-0.083737925,0.258751,9.806231,2,1683969848.7797046
-0.007927292,0.02646496,0.9984119,0.0025961774,-0.00045814895,0.0009162979,-0.083737925,0.258751,9.806231,2,1683969848.8002625
-0.007927292,0.02646496,0.9984119,0.0025961774,-0.00045814895,0.0009162979,-0.08374611,0.25892416,9.806226,2,1683969848.8053904
-0.007927292,0.02646496,0.9984119,-0.0022907446,0.0032070426,-0.0027488936,-0.08374611,0.25892416,9.806226,2,1683969848.8156102
-0.007927292,0.02646496,0.9984119,-0.0010690142,0.00076358154,-0.00030543262,-0.08374611,0.25892416,9.806226,2,1683969848.8463826
-0.007927292,0.02646496,0.9984119,-0.0010690142,0.00076358154,-0.00030543262,-0.08368431,0.25923058,9.806218,2,1683969848.8515165
-0.008902958,0.02695279,0.9988388,-0.0010690142,0.00076358154,-0.00030543262,-0.08368431,0.25923058,9.806218,2,1683969848.8617659
-0.0074394583,0.02695279,0.9969484,-0.0010690142,0.00076358154,-0.00030543262,-0.08368431,0.25923058,9.806218,2,1683969848.882278
-0.0074394583,0.02695279,0.9969484,-0.0010690142,0.00076358154,-0.00030543262,-0.083796285,0.2592244,9.806217,2,1683969848.8976347
-0.0074394583,0.02695279,0.9969484,-0.0010690142,0.00076358154,-0.00030543262,-0.08376454,0.25919533,9.806218,2,1683969848.9129837
-0.0074394583,0.02695279,0.9969484,0.0013744468,0.0056505036,0.0009162979,-0.08376454,0.25919533,9.806218,2,1683969848.9181194
-0.008963938,0.02695279,1.0007901,0.0013744468,0.0056505036,0.0009162979,-0.08376454,0.25919533,9.806218,2,1683969848.9334366
-0.008963938,0.02695279,1.0007901,0.0013744468,0.0056505036,0.0009162979,-0.08392918,0.25934237,9.806212,2,1683969848.953949
-0.008963938,0.02695279,1.0007901,0.0025961774,-0.00045814895,-0.0027488936,-0.08392918,0.25934237,9.806212,2,1683969848.959078
-0.010854292,0.02646496,0.9964606,0.0025961774,-0.00045814895,-0.0027488936,-0.08392918,0.25934237,9.806212,2,1683969848.9642146
-0.010854292,0.02646496,0.9964606,0.0013744468,0.00076358154,-0.00030543262,-0.08392918,0.25934237,9.806212,2,1683969848.9898252
-0.00798827,0.02695279,1.0007901,0.0013744468,0.00076358154,-0.00030543262,-0.08392918,0.25934237,9.806212,2,1683969848.99496
-0.00798827,0.02695279,1.0007901,0.0013744468,0.00076358154,-0.00030543262,-0.08373582,0.2593869,9.806213,2,1683969849.000094
-0.0064637917,0.025977125,0.9979241,0.0013744468,0.00076358154,-0.00030543262,-0.08373582,0.2593869,9.806213,2,1683969849.0205593
-0.0064637917,0.025977125,0.9979241,0.0025961774,-0.0016798794,-0.00030543262,-0.08373582,0.2593869,9.806213,2,1683969849.0256934
-0.0064637917,0.025977125,0.9979241,0.0025961774,-0.0016798794,-0.00030543262,-0.08370941,0.2594594,9.806211,2,1683969849.0308232
-0.008415125,0.02646496,0.9964606,0.0025961774,-0.0016798794,-0.00030543262,-0.08370941,0.2594594,9.806211,2,1683969849.0513077
-0.008415125,0.02646496,0.9964606,0.0013744468,0.00076358154,-0.00030543262,-0.08370941,0.2594594,9.806211,2,1683969849.0718498
-0.008415125,0.02646496,0.9964606,0.0013744468,0.00076358154,-0.00030543262,-0.083606325,0.25952464,9.8062105,2,1683969849.0769813
-0.007927292,0.02841629,0.9993266,0.0013744468,0.00076358154,-0.00030543262,-0.083606325,0.25952464,9.8062105,2,1683969849.092332
-0.007927292,0.02841629,0.9993266,0.0013744468,0.00076358154,-0.00030543262,-0.08363032,0.25970262,9.806206,2,1683969849.0974677
-0.007927292,0.02841629,0.9993266,0.0013744468,-0.00045814895,-0.00030543262,-0.08363032,0.25970262,9.806206,2,1683969849.1026008
-0.007927292,0.02841629,0.9993266,0.0013744468,-0.00045814895,-0.00030543262,-0.083654985,0.25966555,9.806206,2,1683969849.1231287
-0.0074394583,0.02695279,0.9969484,0.0013744468,-0.00045814895,-0.00030543262,-0.083654985,0.25966555,9.806206,2,1683969849.138515
-0.0074394583,0.02695279,0.9969484,0.0013744468,-0.00045814895,-0.00030543262,-0.08442709,0.26039338,9.80618,2,1683969849.1436424
-0.0074394583,0.02695279,0.9969484,0.00015271631,-0.00045814895,0.0021380284,-0.08442709,0.26039338,9.80618,2,1683969849.1590326
-0.0074394583,0.02695279,0.9969484,0.0025961774,-0.00045814895,0.0009162979,-0.08442709,0.26039338,9.80618,2,1683969849.174428
-0.007927292,0.025489293,0.9979241,0.0025961774,-0.00045814895,0.0009162979,-0.08442709,0.26039338,9.80618,2,1683969849.179573
-0.007927292,0.025489293,0.9979241,0.0025961774,-0.00045814895,0.0009162979,-0.08446274,0.26043814,9.806179,2,1683969849.1897984
-0.009878625,0.02695279,0.9988388,0.0025961774,-0.00045814895,0.0009162979,-0.08446274,0.26043814,9.806179,2,1683969849.215365
-0.009878625,0.02695279,0.9988388,-0.0022907446,0.0032070426,-0.00030543262,-0.08446274,0.26043814,9.806179,2,1683969849.2204716
-0.009878625,0.02695279,0.9988388,-0.0022907446,0.0032070426,-0.00030543262,-0.08432977,0.26046896,9.806179,2,1683969849.23073
-0.009878625,0.02695279,0.9988388,-0.0010690142,0.00076358154,0.0009162979,-0.08432977,0.26046896,9.806179,2,1683969849.2461197
-0.009878625,0.02695279,0.9988388,-0.0010690142,0.00076358154,0.0009162979,-0.08439142,0.26033574,9.806182,2,1683969849.2511969
-0.008963938,0.02646496,1.0003022,-0.0010690142,0.00076358154,0.0009162979,-0.08439142,0.26033574,9.806182,2,1683969849.2614443
-0.008963938,0.02646496,1.0003022,-0.0010690142,0.00076358154,0.0009162979,-0.0844134,0.26026782,9.806184,2,1683969849.2717092
-0.008415125,0.025001459,0.9984119,-0.0010690142,0.00076358154,0.0009162979,-0.0844134,0.26026782,9.806184,2,1683969849.281945
-0.008415125,0.025001459,0.9984119,0.0025961774,-0.0016798794,0.0009162979,-0.0844134,0.26026782,9.806184,2,1683969849.2870755
-0.008415125,0.025001459,0.9984119,0.0025961774,-0.0016798794,0.0009162979,-0.08428077,0.26030803,9.806184,2,1683969849.307596
-0.008415125,0.025001459,0.9984119,-0.0010690142,-0.0016798794,0.0009162979,-0.08428077,0.26030803,9.806184,2,1683969849.3229818
-0.0074394583,0.027440626,0.9974363,-0.0010690142,-0.0016798794,0.0009162979,-0.08428077,0.26030803,9.806184,2,1683969849.3281178
-0.008415125,0.025001459,0.99987537,-0.0010690142,-0.0016798794,0.0009162979,-0.08428077,0.26030803,9.806184,2,1683969849.3435028
-0.008415125,0.025001459,0.99987537,0.00015271631,0.00076358154,-0.0027488936,-0.08428077,0.26030803,9.806184,2,1683969849.358897
-0.008415125,0.025001459,0.99987537,0.00015271631,0.00076358154,-0.0027488936,-0.08433003,0.26028833,9.806184,2,1683969849.3742898
-0.008415125,0.025001459,0.99987537,0.0013744468,-0.00045814895,0.0009162979,-0.08433003,0.26028833,9.806184,2,1683969849.3845317
-0.008415125,0.025001459,0.99987537,0.0013744468,-0.00045814895,0.0009162979,-0.08453868,0.26034963,9.80618,2,1683969849.394751
-0.007927292,0.025977125,0.9988997,0.0013744468,-0.00045814895,0.0009162979,-0.08453868,0.26034963,9.80618,2,1683969849.4101415
-0.007927292,0.025977125,0.9988997,0.0013744468,-0.00045814895,0.0009162979,-0.085018374,0.2601567,9.806182,2,1683969849.4356816
-0.008902958,0.025489293,0.9979241,0.0013744468,-0.00045814895,0.0009162979,-0.085018374,0.2601567,9.806182,2,1683969849.4408092
-0.008902958,0.025489293,0.9979241,-0.00015271631,0.00076358154,-0.00030543262,-0.085018374,0.2601567,9.806182,2,1683969849.4459426
-0.0069516255,0.027440626,0.9974363,-0.00015271631,0.00076358154,-0.00030543262,-0.085018374,0.2601567,9.806182,2,1683969849.4715047
-0.0069516255,0.027440626,0.9974363,-0.00015271631,0.00076358154,-0.00030543262,-0.08513106,0.26014423,9.806181,2,1683969849.4766364
-0.0069516255,0.027440626,0.9974363,-0.00015271631,0.00076358154,0.0009162979,-0.08513106,0.26014423,9.806181,2,1683969849.4817748
-0.0069516255,0.027440626,0.9974363,-0.0013744468,0.00076358154,0.0021380284,-0.08513106,0.26014423,9.806181,2,1683969849.5022871
-0.008415125,0.02646496,0.9984119,-0.0013744468,0.00076358154,0.0021380284,-0.08513106,0.26014423,9.806181,2,1683969849.5073779
-0.008415125,0.02646496,0.9984119,-0.0013744468,0.00076358154,0.0021380284,-0.08533836,0.26016328,9.806179,2,1683969849.512511
-0.008415125,0.02646496,0.9984119,0.0010690142,-0.00290161,0.0009162979,-0.08533836,0.26016328,9.806179,2,1683969849.5330307
-0.008415125,0.02646496,0.9984119,0.0010690142,-0.00290161,0.0009162979,-0.08511158,0.2601045,9.806182,2,1683969849.5381184
-0.0074394583,0.025001459,0.9979241,0.0010690142,-0.00290161,0.0009162979,-0.08511158,0.2601045,9.806182,2,1683969849.543176
-0.00798827,0.024025792,1.0012779,0.0010690142,-0.00290161,0.0009162979,-0.08511158,0.2601045,9.806182,2,1683969849.573946
-0.00798827,0.024025792,1.0012779,0.0010690142,-0.00290161,0.0009162979,-0.08496988,0.26012334,9.806184,2,1683969849.5790775
-0.00798827,0.024025792,1.0012779,-0.00015271631,-0.00290161,-0.00030543262,-0.08496988,0.26012334,9.806184,2,1683969849.5842028
-0.00798827,0.024025792,1.0012779,-0.00015271631,-0.00290161,-0.00030543262,-0.08472194,0.2601233,9.806185,2,1683969849.5944629
-0.00798827,0.024025792,1.0012779,-0.00015271631,-0.0016798794,-0.0015271631,-0.08472194,0.2601233,9.806185,2,1683969849.6047094
-0.008902958,0.023537958,0.9984119,-0.00015271631,-0.0016798794,-0.0015271631,-0.08472194,0.2601233,9.806185,2,1683969849.609842
-0.008902958,0.023537958,0.9984119,-0.00015271631,-0.0016798794,-0.0015271631,-0.084598586,0.26008755,9.806187,2,1683969849.6303654
-0.007927292,0.025001459,0.9959728,-0.00015271631,-0.0016798794,-0.0015271631,-0.084598586,0.26008755,9.806187,2,1683969849.6457434
-0.007927292,0.025001459,0.9959728,-0.00015271631,-0.00045814895,-0.0015271631,-0.084598586,0.26008755,9.806187,2,1683969849.6559668
-0.007927292,0.025001459,0.9959728,-0.00015271631,0.004428773,-0.00030543262,-0.084598586,0.26008755,9.806187,2,1683969849.6764455
-0.008415125,0.027440626,0.9993266,-0.00015271631,0.004428773,-0.00030543262,-0.084598586,0.26008755,9.806187,2,1683969849.696953
-0.008415125,0.027440626,0.9993266,-0.00015271631,0.004428773,-0.00030543262,-0.084047355,0.26003268,9.806193,2,1683969849.7021065
-0.008415125,0.027440626,0.9993266,0.0010690142,-0.00045814895,-0.0015271631,-0.084047355,0.26003268,9.806193,2,1683969849.7123418
-0.00798827,0.027440626,1.0012779,0.0010690142,-0.00045814895,-0.0015271631,-0.084047355,0.26003268,9.806193,2,1683969849.7225976
-0.00798827,0.027440626,1.0012779,0.0010690142,-0.00045814895,-0.0015271631,-0.08404407,0.26011226,9.8061905,2,1683969849.7328565
-0.00798827,0.027440626,1.0012779,-0.0025961774,-0.004276057,-0.00030543262,-0.08404407,0.26011226,9.8061905,2,1683969849.7533758
-0.00798827,0.027440626,1.0012779,-0.0025961774,-0.004276057,-0.00030543262,-0.08390247,0.25998855,9.806195,2,1683969849.7636406
-0.00798827,0.027440626,1.0012779,-0.0013744468,0.00076358154,-0.0015271631,-0.08390247,0.25998855,9.806195,2,1683969849.7739
-0.009390792,0.02646496,0.9988997,-0.0013744468,0.00076358154,-0.0015271631,-0.08390247,0.25998855,9.806195,2,1683969849.7790241
-0.009390792,0.02646496,0.9988997,-0.00015271631,-0.00290161,-0.00030543262,-0.08390247,0.25998855,9.806195,2,1683969849.8046281
-0.0069516255,0.025977125,0.9988997,-0.00015271631,-0.00290161,-0.00030543262,-0.08390247,0.25998855,9.806195,2,1683969849.8148997
-0.0069516255,0.025977125,0.9988997,-0.00015271631,-0.00290161,-0.00030543262,-0.08393365,0.25992408,9.806197,2,1683969849.8200257
-0.008902958,0.02646496,0.9964606,-0.00015271631,-0.00290161,-0.00030543262,-0.08393365,0.25992408,9.806197,2,1683969849.8354
-0.008902958,0.02646496,0.9964606,-0.00015271631,-0.00290161,-0.00030543262,-0.08399568,0.2598949,9.806197,2,1683969849.8507905
-0.008902958,0.02646496,0.9964606,-0.00015271631,-0.0016798794,-0.00030543262,-0.08399568,0.2598949,9.806197,2,1683969849.8559191
-0.008902958,0.02646496,0.9964606,-0.00015271631,-0.0016798794,-0.00030543262,-0.08377229,0.25985685,9.8062,2,1683969849.8661768
-0.008902958,0.02646496,0.9964606,-0.00015271631,-0.00045814895,0.0009162979,-0.08377229,0.25985685,9.8062,2,1683969849.8764076
-0.0069516255,0.025977125,0.9984119,-0.00015271631,-0.00045814895,0.0009162979,-0.08377229,0.25985685,9.8062,2,1683969849.8969164
-0.0069516255,0.025977125,0.9984119,-0.00015271631,-0.00045814895,0.0009162979,-0.0838427,0.25979936,9.806202,2,1683969849.9225676
-0.0069516255,0.025977125,0.9984119,0.0035124752,-0.00045814895,-0.0015271631,-0.0838427,0.25979936,9.806202,2,1683969849.9276972
-0.0069516255,0.025977125,0.9984119,0.0010690142,-0.00045814895,-0.0015271631,-0.0838427,0.25979936,9.806202,2,1683969849.943096
-0.0069516255,0.025977125,0.9984119,0.0010690142,-0.00045814895,-0.0015271631,-0.083628014,0.25989512,9.806201,2,1683969849.9533505
-0.007927292,0.02695279,0.9984119,0.0010690142,-0.00045814895,-0.0015271631,-0.083628014,0.25989512,9.806201,2,1683969849.9636145
