acc_x,acc_y,acc_z,gyr_x,gyr_y,gyr_z,grav_x,grav_y,grav_z,label,timestamp
-0.05574824,-0.015271621,0.98254,0.0012016296,-0.00093460083,-0.0018692017,-0.5570557,-0.14961733,9.789673,2,1683807337.567199
-0.056233536,-0.016500022,0.9805988,0.0001335144,-0.00093460083,0.0002670288,-0.5570557,-0.14961733,9.789673,2,1683807337.5828238
-0.056233536,-0.016500022,0.9805988,0.0001335144,-0.00093460083,0.0002670288,-0.5567229,-0.14985912,9.789688,2,1683807337.5984483
-0.055990886,-0.014058384,0.98132676,0.0001335144,0.0001335144,0.0002670288,-0.5567355,-0.14935447,9.789696,2,1683807337.6140738
-0.05574824,-0.013815736,0.9810841,0.0001335144,0.0001335144,0.0002670288,-0.5567355,-0.14935447,9.789696,2,1683807337.6609492
-0.05574824,-0.013815736,0.9810841,0.0001335144,0.0001335144,-0.0008010864,-0.5570194,-0.14936075,9.789679,2,1683807337.6765745
-0.05574824,-0.013815736,0.9810841,0.0001335144,0.0001335144,-0.0008010864,-0.55736786,-0.14919049,9.789661,2,1683807337.6921995
-0.05671883,-0.014543679,0.9815694,0.0001335144,0.0001335144,-0.0008010864,-0.55736786,-0.14919049,9.789661,2,1683807337.6921995
-0.055262946,-0.014301031,0.9815694,0.0001335144,0.0001335144,-0.0008010864,-0.55736786,-0.14919049,9.789661,2,1683807337.707823
-0.055262946,-0.015999563,0.98009837,0.0001335144,0.0001335144,0.0002670288,-0.55767876,-0.14911485,9.789645,2,1683807337.754699
-0.055262946,-0.015999563,0.98009837,0.0001335144,0.0012016296,-0.0008010864,-0.55767876,-0.14911485,9.789645,2,1683807337.7703242
-0.057461936,-0.018441202,0.98254,0.0001335144,0.0012016296,-0.0008010864,-0.55760384,-0.1506945,9.789625,2,1683807337.7859488
-0.053791896,-0.018699015,0.97961307,0.0001335144,-0.002002716,0.0002670288,-0.55760384,-0.1506945,9.789625,2,1683807337.8328242
-0.053791896,-0.018699015,0.97961307,0.0001335144,0.0001335144,-0.0008010864,-0.55694973,-0.15128227,9.789653,2,1683807337.848448
-0.056233536,-0.016985318,0.9815694,0.0001335144,0.0001335144,-0.0008010864,-0.55694973,-0.15128227,9.789653,2,1683807337.848448
-0.056233536,-0.013815736,0.98009837,0.0001335144,-0.00093460083,0.0002670288,-0.5580325,-0.15093613,9.789597,2,1683807337.8796983
-0.059645765,-0.0130726285,0.9832831,0.0001335144,0.0022697449,0.0002670288,-0.55844045,-0.15075776,9.789577,2,1683807337.895324
-0.056233536,-0.015756916,0.97912776,0.0012016296,-0.00093460083,0.0002670288,-0.55823314,-0.15086137,9.789587,2,1683807337.9109485
-0.054519836,-0.014301031,0.98181206,0.0001335144,0.0001335144,0.0002670288,-0.55704963,-0.15103257,9.789651,2,1683807337.9734488
-0.05354925,-0.015028973,0.9810841,0.0001335144,0.0001335144,0.0002670288,-0.5564093,-0.15117823,9.789685,2,1683807338.0047007
-0.057461936,-0.013315276,0.980341,0.0001335144,0.0001335144,0.0002670288,-0.5568289,-0.15072624,9.789668,2,1683807338.0359485
-0.055990886,-0.016257375,0.98084146,0.0001335144,0.0001335144,0.0002670288,-0.5568289,-0.15072624,9.789668,2,1683807338.0515738
-0.055990886,-0.016257375,0.98084146,0.0001335144,0.0001335144,0.001335144,-0.5568289,-0.15072624,9.789668,2,1683807338.0671995
-0.05891782,-0.014301031,0.9793704,0.0001335144,0.0012016296,0.0002670288,-0.55693114,-0.15104376,9.789659,2,1683807338.0828233
-0.054034542,-0.015999563,0.9805988,0.0001335144,-0.00093460083,0.0002670288,-0.5578566,-0.15083605,9.789608,2,1683807338.098443
-0.054034542,-0.015999563,0.9805988,0.0001335144,-0.00093460083,0.0002670288,-0.557723,-0.150899,9.789615,2,1683807338.1296973
-0.059645765,-0.014543679,0.98084146,0.0001335144,0.0012016296,0.001335144,-0.5582669,-0.15078413,9.789586,2,1683807338.1453185
-0.059645765,-0.015756916,0.98132676,0.0001335144,0.0012016296,0.001335144,-0.5591809,-0.15043116,9.789538,2,1683807338.1609452
-0.059645765,-0.015756916,0.98132676,0.0012016296,0.0001335144,-0.0008010864,-0.5591809,-0.15043116,9.789538,2,1683807338.1765685
-0.05233601,-0.017955907,0.9805988,-0.00093460083,0.0001335144,-0.0008010864,-0.55885667,-0.15087232,9.789551,2,1683807338.1921928
-0.053306602,-0.01771326,0.98304045,-0.00093460083,0.0001335144,0.001335144,-0.5580919,-0.15100196,9.789593,2,1683807338.207818
-0.054777652,-0.014058384,0.9815694,0.0012016296,0.0001335144,0.0002670288,-0.5572829,-0.15064983,9.789643,2,1683807338.2703187
-0.05574824,-0.015999563,0.9805988,0.0012016296,-0.00093460083,0.0002670288,-0.5572529,-0.15047817,9.789648,2,1683807338.3015778
-0.05574824,-0.015999563,0.9805988,0.0001335144,-0.00093460083,0.0002670288,-0.556988,-0.1506631,9.7896595,2,1683807338.3171988
-0.0550203,-0.01674267,0.98229736,0.0001335144,-0.00093460083,0.0002670288,-0.556988,-0.1506631,9.7896595,2,1683807338.3171988
-0.0550203,-0.01674267,0.98229736,0.0001335144,0.0001335144,0.0002670288,-0.556988,-0.1506631,9.7896595,2,1683807338.3640678
-0.055505592,-0.014301031,0.98254,-0.00093460083,-0.00093460083,0.001335144,-0.5571428,-0.15098023,9.789646,2,1683807338.379694
-0.053306602,-0.015514269,0.98229736,0.0001335144,0.0001335144,-0.0008010864,-0.5562321,-0.1508968,9.7897,2,1683807338.3953178
-0.05574824,-0.015271621,0.9805988,0.0001335144,0.0001335144,-0.0008010864,-0.55603826,-0.15079243,9.789713,2,1683807338.4421923
-0.056233536,-0.015756916,0.98084146,0.0001335144,0.0001335144,0.0002670288,-0.55599546,-0.1512039,9.789709,2,1683807338.4578176
-0.057704587,-0.014786326,0.9810841,0.0001335144,0.0001335144,0.0002670288,-0.55599546,-0.1512039,9.789709,2,1683807338.4734428
-0.055505592,-0.01674267,0.9788851,0.0001335144,-0.00093460083,-0.0008010864,-0.5560314,-0.1509874,9.78971,2,1683807338.4890676
-0.055990886,-0.019912252,0.98132676,0.0001335144,-0.00093460083,-0.0008010864,-0.5560064,-0.15137656,9.789705,2,1683807338.5050762
-0.05354925,-0.016257375,0.980341,0.0012016296,0.0001335144,0.001335144,-0.55603695,-0.15187329,9.789696,2,1683807338.5363324
-0.05427719,-0.014058384,0.98181206,-0.00093460083,-0.00093460083,0.0002670288,-0.5560573,-0.15194832,9.789694,2,1683807338.5675836
-0.055990886,-0.017955907,0.9815694,0.0001335144,0.0001335144,0.0002670288,-0.5560821,-0.15216978,9.789689,2,1683807338.5988343
-0.055990886,-0.017955907,0.9815694,0.0001335144,-0.00093460083,0.0002670288,-0.5560821,-0.15216978,9.789689,2,1683807338.614458
-0.05427719,-0.015999563,0.98254,0.0012016296,0.0001335144,0.0002670288,-0.55654496,-0.15147008,9.789674,2,1683807338.6300828
-0.05721929,-0.014301031,0.9815694,0.0001335144,0.0001335144,0.0002670288,-0.5567335,-0.1511298,9.789667,2,1683807338.6457078
-0.05721929,-0.014301031,0.9815694,0.0001335144,0.0001335144,0.0002670288,-0.5568905,-0.15098335,9.78966,2,1683807338.6613328
-0.059645765,-0.015756916,0.9798557,0.0001335144,-0.00093460083,0.0002670288,-0.5573712,-0.15101103,9.789633,2,1683807338.6769567
-0.05721929,-0.015028973,0.98229736,0.0001335144,-0.00093460083,0.0002670288,-0.5573712,-0.15101103,9.789633,2,1683807338.6925828
-0.057461936,-0.0130726285,0.98084146,0.0012016296,-0.00093460083,0.0002670288,-0.5570521,-0.15054417,9.7896595,2,1683807338.7082078
-0.057461936,-0.0130726285,0.98084146,0.0001335144,0.0001335144,0.0002670288,-0.5570521,-0.15054417,9.7896595,2,1683807338.7550848
-0.059645765,-0.014301031,0.97864246,-0.00093460083,0.0012016296,0.001335144,-0.5570451,-0.15094773,9.789654,2,1683807338.7863348
-0.059645765,-0.014301031,0.97864246,-0.00093460083,0.0001335144,-0.0008010864,-0.5568131,-0.15105137,9.789664,2,1683807338.8019602
-0.054034542,-0.017227964,0.98254,-0.00093460083,0.0001335144,-0.0008010864,-0.5568131,-0.15105137,9.789664,2,1683807338.8019602
-0.054034542,-0.017227964,0.98254,-0.00093460083,0.0001335144,-0.0008010864,-0.55742776,-0.15098073,9.78963,2,1683807338.817585
-0.057947233,-0.015271621,0.9837684,-0.002002716,0.0001335144,0.0002670288,-0.55777633,-0.15107714,9.789609,2,1683807338.848836
-0.057947233,-0.01771326,0.9776567,-0.00093460083,-0.00093460083,0.001335144,-0.55801344,-0.1509759,9.7895975,2,1683807338.8644598
-0.057947233,-0.016985318,0.98181206,-0.00093460083,-0.00093460083,0.001335144,-0.55801344,-0.1509759,9.7895975,2,1683807338.8800855
-0.057947233,-0.016985318,0.98181206,0.0001335144,-0.00093460083,0.0002670288,-0.55801344,-0.1509759,9.7895975,2,1683807338.8957083
-0.057947233,-0.016985318,0.98181206,0.0001335144,0.0001335144,0.001335144,-0.5580248,-0.15085335,9.789598,2,1683807338.9269602
-0.057947233,-0.016985318,0.98181206,0.0012016296,-0.00093460083,0.0002670288,-0.5580248,-0.15085335,9.789598,2,1683807338.9425886
-0.055262946,-0.013315276,0.98304045,0.0012016296,-0.00093460083,0.0002670288,-0.5580248,-0.15085335,9.789598,2,1683807338.9582112
-0.055262946,-0.013315276,0.98304045,0.0012016296,-0.00093460083,0.0002670288,-0.5578526,-0.15030047,9.789616,2,1683807339.0050852
-0.055990886,-0.014301031,0.98084146,0.0012016296,0.0001335144,-0.0008010864,-0.5578526,-0.15030047,9.789616,2,1683807339.0050852
-0.059403118,-0.01674267,0.9820547,0.0012016296,0.0001335144,-0.0008010864,-0.5578373,-0.15066087,9.789612,2,1683807339.0207105
-0.059403118,-0.01674267,0.9820547,-0.00093460083,-0.00093460083,0.0002670288,-0.5578373,-0.15066087,9.789612,2,1683807339.036338
-0.059403118,-0.01674267,0.9820547,0.0001335144,0.0001335144,0.001335144,-0.5589604,-0.15074562,9.789546,2,1683807339.114851
-0.058432527,-0.017470613,0.9810841,0.0001335144,0.0001335144,0.001335144,-0.5589604,-0.15074562,9.789546,2,1683807339.114851
-0.058432527,-0.017470613,0.9810841,0.0012016296,0.0001335144,0.0002670288,-0.55858374,-0.15077296,9.789568,2,1683807339.1304762
-0.058432527,-0.017470613,0.9810841,0.0012016296,0.0001335144,0.0002670288,-0.55830485,-0.15113215,9.789578,2,1683807339.1461031
-0.054519836,-0.018198555,0.98009837,0.0012016296,0.0001335144,0.0002670288,-0.55830485,-0.15113215,9.789578,2,1683807339.1461031
-0.054519836,-0.018198555,0.98009837,-0.00093460083,-0.00093460083,0.0002670288,-0.55830485,-0.15113215,9.789578,2,1683807339.1773515
-0.05891782,-0.016500022,0.9798557,-0.00093460083,0.0001335144,0.001335144,-0.55873346,-0.15088989,9.789557,2,1683807339.1929753
-0.05891782,-0.016500022,0.9798557,-0.00093460083,0.0001335144,0.001335144,-0.55868864,-0.15107368,9.789557,2,1683807339.2086024
-0.057704587,-0.015271621,0.97961307,0.0012016296,0.0001335144,0.0002670288,-0.55868864,-0.15107368,9.789557,2,1683807339.2242265
-0.056233536,-0.014786326,0.9810841,0.0012016296,0.0001335144,0.0002670288,-0.55868864,-0.15107368,9.789557,2,1683807339.2398505
-0.056233536,-0.014786326,0.9810841,0.0012016296,0.0001335144,0.0002670288,-0.55905503,-0.15115838,9.7895355,2,1683807339.2711022
-0.055262946,-0.015028973,0.98132676,0.0012016296,0.0001335144,0.0002670288,-0.55905503,-0.15115838,9.7895355,2,1683807339.2711022
-0.057704587,-0.020640194,0.9820547,0.0012016296,-0.00093460083,0.0002670288,-0.5590236,-0.1513132,9.789535,2,1683807339.2867265
-0.051107608,-0.015514269,0.9815694,-0.00093460083,0.0012016296,0.0002670288,-0.5585287,-0.1515947,9.789558,2,1683807339.3179772
-0.05354925,-0.018941663,0.9815694,-0.00093460083,0.0012016296,0.0002670288,-0.55847806,-0.15164037,9.78956,2,1683807339.333607
-0.05354925,-0.018941663,0.9815694,0.0012016296,0.0001335144,-0.0008010864,-0.55847806,-0.15164037,9.78956,2,1683807339.3492284
-0.055262946,-0.0130726285,0.97864246,0.0001335144,0.0001335144,0.0002670288,-0.5585914,-0.151684,9.789553,2,1683807339.3648527
-0.055262946,-0.0130726285,0.97864246,-0.00093460083,0.0012016296,0.0002670288,-0.5584985,-0.15161334,9.789559,2,1683807339.3804777
-0.05574824,-0.013573089,0.98181206,-0.00093460083,0.0012016296,0.0002670288,-0.5584985,-0.15161334,9.789559,2,1683807339.3804777
-0.056233536,-0.012829981,0.9810841,-0.00093460083,-0.00093460083,0.0002670288,-0.5584985,-0.15161334,9.789559,2,1683807339.396103
-0.056233536,-0.012829981,0.9810841,-0.00093460083,-0.00093460083,0.0002670288,-0.5584813,-0.15129536,9.789566,2,1683807339.4117317
-0.05427719,-0.015999563,0.9842537,-0.00093460083,-0.00093460083,0.0002670288,-0.5584813,-0.15129536,9.789566,2,1683807339.4273534
-0.05427719,-0.015999563,0.9842537,0.0001335144,0.0001335144,0.0002670288,-0.5584813,-0.15129536,9.789566,2,1683807339.442978
-0.05427719,-0.015999563,0.9842537,0.0001335144,0.0001335144,0.001335144,-0.5583317,-0.15135653,9.789574,2,1683807339.48985
-0.054519836,-0.015028973,0.97961307,0.0001335144,0.0001335144,0.001335144,-0.5583317,-0.15135653,9.789574,2,1683807339.48985
-0.054519836,-0.015028973,0.97961307,0.0001335144,0.0001335144,0.001335144,-0.5581492,-0.15111381,9.789587,2,1683807339.5054755
-0.05671883,-0.017955907,0.9793704,0.0001335144,0.0001335144,0.001335144,-0.5581492,-0.15111381,9.789587,2,1683807339.5211027
-0.05671883,-0.017955907,0.9793704,0.0001335144,0.0001335144,0.001335144,-0.5583374,-0.15131575,9.789573,2,1683807339.5523508
-0.054777652,-0.014543679,0.98181206,0.0001335144,0.0001335144,0.0002670288,-0.5583374,-0.15131575,9.789573,2,1683807339.5523508
-0.056961477,-0.018699015,0.9805988,0.0001335144,0.0001335144,0.0002670288,-0.5583374,-0.15131575,9.789573,2,1683807339.5679777
-0.056961477,-0.018699015,0.9805988,0.0001335144,0.0001335144,0.0002670288,-0.5583144,-0.15237351,9.789557,2,1683807339.5836034
-0.05233601,-0.017955907,0.97961307,0.0001335144,0.0001335144,0.0002670288,-0.5583144,-0.15237351,9.789557,2,1683807339.6148512
-0.057461936,-0.014301031,0.97912776,0.0001335144,0.0012016296,0.001335144,-0.55852956,-0.1520639,9.789551,2,1683807339.6304784
-0.057461936,-0.014301031,0.97912776,-0.002002716,0.0001335144,-0.0008010864,-0.55836076,-0.15190281,9.789562,2,1683807339.6617289
-0.054034542,-0.015756916,0.9798557,0.0001335144,-0.00093460083,0.0002670288,-0.55836076,-0.15190281,9.789562,2,1683807339.6773567
-0.054034542,-0.015756916,0.9798557,0.0001335144,-0.00093460083,0.0002670288,-0.55811125,-0.15257147,9.789567,2,1683807339.6929812
-0.054034542,-0.015756916,0.9798557,0.0001335144,-0.002002716,0.0002670288,-0.55811125,-0.15257147,9.789567,2,1683807339.6929812
-0.058432527,-0.014058384,0.9810841,0.0001335144,-0.00093460083,0.0002670288,-0.55811125,-0.15257147,9.789567,2,1683807339.7086022
-0.055262946,-0.014543679,0.9827826,0.0001335144,0.0012016296,-0.0008010864,-0.55811125,-0.15257147,9.789567,2,1683807339.7398517
-0.055262946,-0.014543679,0.9827826,0.0001335144,0.0001335144,0.0002670288,-0.55811125,-0.15257147,9.789567,2,1683807339.7554767
-0.05427719,-0.015028973,0.9820547,0.0001335144,0.0001335144,0.0002670288,-0.5578288,-0.15178494,9.789596,2,1683807339.7711015
-0.057704587,-0.014543679,0.9793704,0.0001335144,0.0001335144,0.0002670288,-0.5578288,-0.15178494,9.789596,2,1683807339.786727
-0.057704587,-0.014543679,0.9793704,0.0001335144,-0.00093460083,0.0002670288,-0.5579038,-0.15179671,9.78959,2,1683807339.8336074
-0.05671883,-0.014301031,0.98084146,0.0012016296,0.0001335144,-0.0008010864,-0.55797684,-0.15166695,9.789588,2,1683807339.880477
-0.056233536,-0.014301031,0.9820547,-0.00093460083,0.0001335144,0.0002670288,-0.55789244,-0.15139367,9.7895975,2,1683807339.896102
-0.056233536,-0.014301031,0.9820547,0.0001335144,0.0012016296,0.0002670288,-0.55789244,-0.15139367,9.7895975,2,1683807339.9117327
-0.055990886,-0.0130726285,0.9805988,0.0001335144,0.0012016296,0.0002670288,-0.55789244,-0.15139367,9.7895975,2,1683807339.9429758
-0.055990886,-0.014058384,0.98084146,0.0001335144,0.0012016296,0.0002670288,-0.5579767,-0.15136427,9.789593,2,1683807339.9586003
-0.055990886,-0.014058384,0.98084146,0.0001335144,0.0012016296,0.0002670288,-0.55839276,-0.15141094,9.789569,2,1683807339.9898505
-0.055990886,-0.014058384,0.98084146,0.0001335144,0.0001335144,0.0002670288,-0.55839276,-0.15141094,9.789569,2,1683807340.0054753
-0.055505592,-0.015271621,0.9798557,0.0001335144,0.0012016296,-0.0008010864,-0.55839276,-0.15141094,9.789569,2,1683807340.0211012
-0.055505592,-0.015271621,0.9798557,0.0001335144,0.0012016296,-0.0008010864,-0.5587929,-0.15128593,9.789548,2,1683807340.0523517
-0.054034542,-0.01771326,0.98009837,0.0001335144,0.0001335144,-0.0008010864,-0.5586255,-0.15159354,9.789553,2,1683807340.0836003
-0.054034542,-0.01771326,0.98009837,0.0001335144,0.0001335144,-0.0008010864,-0.5587395,-0.15173918,9.789544,2,1683807340.1148534
-0.053306602,-0.015514269,0.9805988,0.0001335144,0.0012016296,-0.0008010864,-0.55858964,-0.15156925,9.789556,2,1683807340.1304765
-0.053306602,-0.015514269,0.9805988,0.0001335144,0.0012016296,-0.0008010864,-0.558101,-0.15191981,9.7895775,2,1683807340.1617265
-0.053306602,-0.01674267,0.98181206,-0.00093460083,0.0001335144,0.0002670288,-0.558101,-0.15191981,9.7895775,2,1683807340.1617265
-0.053306602,-0.01674267,0.98181206,0.0001335144,-0.00093460083,0.001335144,-0.5578346,-0.15173404,9.789596,2,1683807340.1773512
-0.055990886,-0.013315276,0.9805988,0.0001335144,-0.00093460083,0.001335144,-0.5578346,-0.15173404,9.789596,2,1683807340.1929755
-0.055990886,-0.013315276,0.9805988,0.0001335144,0.0012016296,0.001335144,-0.5578346,-0.15173404,9.789596,2,1683807340.2398512
-0.05818988,-0.016985318,0.97815716,0.0001335144,0.0001335144,0.0024032593,-0.5585504,-0.15170914,9.789555,2,1683807340.2710998
-0.057461936,-0.013315276,0.9805988,0.0001335144,0.0001335144,0.0002670288,-0.55877,-0.15128003,9.789549,2,1683807340.2867255
-0.057461936,-0.013315276,0.9805988,0.0012016296,-0.00093460083,-0.0008010864,-0.55877,-0.15128003,9.789549,2,1683807340.3023565
-0.056961477,-0.013815736,0.9798557,0.0001335144,0.0001335144,0.0002670288,-0.55880994,-0.15217361,9.789534,2,1683807340.3179767
-0.054777652,-0.011374097,0.98304045,0.0001335144,0.0001335144,0.0002670288,-0.55880994,-0.15217361,9.789534,2,1683807340.349226
-0.054777652,-0.011374097,0.98304045,0.0001335144,0.0001335144,0.0002670288,-0.55818677,-0.15207343,9.789571,2,1683807340.3648572
-0.054777652,-0.011374097,0.98304045,0.0001335144,0.0001335144,-0.0008010864,-0.5583632,-0.15227064,9.7895565,2,1683807340.3961012
-0.054777652,-0.011374097,0.98304045,0.0001335144,0.0001335144,0.0002670288,-0.5583632,-0.15227064,9.7895565,2,1683807340.4117258
-0.0550203,-0.016257375,0.98254,0.0001335144,0.0012016296,-0.0008010864,-0.55824256,-0.15203269,9.789568,2,1683807340.4273508
-0.056233536,-0.016500022,0.9805988,0.0001335144,0.0001335144,0.0002670288,-0.5581502,-0.15254079,9.789565,2,1683807340.4586017
-0.058432527,-0.012829981,0.980341,0.0001335144,0.0001335144,0.0002670288,-0.5581502,-0.15254079,9.789565,2,1683807340.489851
-0.058432527,-0.012829981,0.980341,0.0001335144,0.0001335144,0.0002670288,-0.5585386,-0.15217306,9.789549,2,1683807340.536726
-0.058432527,-0.012829981,0.980341,0.0001335144,0.0001335144,-0.0008010864,-0.5587705,-0.15217376,9.7895355,2,1683807340.5523503
-0.059645765,-0.017470613,0.98181206,0.0001335144,0.0001335144,-0.0008010864,-0.5587705,-0.15217376,9.7895355,2,1683807340.5523503
-0.056233536,-0.014301031,0.98084146,0.0001335144,0.0001335144,-0.0008010864,-0.5587705,-0.15217376,9.7895355,2,1683807340.5992253
-0.056233536,-0.014301031,0.98084146,-0.00093460083,-0.00093460083,0.0002670288,-0.5592095,-0.15240547,9.789507,2,1683807340.6148522
-0.056233536,-0.014301031,0.98084146,-0.00093460083,-0.00093460083,0.0002670288,-0.5592053,-0.15219933,9.789511,2,1683807340.6304789
-0.05574824,-0.017470613,0.98132676,0.0001335144,0.0001335144,0.0002670288,-0.55939937,-0.152388,9.789496,2,1683807340.646101
-0.054777652,-0.015999563,0.9815694,0.0001335144,0.0001335144,-0.0008010864,-0.55936116,-0.15232791,9.789499,2,1683807340.6617258
-0.054777652,-0.015999563,0.9815694,0.0001335144,0.0001335144,0.001335144,-0.55936116,-0.15232791,9.789499,2,1683807340.692977
-0.055505592,-0.012344686,0.9805988,0.0001335144,0.0001335144,0.001335144,-0.55962384,-0.15206745,9.789489,2,1683807340.708602
-0.055505592,-0.012344686,0.9805988,-0.00093460083,-0.00093460083,0.001335144,-0.55962384,-0.15206745,9.789489,2,1683807340.755477
-0.05233601,-0.016257375,0.9827826,0.0001335144,0.0001335144,-0.0008010864,-0.55929935,-0.15224764,9.789504,2,1683807340.7711065
-0.054777652,-0.015028973,0.9810841,0.0012016296,-0.00093460083,0.0002670288,-0.55925256,-0.1514752,9.789518,2,1683807340.7867272
-0.05574824,-0.013815736,0.9798557,0.0012016296,-0.00093460083,0.0002670288,-0.55929935,-0.15224764,9.789504,2,1683807340.8023558
-0.05574824,-0.013815736,0.9798557,0.0001335144,0.0001335144,-0.0008010864,-0.55929935,-0.15224764,9.789504,2,1683807340.8179812
-0.057947233,-0.014058384,0.9815694,0.0012016296,0.0001335144,0.0002670288,-0.5593614,-0.15132417,9.789515,2,1683807340.8336124
-0.0550203,-0.016500022,0.9810841,0.0012016296,-0.00093460083,0.0002670288,-0.5593614,-0.15132417,9.789515,2,1683807340.849233
-0.0550203,-0.016500022,0.9810841,0.0012016296,-0.00093460083,0.0002670288,-0.55901533,-0.15170519,9.789529,2,1683807340.8648646
-0.052578658,-0.015514269,0.98084146,0.0012016296,-0.00093460083,0.0002670288,-0.55901533,-0.15170519,9.789529,2,1683807340.88048
-0.052578658,-0.015514269,0.98084146,0.0001335144,-0.00093460083,0.0002670288,-0.5588304,-0.15160626,9.789541,2,1683807340.9117284
-0.052578658,-0.015514269,0.98084146,0.0001335144,-0.00093460083,0.0002670288,-0.55840504,-0.15170166,9.789564,2,1683807340.9742267
-0.054777652,-0.015514269,0.98132676,0.0001335144,-0.00093460083,0.0002670288,-0.55840504,-0.15170166,9.789564,2,1683807340.989851
-0.055262946,-0.015756916,0.9820547,0.0001335144,-0.00093460083,0.0002670288,-0.5584004,-0.15195023,9.78956,2,1683807341.0211017
-0.055262946,-0.015756916,0.9820547,0.0001335144,-0.00093460083,0.0002670288,-0.5583747,-0.15178928,9.789563,2,1683807341.036732
-0.055262946,-0.015756916,0.9820547,0.0001335144,-0.00093460083,-0.0008010864,-0.5583747,-0.15178928,9.789563,2,1683807341.036732
-0.055262946,-0.015756916,0.9820547,-0.00093460083,0.0001335144,0.001335144,-0.5583747,-0.15178928,9.789563,2,1683807341.0523515
-0.05671883,-0.014786326,0.98084146,0.0001335144,-0.00093460083,-0.0008010864,-0.55807626,-0.15178946,9.789581,2,1683807341.083607
-0.052578658,-0.016500022,0.98229736,-0.00093460083,0.0012016296,0.0002670288,-0.55793285,-0.15178654,9.78959,2,1683807341.114852
-0.05916047,-0.013573089,0.9820547,-0.00093460083,0.0012016296,0.0002670288,-0.55793285,-0.15178654,9.78959,2,1683807341.1461008
-0.057704587,-0.014786326,0.9815694,0.0001335144,-0.00093460083,0.0002670288,-0.55838156,-0.15198621,9.78956,2,1683807341.17735
-0.054777652,-0.014786326,0.98132676,-0.00093460083,-0.00093460083,0.001335144,-0.55812854,-0.15210561,9.789573,2,1683807341.192977
-0.057461936,-0.015271621,0.97912776,0.0001335144,0.0001335144,-0.0008010864,-0.55827016,-0.15215458,9.789565,2,1683807341.2086012
-0.05671883,-0.015999563,0.9798557,0.0012016296,0.0001335144,0.001335144,-0.5582748,-0.15221865,9.789563,2,1683807341.255482
-0.053306602,-0.015271621,0.980341,0.0001335144,0.0001335144,0.0002670288,-0.5583377,-0.15214735,9.789561,2,1683807341.2711034
-0.053306602,-0.015271621,0.980341,0.0012016296,-0.002002716,0.0002670288,-0.55784017,-0.15275757,9.789579,2,1683807341.286726
-0.054519836,-0.01674267,0.98009837,0.0012016296,-0.002002716,0.0002670288,-0.55784017,-0.15275757,9.789579,2,1683807341.286726
-0.056233536,-0.0130726285,0.9810841,0.0012016296,-0.002002716,0.0002670288,-0.5578126,-0.15242048,9.789586,2,1683807341.3023517
-0.056233536,-0.0130726285,0.9810841,0.0001335144,0.0012016296,-0.0008010864,-0.5578126,-0.15242048,9.789586,2,1683807341.3179758
-0.053791896,-0.016985318,0.98229736,0.0001335144,0.0001335144,-0.0008010864,-0.55761105,-0.15289004,9.789591,2,1683807341.349229
-0.053791896,-0.016985318,0.98229736,0.0012016296,0.0001335144,-0.0008010864,-0.55761105,-0.15289004,9.789591,2,1683807341.3804786
-0.057704587,-0.014301031,0.9798557,0.0001335144,0.0001335144,-0.0008010864,-0.55804247,-0.15289333,9.789566,2,1683807341.4273503
-0.055505592,-0.012587334,0.9810841,0.0001335144,-0.00093460083,0.0002670288,-0.55795527,-0.15244262,9.7895775,2,1683807341.4429753
-0.055990886,-0.011859392,0.98401105,0.0001335144,-0.00093460083,-0.0008010864,-0.55795527,-0.15244262,9.7895775,2,1683807341.4589937
-0.055990886,-0.011859392,0.98401105,0.0001335144,-0.00093460083,-0.0008010864,-0.55790085,-0.15215245,9.789586,2,1683807341.474626
-0.057947233,-0.012829981,0.97961307,0.0001335144,-0.00093460083,-0.0008010864,-0.55773187,-0.15164584,9.789602,2,1683807341.5214996
-0.055262946,-0.014543679,0.98084146,0.0022697449,0.0001335144,-0.0008010864,-0.557829,-0.15117012,9.789605,2,1683807341.5371256
-0.054519836,-0.016257375,0.97864246,-0.00093460083,0.0001335144,0.0002670288,-0.55771005,-0.15106194,9.789614,2,1683807341.5527506
-0.056233536,-0.015514269,0.9810841,0.0001335144,0.0001335144,0.0002670288,-0.55778474,-0.15199277,9.789595,2,1683807341.5683758
-0.052821305,-0.014786326,0.9827826,0.0012016296,0.0001335144,0.0002670288,-0.55706996,-0.15204024,9.789635,2,1683807341.584001
-0.052821305,-0.014786326,0.9827826,0.0012016296,0.0012016296,-0.0008010864,-0.55706996,-0.15204024,9.789635,2,1683807341.630876
-0.060146224,-0.015271621,0.9810841,0.0001335144,-0.00093460083,-0.0008010864,-0.5575476,-0.15238969,9.789601,2,1683807341.6464994
-0.057461936,-0.017227964,0.98229736,0.0001335144,-0.00093460083,-0.0008010864,-0.5576258,-0.15254849,9.789596,2,1683807341.6621249
-0.056233536,-0.016500022,0.9793704,0.0022697449,0.0012016296,0.001335144,-0.55726063,-0.15281594,9.789612,2,1683807341.6777503
-0.05427719,-0.013315276,0.98254,0.0001335144,-0.00093460083,-0.0008010864,-0.55700016,-0.15325956,9.789619,2,1683807341.724631
-0.05427719,-0.013315276,0.98254,0.0001335144,-0.00093460083,-0.0008010864,-0.5571706,-0.15290558,9.789616,2,1683807341.7402523
-0.055990886,-0.009417752,0.980341,0.0001335144,-0.00093460083,-0.0008010864,-0.5571706,-0.15290558,9.789616,2,1683807341.7558763
-0.055990886,-0.009417752,0.980341,0.0001335144,0.0001335144,0.001335144,-0.5572926,-0.1527366,9.789611,2,1683807341.771505
-0.056233536,-0.017470613,0.97912776,-0.00093460083,-0.00093460083,-0.0008010864,-0.5574837,-0.15319532,9.789594,2,1683807341.7871268
-0.055990886,-0.015271621,0.98132676,-0.00093460083,-0.00093460083,-0.0008010864,-0.5574837,-0.15319532,9.789594,2,1683807341.8027503
-0.055990886,-0.015271621,0.98132676,-0.00093460083,-0.00093460083,-0.0008010864,-0.55744636,-0.15318349,9.789595,2,1683807341.8183753
-0.054519836,-0.013573089,0.98229736,0.0001335144,-0.00093460083,0.0002670288,-0.55744636,-0.15318349,9.789595,2,1683807341.8340056
-0.054519836,-0.013573089,0.98229736,0.0012016296,-0.00093460083,0.001335144,-0.55744636,-0.15318349,9.789595,2,1683807341.8652556
-0.054519836,-0.013573089,0.98229736,0.0012016296,-0.00093460083,0.001335144,-0.55708605,-0.15297602,9.7896185,2,1683807341.8808792
-0.054519836,-0.013573089,0.98229736,0.0012016296,-0.00093460083,0.001335144,-0.5572039,-0.15285479,9.789614,2,1683807341.8965006
-0.054519836,-0.013573089,0.98229736,0.0001335144,0.0001335144,0.0002670288,-0.5580646,-0.15283912,9.789566,2,1683807341.9121263
-0.058432527,-0.015999563,0.97912776,0.0001335144,0.0001335144,0.0002670288,-0.5580646,-0.15283912,9.789566,2,1683807341.9433756
-0.055505592,-0.012102039,0.9805988,-0.00093460083,-0.0030708313,0.001335144,-0.5578938,-0.15271173,9.7895775,2,1683807341.9589999
-0.05891782,-0.015756916,0.98009837,-0.00093460083,-0.00093460083,0.0002670288,-0.5576871,-0.1528276,9.789587,2,1683807341.9746244
-0.05891782,-0.015756916,0.98009837,0.0001335144,-0.00093460083,0.0002670288,-0.55762666,-0.15318936,9.789585,2,1683807341.9902515
-0.057704587,-0.012587334,0.98473895,-0.00093460083,-0.00093460083,-0.0008010864,-0.5574424,-0.1528893,9.7896,2,1683807342.0058746
-0.057461936,-0.014058384,0.98009837,0.0001335144,-0.00093460083,0.0002670288,-0.55746454,-0.1523701,9.789607,2,1683807342.0214996
-0.0550203,-0.017227964,0.980341,0.0001335144,-0.00093460083,0.0002670288,-0.55744886,-0.1528869,9.7896,2,1683807342.037125
-0.057461936,-0.015271621,0.98084146,0.0001335144,-0.00093460083,0.0002670288,-0.55744886,-0.1528869,9.7896,2,1683807342.0527499
-0.05427719,-0.012829981,0.9793704,-0.00093460083,0.0012016296,0.0002670288,-0.55737764,-0.15271041,9.789607,2,1683807342.0683763
-0.056233536,-0.016257375,0.9820547,0.0012016296,0.0001335144,-0.0008010864,-0.5575898,-0.15268123,9.789596,2,1683807342.084
-0.056233536,-0.01771326,0.98401105,0.0012016296,0.0001335144,-0.0008010864,-0.5575212,-0.15291081,9.789596,2,1683807342.0996242
-0.056233536,-0.01771326,0.98401105,-0.00093460083,0.0012016296,-0.0008010864,-0.5575212,-0.15291081,9.789596,2,1683807342.1152506
-0.05818988,-0.0130726285,0.98084146,-0.00093460083,0.0012016296,-0.0008010864,-0.5575212,-0.15291081,9.789596,2,1683807342.1464996
-0.05306395,-0.016500022,0.9815694,0.0001335144,0.0001335144,0.0002670288,-0.5573812,-0.15264894,9.789608,2,1683807342.1621246
-0.05306395,-0.016500022,0.9815694,0.0001335144,0.0001335144,0.0002670288,-0.55704373,-0.15260465,9.789627,2,1683807342.1777499
-0.057704587,-0.018699015,0.9810841,-0.00093460083,-0.00093460083,0.0002670288,-0.5567993,-0.15231968,9.789646,2,1683807342.1933746
-0.055990886,-0.012829981,0.9842537,-0.00093460083,-0.00093460083,0.0002670288,-0.556595,-0.15207021,9.789661,2,1683807342.2089994
-0.055262946,-0.0130726285,0.9788851,-0.00093460083,-0.00093460083,0.0002670288,-0.556595,-0.15207021,9.789661,2,1683807342.2246265
-0.05354925,-0.013815736,0.98181206,-0.00093460083,0.0001335144,0.001335144,-0.55656284,-0.15187374,9.789666,2,1683807342.2402523
-0.05354925,-0.013815736,0.98181206,-0.00093460083,-0.00093460083,0.001335144,-0.55656284,-0.15187374,9.789666,2,1683807342.2714999
-0.05183555,-0.014058384,0.97961307,0.0001335144,0.0001335144,0.0002670288,-0.55656284,-0.15187374,9.789666,2,1683807342.2871253
-0.05183555,-0.014058384,0.97961307,0.0001335144,0.0001335144,0.0002670288,-0.5562491,-0.15177388,9.789685,2,1683807342.3027496
-0.05183555,-0.014058384,0.97961307,0.0001335144,0.0001335144,-0.0008010864,-0.5562491,-0.15177388,9.789685,2,1683807342.3183746
-0.0550203,-0.014786326,0.9842537,-0.00093460083,-0.00093460083,0.0002670288,-0.55619586,-0.15075445,9.789704,2,1683807342.3339996
-0.0550203,-0.017955907,0.9793704,0.0001335144,0.0001335144,0.0002670288,-0.5568417,-0.15079397,9.789667,2,1683807342.3808744
-0.057947233,-0.018198555,0.9815694,-0.00093460083,-0.00093460083,0.0002670288,-0.5571161,-0.15179564,9.789636,2,1683807342.3964999
-0.057704587,-0.014301031,0.9893796,0.0001335144,-0.00093460083,0.0002670288,-0.5576401,-0.15205847,9.789601,2,1683807342.4121246
-0.05671883,-0.018441202,0.980341,0.0001335144,-0.00093460083,0.0002670288,-0.5576401,-0.15205847,9.789601,2,1683807342.459
-0.05671883,-0.018441202,0.980341,0.0001335144,0.0001335144,0.0002670288,-0.55763435,-0.15215155,9.789601,2,1683807342.4902494
-0.05671883,-0.018441202,0.980341,0.0001335144,0.0001335144,0.0002670288,-0.55754924,-0.15203257,9.789608,2,1683807342.5215008
-0.061116815,-0.015028973,0.98693794,0.0001335144,0.0001335144,0.0002670288,-0.55754924,-0.15203257,9.789608,2,1683807342.5371258
-0.054777652,-0.014058384,0.9762008,0.0012016296,-0.0041389465,0.0002670288,-0.55664164,-0.15233351,9.789654,2,1683807342.568375
-0.056961477,-0.014786326,0.9842537,0.0012016296,-0.0041389465,0.0002670288,-0.5562081,-0.1522367,9.789681,2,1683807342.584003
-0.056961477,-0.014786326,0.9842537,0.0012016296,-0.0041389465,0.0002670288,-0.55629957,-0.15213946,9.789678,2,1683807342.5996265
-0.056961477,-0.014786326,0.9842537,0.0012016296,0.0001335144,-0.0008010864,-0.55629957,-0.15213946,9.789678,2,1683807342.61525
-0.056961477,-0.014786326,0.9842537,0.0012016296,0.0012016296,0.0002670288,-0.55629957,-0.15213946,9.789678,2,1683807342.630875
-0.054519836,-0.012344686,0.98084146,0.0012016296,0.0012016296,0.0002670288,-0.55629957,-0.15213946,9.789678,2,1683807342.6625178
-0.054519836,-0.012344686,0.98084146,0.0012016296,0.0012016296,0.0002670288,-0.55633384,-0.15217677,9.789675,2,1683807342.6781423
-0.0550203,-0.017470613,0.97912776,0.0012016296,0.0012016296,0.0002670288,-0.55633384,-0.15217677,9.789675,2,1683807342.6937673
-0.05306395,-0.016500022,0.97912776,0.0012016296,0.0022697449,0.0002670288,-0.5562385,-0.15230206,9.789679,2,1683807342.7245874
-0.05306395,-0.016500022,0.97912776,-0.00093460083,-0.002002716,0.0002670288,-0.555952,-0.15205643,9.789699,2,1683807342.7402174
-0.054519836,-0.011859392,0.98473895,0.0001335144,-0.00093460083,0.0002670288,-0.555952,-0.15205643,9.789699,2,1683807342.7871015
-0.054519836,-0.011859392,0.98473895,0.0001335144,0.0012016296,0.0002670288,-0.555952,-0.15205643,9.789699,2,1683807342.8183432
-0.054519836,-0.011859392,0.98473895,0.0001335144,-0.00093460083,0.0002670288,-0.555952,-0.15205643,9.789699,2,1683807342.8339643
-0.054519836,-0.011859392,0.98473895,0.0001335144,-0.00093460083,0.0002670288,-0.556313,-0.1519486,9.789679,2,1683807342.849591
-0.06283051,-0.016257375,0.9820547,0.0001335144,-0.00093460083,0.0002670288,-0.556313,-0.1519486,9.789679,2,1683807342.865215
-0.055990886,-0.014786326,0.98304045,0.0012016296,0.0012016296,-0.0008010864,-0.55693406,-0.15186217,9.789645,2,1683807342.8808424
-0.056961477,-0.015514269,0.9788851,0.0012016296,-0.0030708313,0.001335144,-0.55579,-0.15176564,9.789712,2,1683807342.8964643
-0.056961477,-0.015514269,0.9788851,0.0012016296,-0.0030708313,0.001335144,-0.555824,-0.1520129,9.789705,2,1683807342.9120884
-0.056961477,-0.015514269,0.9788851,0.0001335144,-0.0030708313,0.001335144,-0.555824,-0.1520129,9.789705,2,1683807342.958962
-0.054777652,-0.014301031,0.9783998,0.0012016296,0.00333786,-0.0008010864,-0.55729276,-0.15125547,9.789634,2,1683807342.9745874
-0.052578658,-0.015514269,0.9815694,0.0012016296,0.00333786,-0.0008010864,-0.55729276,-0.15125547,9.789634,2,1683807342.9902143
-0.052578658,-0.015514269,0.9815694,0.0012016296,0.00333786,-0.0008010864,-0.55713296,-0.1512746,9.789642,2,1683807343.0058372
-0.052578658,-0.015514269,0.9815694,0.0001335144,-0.002002716,-0.0018692017,-0.55713296,-0.1512746,9.789642,2,1683807343.0370874
-0.057461936,-0.012344686,0.9783998,-0.00093460083,-0.002002716,-0.0008010864,-0.55713296,-0.1512746,9.789642,2,1683807343.052712
-0.057461936,-0.012344686,0.9783998,-0.00093460083,-0.002002716,-0.0008010864,-0.5569255,-0.15062921,9.789665,2,1683807343.083964
-0.05354925,-0.015028973,0.98229736,-0.00093460083,-0.002002716,-0.0008010864,-0.5569255,-0.15062921,9.789665,2,1683807343.083964
-0.0550203,-0.01674267,0.98181206,-0.00093460083,-0.002002716,-0.0008010864,-0.5569255,-0.15062921,9.789665,2,1683807343.1152124
-0.05671883,-0.013315276,0.98084146,-0.00093460083,0.0001335144,0.0002670288,-0.55714226,-0.1507437,9.789651,2,1683807343.1308377
-0.05818988,-0.011374097,0.9815694,-0.00093460083,0.0001335144,0.0002670288,-0.55714226,-0.1507437,9.789651,2,1683807343.146464
-0.05818988,-0.011374097,0.9815694,-0.00093460083,0.0001335144,0.0002670288,-0.55716294,-0.15028007,9.789656,2,1683807343.1620886
-0.05818988,-0.011374097,0.9815694,0.0012016296,-0.002002716,0.001335144,-0.55716294,-0.15028007,9.789656,2,1683807343.1777143
-0.055505592,-0.01674267,0.9805988,0.0001335144,0.0001335144,-0.0008010864,-0.5572271,-0.15024905,9.789654,2,1683807343.2089622
-0.05354925,-0.015514269,0.9810841,0.0001335144,0.0001335144,-0.0008010864,-0.5572271,-0.15024905,9.789654,2,1683807343.224588
-0.05354925,-0.015514269,0.9810841,0.0001335144,0.0001335144,-0.0008010864,-0.55699,-0.15028554,9.789665,2,1683807343.2405987
-0.05354925,-0.015514269,0.9810841,0.0001335144,-0.00093460083,-0.0008010864,-0.55699,-0.15028554,9.789665,2,1683807343.2562304
-0.049409077,-0.013573089,0.95985246,-0.0030708313,-0.0030708313,0.0002670288,-0.55699,-0.15028554,9.789665,2,1683807343.2718549
-0.049409077,-0.013573089,0.95985246,-0.00093460083,-0.002002716,0.0002670288,-0.55669296,-0.14995076,9.789689,2,1683807343.2874823
-0.056233536,-0.014058384,0.9798557,-0.00093460083,-0.002002716,0.0002670288,-0.5565673,-0.15015614,9.789692,2,1683807343.303108
-0.05306395,-0.013815736,0.98473895,-0.00093460083,-0.002002716,0.0002670288,-0.55605465,-0.15028027,9.78972,2,1683807343.3187315
-0.05306395,-0.015028973,0.98132676,0.0012016296,0.0012016296,0.001335144,-0.5554799,-0.15051708,9.789748,2,1683807343.3343573
-0.052093364,-0.014786326,0.9742445,-0.002002716,-0.0041389465,-0.0008010864,-0.5549973,-0.15066771,9.789773,2,1683807343.3499823
-0.05671883,-0.012587334,0.98084146,-0.002002716,-0.0041389465,-0.0008010864,-0.55472594,-0.15050063,9.789791,2,1683807343.3656073
-0.055505592,-0.017227964,0.9783998,-0.002002716,-0.0030708313,-0.0008010864,-0.55472594,-0.15050063,9.789791,2,1683807343.3812304
-0.055505592,-0.017227964,0.9783998,-0.002002716,-0.0030708313,-0.0008010864,-0.5547725,-0.15082769,9.7897835,2,1683807343.396855
-0.055505592,-0.017227964,0.9783998,0.0001335144,0.0012016296,-0.0008010864,-0.554673,-0.1509498,9.789787,2,1683807343.4124808
-0.0550203,-0.017955907,0.9771714,0.0022697449,0.0022697449,0.0002670288,-0.554593,-0.15153685,9.7897835,2,1683807343.428106
-0.0550203,-0.017955907,0.9771714,0.0022697449,0.0022697449,0.0002670288,-0.55467796,-0.1519094,9.789772,2,1683807343.4437306
-0.055505592,-0.017227964,0.97864246,0.0022697449,0.0022697449,0.0002670288,-0.55467796,-0.1519094,9.789772,2,1683807343.4437306
-0.054519836,-0.011374097,0.9805988,0.0012016296,0.0012016296,0.0002670288,-0.5541579,-0.15122013,9.789813,2,1683807343.4593554
-0.06038887,-0.008932457,1.0069563,0.006542206,0.0097465515,-0.0008010864,-0.5552866,-0.14986019,9.789769,2,1683807343.4749806
-0.06038887,-0.008932457,1.0069563,0.006542206,0.0097465515,-0.0008010864,-0.5559246,-0.1498454,9.789734,2,1683807343.5062313
-0.05671883,-0.015271621,0.9937776,0.0012016296,0.007610321,-0.0008010864,-0.5559246,-0.1498454,9.789734,2,1683807343.5062313
-0.05671883,-0.015271621,0.9937776,0.0012016296,0.007610321,-0.0008010864,-0.5563361,-0.14974375,9.789712,2,1683807343.5218558
-0.056961477,-0.015028973,0.9730312,-0.00093460083,-0.0073432922,0.0002670288,-0.5563361,-0.14974375,9.789712,2,1683807343.5374825
-0.05721929,-0.017955907,0.9854669,-0.002002716,-0.0041389465,-0.0008010864,-0.5556025,-0.15039802,9.789743,2,1683807343.5531082
-0.05306395,-0.018198555,0.9788851,0.0012016296,0.0001335144,-0.0008010864,-0.5553742,-0.15012777,9.78976,2,1683807343.584358
-0.053306602,-0.017227964,0.9798557,0.0012016296,-0.00093460083,0.0024032593,-0.55509675,-0.15102033,9.789763,2,1683807343.5999806
-0.05916047,-0.014786326,0.9805988,-0.00093460083,0.0001335144,0.0002670288,-0.5554254,-0.15182617,9.789731,2,1683807343.6312299
-0.058675174,-0.01113145,0.98352575,0.0010681152,0.0004005432,0.0001335144,-0.55659467,-0.15116714,9.789675,2,1683807343.6468594
-0.0550203,-0.018699015,0.98181206,0.0,-0.000667572,0.0001335144,-0.5564975,-0.15184623,9.78967,2,1683807343.6624804
-0.054519836,-0.013815736,0.9793704,0.0,-0.000667572,0.0012016296,-0.5560371,-0.15208578,9.789692,2,1683807343.6781096
-0.054519836,-0.013815736,0.9793704,0.0,-0.000667572,0.0012016296,-0.5559858,-0.15199502,9.789697,2,1683807343.6937325
-0.055990886,-0.015514269,0.98229736,0.0,0.0004005432,0.0012016296,-0.5562475,-0.15193343,9.789683,2,1683807343.7093573
-0.0550203,-0.013315276,0.9805988,0.0010681152,-0.000667572,-0.00093460083,-0.55826414,-0.15185128,9.789569,2,1683807343.7249825
-0.05721929,-0.014786326,0.9798557,0.0,-0.000667572,0.0001335144,-0.5580417,-0.15197292,9.78958,2,1683807343.7406056
-0.057461936,-0.014786326,0.97961307,0.0,-0.000667572,0.0001335144,-0.55814624,-0.1525465,9.789565,2,1683807343.7562308
-0.057461936,-0.014786326,0.97961307,0.0,-0.000667572,-0.00093460083,-0.5581392,-0.15244788,9.789568,2,1683807343.7874835
-0.056961477,-0.015271621,0.97961307,0.0,-0.000667572,-0.00093460083,-0.5581392,-0.15244788,9.789568,2,1683807343.7874835
-0.056961477,-0.015271621,0.97961307,0.0010681152,0.0014686584,-0.00093460083,-0.5581392,-0.15244788,9.789568,2,1683807343.8187306
-0.054519836,-0.014058384,0.9815694,0.0010681152,0.0004005432,-0.00093460083,-0.5583359,-0.1524957,9.789556,2,1683807343.8347397
-0.052093364,-0.013815736,0.98254,0.0010681152,-0.000667572,0.0012016296,-0.5587274,-0.15265517,9.789531,2,1683807343.8503716
-0.056233536,-0.01674267,0.9815694,0.0,-0.000667572,0.0001335144,-0.55772114,-0.15271358,9.789587,2,1683807343.8659961
-0.05721929,-0.015028973,0.9798557,0.0,0.0004005432,0.0001335144,-0.5587084,-0.15301016,9.789526,2,1683807343.8816216
-0.056233536,-0.01674267,0.9815694,0.0,0.0004005432,-0.00093460083,-0.5585343,-0.15266755,9.789541,2,1683807343.8972468
-0.056233536,-0.016500022,0.97912776,0.0,0.0004005432,-0.00093460083,-0.5585343,-0.15266755,9.789541,2,1683807343.9128714
-0.056233536,-0.016500022,0.97912776,0.0,0.0004005432,-0.00093460083,-0.5586146,-0.1524371,9.78954,2,1683807343.9284968
-0.056233536,-0.016500022,0.97912776,0.0,-0.0017356873,0.0012016296,-0.5586146,-0.1524371,9.78954,2,1683807343.9284968
-0.055262946,-0.012344686,0.9810841,0.0,-0.0017356873,0.0012016296,-0.558402,-0.15220258,9.7895565,2,1683807343.9441278
-0.055262946,-0.012344686,0.9810841,0.0,0.0004005432,0.0012016296,-0.558402,-0.15220258,9.7895565,2,1683807343.9597495
-0.056233536,-0.017470613,0.9810841,0.0010681152,0.0004005432,-0.00093460083,-0.55884266,-0.15167625,9.789539,2,1683807343.9753714
-0.056961477,-0.013815736,0.9832831,0.0,0.0004005432,0.0001335144,-0.5594512,-0.15149859,9.789508,2,1683807344.0222454
-0.0550203,-0.012587334,0.9815694,0.0,-0.000667572,0.0001335144,-0.5594512,-0.15149859,9.789508,2,1683807344.0378704
-0.0550203,-0.012587334,0.9815694,0.0,-0.000667572,0.0001335144,-0.5594019,-0.15156594,9.78951,2,1683807344.0691252
-0.0550203,-0.012587334,0.9815694,0.0,-0.000667572,0.0001335144,-0.5600527,-0.15126763,9.789476,2,1683807344.1003735
-0.055990886,-0.013815736,0.98352575,0.0010681152,0.0004005432,-0.00093460083,-0.56010306,-0.15126458,9.789474,2,1683807344.1160014
-0.055990886,-0.013815736,0.98352575,0.0010681152,0.0004005432,0.0001335144,-0.56010306,-0.15126458,9.789474,2,1683807344.1472461
-0.055990886,-0.013815736,0.98352575,0.0010681152,0.0004005432,0.0001335144,-0.5598665,-0.1509118,9.789493,2,1683807344.1628711
-0.055505592,-0.015514269,0.9798557,0.0010681152,0.0004005432,0.0001335144,-0.5598665,-0.1509118,9.789493,2,1683807344.178496
-0.055505592,-0.015514269,0.9798557,-0.0010681152,-0.000667572,0.0001335144,-0.5598665,-0.1509118,9.789493,2,1683807344.1941214
-0.055505592,-0.015514269,0.9798557,-0.0010681152,-0.000667572,0.0001335144,-0.55969,-0.1509875,9.789501,2,1683807344.209746
-0.05671883,-0.015028973,0.98181206,-0.0010681152,0.0004005432,0.0012016296,-0.55934554,-0.15098819,9.789521,2,1683807344.225371
-0.05671883,-0.015028973,0.98181206,-0.0010681152,0.0004005432,0.0012016296,-0.55919075,-0.15078236,9.789534,2,1683807344.2409961
-0.055505592,-0.013573089,0.9810841,0.0,0.0014686584,0.0001335144,-0.55898756,-0.15052827,9.789549,2,1683807344.2566211
-0.053306602,-0.018941663,0.98254,0.0,0.0014686584,0.0001335144,-0.5583422,-0.1509475,9.789579,2,1683807344.2722461
-0.05427719,-0.0130726285,0.9805988,0.0,-0.000667572,-0.00093460083,-0.55917484,-0.15041831,9.789539,2,1683807344.3191218
-0.05354925,-0.016500022,0.98229736,0.0,0.0004005432,0.0001335144,-0.55955887,-0.15043393,9.789517,2,1683807344.3347468
-0.057704587,-0.01674267,0.98132676,0.0,0.0014686584,0.0001335144,-0.55954576,-0.14978144,9.789528,2,1683807344.3659954
-0.057704587,-0.01674267,0.98132676,0.0,0.0004005432,-0.00093460083,-0.55954576,-0.14978144,9.789528,2,1683807344.3816204
-0.057704587,-0.01674267,0.98132676,0.0,0.0004005432,-0.00093460083,-0.5596267,-0.14989871,9.789521,2,1683807344.3972468
-0.056961477,-0.017955907,0.9805988,0.0010681152,0.0004005432,-0.00093460083,-0.55944335,-0.1506607,9.78952,2,1683807344.412871
-0.057461936,-0.016257375,0.98132676,0.0010681152,0.0004005432,-0.00093460083,-0.55944335,-0.1506607,9.78952,2,1683807344.4445057
-0.057461936,-0.016257375,0.98132676,0.0010681152,0.0004005432,-0.00093460083,-0.55957377,-0.15070467,9.789513,2,1683807344.4601364
-0.057461936,-0.016985318,0.9815694,-0.0010681152,0.0004005432,0.0001335144,-0.5591503,-0.15119925,9.789529,2,1683807344.4757626
-0.05721929,-0.01113145,0.9805988,0.0,-0.000667572,0.0001335144,-0.55962485,-0.15153202,9.789496,2,1683807344.5070155
-0.05574824,-0.014301031,0.980341,0.0010681152,0.0004005432,0.0012016296,-0.5597203,-0.1519057,9.789485,2,1683807344.5226374
-0.056961477,-0.013815736,0.98132676,0.0,0.0004005432,-0.00093460083,-0.5602199,-0.15213059,9.7894535,2,1683807344.5382621
-0.057461936,-0.012587334,0.980341,0.0,0.0004005432,0.0001335144,-0.5609868,-0.1513945,9.78942,2,1683807344.5538867
-0.057461936,-0.015999563,0.98254,0.0,0.0014686584,-0.00093460083,-0.5620842,-0.15169615,9.789353,2,1683807344.569512
-0.057461936,-0.015999563,0.98254,0.0,0.0004005432,-0.00093460083,-0.5620842,-0.15169615,9.789353,2,1683807344.5851367
-0.053791896,-0.014786326,0.98009837,-0.0021362305,-0.0017356873,0.0001335144,-0.56189567,-0.15170717,9.789364,2,1683807344.7101388
-0.053791896,-0.015271621,0.98132676,-0.0021362305,-0.0017356873,0.0001335144,-0.56166834,-0.15176944,9.789376,2,1683807344.741392
-0.053791896,-0.015271621,0.98132676,-0.0021362305,-0.0017356873,0.0001335144,-0.56160975,-0.15180986,9.789379,2,1683807344.7570171
-0.055262946,-0.015999563,0.98181206,-0.0010681152,0.0004005432,-0.00093460083,-0.56160975,-0.15180986,9.789379,2,1683807344.7726436
-0.055262946,-0.015999563,0.98181206,-0.0010681152,0.0004005432,-0.00093460083,-0.561775,-0.15188801,9.789368,2,1683807344.803894
-0.056233536,-0.015756916,0.9832831,0.0010681152,0.0025367737,0.0012016296,-0.5618017,-0.15170449,9.78937,2,1683807344.8195176
-0.05427719,-0.020154899,0.9810841,0.0010681152,0.0025367737,0.0001335144,-0.5625161,-0.15104693,9.789338,2,1683807344.8351433
-0.05427719,-0.020154899,0.9810841,0.0,0.0014686584,0.0012016296,-0.5625161,-0.15104693,9.789338,2,1683807344.8507683
-0.055990886,-0.014543679,0.9810841,0.0,0.0014686584,0.0012016296,-0.5625161,-0.15104693,9.789338,2,1683807344.8663943
-0.054519836,-0.015271621,0.9810841,0.0032043457,0.003604889,0.0001335144,-0.5625161,-0.15104693,9.789338,2,1683807344.8820179
-0.056961477,-0.013315276,0.9805988,0.0032043457,0.003604889,0.0001335144,-0.5626802,-0.15086429,9.789331,2,1683807344.8976438
-0.056961477,-0.015756916,0.980341,0.0,0.0004005432,-0.00093460083,-0.5633629,-0.15088864,9.789292,2,1683807344.9132748
-0.056961477,-0.015756916,0.980341,0.0010681152,0.0014686584,-0.00093460083,-0.5633629,-0.15088864,9.789292,2,1683807344.944516
-0.056961477,-0.015756916,0.980341,0.0010681152,0.0014686584,-0.00093460083,-0.5638339,-0.15070917,9.789268,2,1683807344.9913914
-0.060631517,-0.014301031,0.980341,0.0,0.0004005432,0.0012016296,-0.5638339,-0.15070917,9.789268,2,1683807344.9913914
-0.060631517,-0.014301031,0.980341,0.0,0.0004005432,0.0012016296,-0.564657,-0.15050988,9.789223,2,1683807345.0070136
-0.06038887,-0.015756916,0.9793704,0.0,-0.000667572,-0.00093460083,-0.56517345,-0.15061873,9.789192,2,1683807345.0542855
-0.056961477,-0.014786326,0.9820547,0.0,-0.000667572,-0.00093460083,-0.56517345,-0.15061873,9.789192,2,1683807345.1011608
-0.053791896,-0.0130726285,0.9815694,0.0010681152,0.0014686584,0.0001335144,-0.5655128,-0.15022357,9.789179,2,1683807345.1167858
-0.05721929,-0.014543679,0.9815694,-0.0010681152,0.0004005432,0.0001335144,-0.5643003,-0.14869563,9.789272,2,1683807345.1324122
-0.057947233,-0.015756916,0.98181206,-0.0010681152,-0.000667572,0.0012016296,-0.5653858,-0.14888065,9.7892065,2,1683807345.1636617
-0.057947233,-0.015756916,0.98181206,-0.0021362305,0.0004005432,0.0012016296,-0.5652867,-0.14947557,9.789203,2,1683807345.1949115
-0.056233536,-0.015999563,0.98009837,-0.0021362305,0.0004005432,0.0012016296,-0.5652867,-0.14947557,9.789203,2,1683807345.2261612
-0.055990886,-0.015271621,0.9805988,0.0,0.0004005432,-0.00093460083,-0.564053,-0.14950152,9.789274,2,1683807345.2417872
-0.055990886,-0.015271621,0.9805988,0.0,-0.0017356873,-0.00093460083,-0.564053,-0.14950152,9.789274,2,1683807345.257411
-0.042569455,-0.016257375,1.133133,-0.17463684,-0.6941414,-0.0041389465,-0.48607257,-0.16739395,9.793165,2,1683807345.2730386
