acc_x,acc_y,acc_z,gyr_x,gyr_y,gyr_z,grav_x,grav_y,grav_z,label,timestamp
-0.0074394583,0.02695279,0.99987537,-0.0,-0.00076358154,-0.0015271631,-0.08487652,0.25975114,9.806194,2,1683969828.4944358
-0.0064637917,0.02792846,0.99987537,-0.0012217305,-0.0033597588,0.0009162979,-0.084702805,0.25984043,9.806192,2,1683969828.500042
-0.008415125,0.02646496,0.9988997,-0.0012217305,0.0016798794,0.0009162979,-0.08475733,0.25978887,9.806193,2,1683969828.5817313
-0.008415125,0.02646496,0.9988997,-0.0012217305,0.0041233404,-0.0027488936,-0.08475733,0.25978887,9.806193,2,1683969828.5868497
-0.008415125,0.02646496,0.9988997,-0.0012217305,0.0041233404,-0.0027488936,-0.08477095,0.2597445,9.806195,2,1683969828.59198
-0.0074394583,0.024025792,0.99938756,-0.0012217305,0.0041233404,-0.0027488936,-0.08477095,0.2597445,9.806195,2,1683969828.5971131
-0.0074394583,0.024025792,0.99938756,-0.0012217305,0.0041233404,-0.0027488936,-0.08493273,0.2595761,9.806198,2,1683969828.61756
-0.007927292,0.02695279,0.9984119,-0.0012217305,0.0041233404,-0.0027488936,-0.08493273,0.2595761,9.806198,2,1683969828.6226916
-0.007927292,0.02695279,0.9984119,-0.002443461,0.0016798794,-0.00030543262,-0.08493273,0.2595761,9.806198,2,1683969828.643173
-0.009878625,0.024513626,0.99938756,-0.002443461,0.0016798794,-0.00030543262,-0.08493273,0.2595761,9.806198,2,1683969828.6534312
-0.009878625,0.024513626,0.99938756,-0.0,0.0016798794,0.0009162979,-0.08493273,0.2595761,9.806198,2,1683969828.668825
-0.009878625,0.024513626,0.99938756,-0.0,0.0016798794,0.0009162979,-0.08509572,0.25936404,9.806202,2,1683969828.6790836
-0.009878625,0.024513626,0.99938756,-0.0,0.0016798794,0.0009162979,-0.08527897,0.25927895,9.806203,2,1683969828.684185
-0.009878625,0.024513626,0.99938756,-0.002443461,0.0016798794,-0.00030543262,-0.08527897,0.25927895,9.806203,2,1683969828.7097654
-0.009390792,0.023537958,0.9959728,-0.002443461,0.0016798794,-0.00030543262,-0.08527897,0.25927895,9.806203,2,1683969828.7148964
-0.010366458,0.025489293,0.9988997,-0.002443461,0.0016798794,-0.00030543262,-0.08527897,0.25927895,9.806203,2,1683969828.730293
-0.010366458,0.025489293,0.9988997,0.0012217305,-0.00076358154,-0.00030543262,-0.08527897,0.25927895,9.806203,2,1683969828.7456748
-0.010366458,0.025489293,0.9988997,0.0012217305,-0.00076358154,-0.00030543262,-0.085654296,0.25915,9.806203,2,1683969828.7507677
-0.010366458,0.025489293,0.9988997,-0.0012217305,-0.00076358154,-0.00030543262,-0.085654296,0.25915,9.806203,2,1683969828.7763433
-0.010366458,0.02646496,0.9984119,-0.0012217305,-0.00076358154,-0.00030543262,-0.085654296,0.25915,9.806203,2,1683969828.7814713
-0.009390792,0.025001459,0.9984119,-0.0012217305,-0.00076358154,-0.00030543262,-0.085654296,0.25915,9.806203,2,1683969828.7866015
-0.009390792,0.025001459,0.9984119,-0.0012217305,-0.00076358154,-0.00030543262,-0.085550316,0.2592128,9.806202,2,1683969828.801982
-0.009390792,0.025001459,0.9984119,-0.0012217305,-0.004581489,-0.0015271631,-0.085550316,0.2592128,9.806202,2,1683969828.81225
-0.008963938,0.027440626,0.99987537,-0.0012217305,-0.004581489,-0.0015271631,-0.085550316,0.2592128,9.806202,2,1683969828.8224843
-0.008963938,0.027440626,0.99987537,0.0012217305,0.00045814895,-0.0015271631,-0.085550316,0.2592128,9.806202,2,1683969828.8276122
-0.008963938,0.027440626,0.99987537,0.0012217305,0.00045814895,-0.0015271631,-0.085481726,0.25929147,9.8062,2,1683969828.8430042
-0.008963938,0.027440626,0.99987537,-0.0,0.00045814895,0.0021380284,-0.085481726,0.25929147,9.8062,2,1683969828.8737767
-0.008963938,0.027440626,0.99987537,-0.0,0.00045814895,0.0021380284,-0.08571812,0.25926656,9.806199,2,1683969828.8789146
-0.0070126047,0.02695279,1.0008512,-0.0,0.00045814895,0.0021380284,-0.08571812,0.25926656,9.806199,2,1683969828.8840427
-0.0075004376,0.027440626,1.0003633,-0.0,0.00045814895,0.0021380284,-0.08571812,0.25926656,9.806199,2,1683969828.9096699
-0.0075004376,0.027440626,1.0003633,-0.002443461,-0.0033597588,-0.00030543262,-0.08571812,0.25926656,9.806199,2,1683969828.914803
-0.0075004376,0.027440626,1.0003633,-0.002443461,-0.0033597588,-0.00030543262,-0.085503876,0.25932968,9.806199,2,1683969828.9199336
-0.0075004376,0.02695279,1.0022537,-0.002443461,-0.0033597588,-0.00030543262,-0.085503876,0.25932968,9.806199,2,1683969828.9301918
-0.0075004376,0.02695279,1.0022537,-0.002443461,-0.0033597588,-0.00030543262,-0.08525756,0.25926247,9.806203,2,1683969828.9404175
-0.0075004376,0.02695279,1.0022537,-0.002443461,0.00290161,-0.00030543262,-0.08525756,0.25926247,9.806203,2,1683969828.955811
-0.0070126047,0.028904125,1.0008512,-0.002443461,0.00290161,-0.00030543262,-0.08525756,0.25926247,9.806203,2,1683969828.9711535
-0.0070126047,0.028904125,1.0008512,0.0012217305,0.00290161,-0.00030543262,-0.08525756,0.25926247,9.806203,2,1683969828.9762857
-0.0070126047,0.028904125,1.0008512,0.0012217305,0.00290161,-0.00030543262,-0.08531269,0.25927955,9.806202,2,1683969828.9865417
-0.0070126047,0.028904125,1.0008512,0.0012217305,0.00290161,-0.00030543262,-0.08533379,0.25942424,9.806198,2,1683969829.0121412
-0.0069516255,0.02792846,0.9988997,0.0012217305,0.00290161,-0.00030543262,-0.08533379,0.25942424,9.806198,2,1683969829.01731
-0.0069516255,0.02792846,0.9988997,-0.0012217305,-0.004581489,-0.00030543262,-0.08533379,0.25942424,9.806198,2,1683969829.0224361
-0.0069516255,0.02695279,0.99987537,-0.0012217305,-0.004581489,-0.00030543262,-0.08533379,0.25942424,9.806198,2,1683969829.032698
-0.0069516255,0.02695279,0.99987537,-0.0012217305,-0.004581489,-0.00030543262,-0.08517418,0.2593527,9.806202,2,1683969829.0429611
-0.0069516255,0.02695279,0.99987537,-0.0012217305,0.0016798794,-0.00030543262,-0.08517418,0.2593527,9.806202,2,1683969829.0532212
-0.009878625,0.027440626,0.99938756,-0.0012217305,0.0016798794,-0.00030543262,-0.08517418,0.2593527,9.806202,2,1683969829.0737214
-0.009878625,0.027440626,0.99938756,-0.0012217305,0.0016798794,-0.00030543262,-0.08564566,0.2592059,9.806202,2,1683969829.0890977
-0.009878625,0.027440626,0.99938756,-0.0,0.0016798794,-0.0027488936,-0.08564566,0.2592059,9.806202,2,1683969829.0942278
-0.009878625,0.027440626,0.99938756,-0.0,0.0016798794,-0.0027488936,-0.08586486,0.25915378,9.8062,2,1683969829.0993307
-0.009878625,0.027440626,0.99938756,-0.0,-0.001985312,0.0009162979,-0.08586486,0.25915378,9.8062,2,1683969829.1044638
-0.010427438,0.025489293,1.0003633,-0.0,-0.001985312,0.0009162979,-0.08586486,0.25915378,9.8062,2,1683969829.1300352
-0.010366458,0.025001459,0.9988997,-0.0,-0.001985312,0.0009162979,-0.08586486,0.25915378,9.8062,2,1683969829.1403193
-0.010366458,0.025001459,0.9988997,-0.0,-0.001985312,0.0009162979,-0.08581502,0.25902808,9.806205,2,1683969829.1454494
-0.010366458,0.025001459,0.9988997,-0.0,-0.00076358154,0.0009162979,-0.08581502,0.25902808,9.806205,2,1683969829.1659727
-0.010366458,0.025001459,0.9988997,-0.0,-0.00076358154,0.0009162979,-0.085805744,0.25893664,9.806208,2,1683969829.1711109
-0.010366458,0.025001459,0.9988997,-0.0,-0.00076358154,0.0009162979,-0.085804164,0.25873658,9.806212,2,1683969829.1813695
-0.010366458,0.025001459,0.9988997,0.00015271631,-0.0106901415,-0.0013744468,-0.085804164,0.25873658,9.806212,2,1683969829.1967707
-0.009390792,0.024025792,0.99938756,0.00015271631,-0.0106901415,-0.0013744468,-0.085804164,0.25873658,9.806212,2,1683969829.2018816
-0.009390792,0.024025792,0.99938756,-0.002443461,0.00290161,0.0009162979,-0.085804164,0.25873658,9.806212,2,1683969829.2070162
-0.009390792,0.024025792,0.99938756,-0.002443461,0.00290161,0.0009162979,-0.085569255,0.25871447,9.806215,2,1683969829.2172434
-0.007927292,0.024513626,0.99938756,-0.002443461,0.00290161,0.0009162979,-0.085569255,0.25871447,9.806215,2,1683969829.2275097
-0.009878625,0.025001459,0.9984119,-0.002443461,0.00290161,0.0009162979,-0.085569255,0.25871447,9.806215,2,1683969829.2634108
-0.009878625,0.025001459,0.9984119,-0.0012217305,-0.00076358154,-0.00030543262,-0.085569255,0.25871447,9.806215,2,1683969829.2685494
-0.009878625,0.025001459,0.9984119,-0.0012217305,-0.00076358154,-0.00030543262,-0.085574225,0.25864863,9.806216,2,1683969829.273679
-0.009878625,0.025001459,0.9984119,-0.0012217305,-0.00076358154,-0.00030543262,-0.08557735,0.25859243,9.806218,2,1683969829.2941556
-0.009878625,0.025001459,0.9984119,0.0012217305,0.00045814895,-0.0015271631,-0.08557735,0.25859243,9.806218,2,1683969829.2992487
-0.0074394583,0.02792846,0.9964606,0.0012217305,0.00045814895,-0.0015271631,-0.08557735,0.25859243,9.806218,2,1683969829.3095276
-0.00798827,0.027440626,1.0003633,0.0012217305,0.00045814895,-0.0015271631,-0.08557735,0.25859243,9.806218,2,1683969829.3197882
-0.00798827,0.027440626,1.0003633,-0.0012217305,0.0016798794,-0.003970624,-0.08557735,0.25859243,9.806218,2,1683969829.3351328
-0.00798827,0.027440626,1.0003633,-0.0012217305,0.0016798794,-0.003970624,-0.085566066,0.25861257,9.806218,2,1683969829.3453956
-0.00798827,0.027440626,1.0003633,0.0012217305,-0.001985312,-0.00030543262,-0.085566066,0.25861257,9.806218,2,1683969829.3607554
-0.00798827,0.027440626,1.0003633,0.0012217305,-0.001985312,-0.00030543262,-0.08565861,0.2585297,9.806219,2,1683969829.376137
-0.008415125,0.02695279,0.99938756,0.0012217305,-0.001985312,-0.00030543262,-0.08565861,0.2585297,9.806219,2,1683969829.3812642
-0.0070126047,0.028904125,0.99987537,0.0012217305,-0.001985312,-0.00030543262,-0.08565861,0.2585297,9.806219,2,1683969829.4017808
-0.0070126047,0.028904125,0.99987537,-0.0,-0.001985312,-0.00030543262,-0.08565861,0.2585297,9.806219,2,1683969829.4069078
-0.0070126047,0.028904125,0.99987537,-0.0,-0.001985312,-0.00030543262,-0.08552685,0.25847945,9.806222,2,1683969829.412032
-0.0070126047,0.028904125,0.99987537,-0.0,-0.001985312,-0.00030543262,-0.085671596,0.25854692,9.806218,2,1683969829.4273343
-0.0070126047,0.028904125,0.99987537,0.0012217305,0.0016798794,-0.0015271631,-0.085671596,0.25854692,9.806218,2,1683969829.442731
-0.007927292,0.02646496,0.99938756,0.0012217305,0.0016798794,-0.0015271631,-0.085671596,0.25854692,9.806218,2,1683969829.4478664
-0.007927292,0.02646496,0.99938756,0.0012217305,0.0016798794,-0.0015271631,-0.08570977,0.25866726,9.806215,2,1683969829.4683304
-0.009390792,0.02695279,0.9988997,0.0012217305,0.0016798794,-0.0015271631,-0.08570977,0.25866726,9.806215,2,1683969829.4785855
-0.009390792,0.02695279,0.9988997,-0.0012217305,0.00045814895,-0.00030543262,-0.08570977,0.25866726,9.806215,2,1683969829.488846
-0.009878625,0.025977125,0.9988997,-0.0012217305,0.00045814895,-0.00030543262,-0.08570977,0.25866726,9.806215,2,1683969829.504252
-0.009878625,0.025977125,0.9988997,-0.0,0.0041233404,-0.0015271631,-0.08570977,0.25866726,9.806215,2,1683969829.5145147
-0.009878625,0.025977125,0.9988997,-0.0,0.0041233404,-0.0015271631,-0.08575098,0.25859433,9.806216,2,1683969829.524772
-0.008415125,0.02646496,0.99938756,-0.0,0.0041233404,-0.0015271631,-0.08575098,0.25859433,9.806216,2,1683969829.5299048
-0.008415125,0.02646496,0.99938756,-0.0036651916,-0.0009162979,-0.00030543262,-0.08575098,0.25859433,9.806216,2,1683969829.5401664
-0.008415125,0.02646496,0.99938756,-0.0036651916,-0.0009162979,-0.00030543262,-0.0858863,0.2585276,9.806217,2,1683969829.5452955
-0.008415125,0.02646496,0.99938756,-0.0036651916,-0.0009162979,-0.00030543262,-0.08576956,0.2583676,9.806223,2,1683969829.5812023
-0.008415125,0.02646496,0.99938756,-0.0012217305,-0.00076358154,0.0009162979,-0.08576956,0.2583676,9.806223,2,1683969829.586335
-0.007927292,0.025001459,0.9979241,-0.0012217305,-0.00076358154,0.0009162979,-0.08576956,0.2583676,9.806223,2,1683969829.5914652
-0.007927292,0.025001459,0.9979241,-0.0012217305,-0.00076358154,0.0009162979,-0.08572892,0.25840202,9.806222,2,1683969829.6068544
-0.0074394583,0.024025792,0.99987537,-0.0012217305,-0.00076358154,0.0009162979,-0.08572892,0.25840202,9.806222,2,1683969829.6273265
-0.0074394583,0.024025792,0.99987537,-0.0,-0.00076358154,0.0021380284,-0.08572892,0.25840202,9.806222,2,1683969829.632466
-0.0074394583,0.024025792,0.99987537,-0.0012217305,0.0016798794,0.0009162979,-0.08572892,0.25840202,9.806222,2,1683969829.6529787
-0.0074394583,0.024025792,0.99987537,-0.0012217305,0.0016798794,0.0009162979,-0.08569233,0.2582683,9.806226,2,1683969829.6580603
-0.0070126047,0.02695279,1.0023146,-0.0012217305,0.0016798794,0.0009162979,-0.08569233,0.2582683,9.806226,2,1683969829.6683214
-0.0070126047,0.02695279,1.0023146,0.0012217305,-0.001985312,0.0021380284,-0.08569233,0.2582683,9.806226,2,1683969829.6734512
-0.0070126047,0.02695279,1.0023146,0.0012217305,-0.001985312,0.0021380284,-0.08582516,0.25816533,9.806228,2,1683969829.6888356
-0.007927292,0.025001459,0.9979241,0.0012217305,-0.001985312,0.0021380284,-0.08582516,0.25816533,9.806228,2,1683969829.7042806
-0.007927292,0.025001459,0.9979241,0.0012217305,-0.001985312,0.0021380284,-0.085688226,0.25816098,9.806229,2,1683969829.719673
-0.008963938,0.025977125,1.0008512,0.0012217305,-0.001985312,0.0021380284,-0.085688226,0.25816098,9.806229,2,1683969829.729933
-0.008963938,0.025977125,1.0008512,0.0012217305,-0.001985312,-0.00030543262,-0.085688226,0.25816098,9.806229,2,1683969829.7401955
-0.008963938,0.025977125,1.0008512,-0.0,0.00290161,-0.00030543262,-0.085688226,0.25816098,9.806229,2,1683969829.7504134
-0.008476105,0.02841629,0.99987537,-0.0,0.00290161,-0.00030543262,-0.085688226,0.25816098,9.806229,2,1683969829.7606628
-0.008476105,0.02841629,0.99987537,-0.0,0.00290161,-0.00030543262,-0.0857543,0.2581337,9.806229,2,1683969829.7657933
-0.008476105,0.02841629,0.99987537,-0.0,0.00045814895,-0.00030543262,-0.0857543,0.2581337,9.806229,2,1683969829.7863119
-0.007927292,0.02841629,0.9988997,-0.0,0.00045814895,-0.00030543262,-0.0857543,0.2581337,9.806229,2,1683969829.796566
-0.007927292,0.02841629,0.9988997,-0.0,0.00045814895,-0.00030543262,-0.0858404,0.2581007,9.806229,2,1683969829.8120084
-0.007927292,0.02841629,0.9988997,-0.0,0.00045814895,-0.00030543262,-0.085858434,0.25806296,9.80623,2,1683969829.8222628
-0.007927292,0.02841629,0.9988997,-0.0,0.0016798794,-0.00030543262,-0.085858434,0.25806296,9.80623,2,1683969829.8325396
-0.00798827,0.02695279,1.0023146,-0.0,0.0016798794,-0.00030543262,-0.085858434,0.25806296,9.80623,2,1683969829.847929
-0.00798827,0.02695279,1.0023146,0.0012217305,-0.001985312,-0.00030543262,-0.085858434,0.25806296,9.80623,2,1683969829.8735375
-0.00798827,0.027440626,1.001339,0.0012217305,-0.001985312,-0.00030543262,-0.085858434,0.25806296,9.80623,2,1683969829.8786676
-0.00798827,0.027440626,1.001339,0.0012217305,-0.001985312,-0.00030543262,-0.08585347,0.25805083,9.806231,2,1683969829.8837583
-0.008902958,0.02695279,0.9984119,0.0012217305,-0.001985312,-0.00030543262,-0.08585347,0.25805083,9.806231,2,1683969829.8991604
-0.008902958,0.02695279,0.9984119,0.0012217305,-0.001985312,-0.00030543262,-0.08567344,0.25803337,9.8062315,2,1683969829.904291
-0.008902958,0.02695279,0.9984119,-0.0,0.00045814895,0.0009162979,-0.08567344,0.25803337,9.8062315,2,1683969829.90944
-0.010854292,0.028843146,0.9988997,-0.0,0.00045814895,0.0009162979,-0.08567344,0.25803337,9.8062315,2,1683969829.9299126
-0.010854292,0.028843146,0.9988997,0.0036651916,-0.00076358154,0.0009162979,-0.08567344,0.25803337,9.8062315,2,1683969829.9350438
-0.010854292,0.028843146,0.9988997,0.0036651916,-0.00076358154,0.0009162979,-0.08578977,0.25807437,9.806231,2,1683969829.9401777
-0.010854292,0.028843146,0.9988997,0.0036651916,-0.00076358154,0.0009162979,-0.084718995,0.25710216,9.806265,2,1683969829.9503963
-0.008476105,0.02646496,1.0003633,0.0036651916,-0.00076358154,0.0009162979,-0.084718995,0.25710216,9.806265,2,1683969829.9555268
-0.008476105,0.02646496,1.0003633,-0.0012217305,0.0016798794,0.0021380284,-0.084718995,0.25710216,9.806265,2,1683969829.9606586
-0.008476105,0.02792846,1.0003633,-0.0012217305,0.0016798794,0.0021380284,-0.084718995,0.25710216,9.806265,2,1683969830.0016925
-0.008476105,0.02792846,1.0003633,-0.0012217305,0.0016798794,0.0021380284,-0.08474993,0.25707975,9.806265,2,1683969830.0068257
-0.008476105,0.02792846,1.0003633,-0.002443461,-0.0033597588,0.0021380284,-0.08474993,0.25707975,9.806265,2,1683969830.0119505
-0.008902958,0.027440626,0.9964606,-0.002443461,-0.0033597588,0.0021380284,-0.08474993,0.25707975,9.806265,2,1683969830.0323365
-0.008902958,0.027440626,0.9964606,-0.002443461,-0.0033597588,0.0021380284,-0.08450137,0.25703713,9.806268,2,1683969830.0374715
-0.008902958,0.027440626,0.9964606,0.002443461,0.0016798794,-0.00030543262,-0.08450137,0.25703713,9.806268,2,1683969830.0477374
-0.008902958,0.027440626,0.9964606,0.002443461,-0.0032070426,-0.0015271631,-0.08450137,0.25703713,9.806268,2,1683969830.0579557
-0.008902958,0.027440626,0.9964606,0.002443461,-0.0032070426,-0.0015271631,-0.08454595,0.25718904,9.806264,2,1683969830.0682228
-0.008415125,0.025977125,0.9974363,0.002443461,-0.0032070426,-0.0015271631,-0.08454595,0.25718904,9.806264,2,1683969830.0784783
-0.0074394583,0.02695279,0.99987537,0.002443461,-0.0032070426,-0.0015271631,-0.08454595,0.25718904,9.806264,2,1683969830.098957
-0.0074394583,0.02695279,0.99987537,-0.0,-0.004581489,-0.00030543262,-0.08454595,0.25718904,9.806264,2,1683969830.1040885
-0.0074394583,0.02695279,0.99987537,-0.0,-0.004581489,-0.00030543262,-0.08434256,0.257424,9.806259,2,1683969830.1091845
-0.0074394583,0.02695279,0.99987537,-0.0,0.00045814895,-0.00030543262,-0.08434256,0.257424,9.806259,2,1683969830.1348312
-0.0074394583,0.02695279,0.99987537,-0.0,0.00045814895,-0.00030543262,-0.084202245,0.25740808,9.806262,2,1683969830.1501503
-0.0074394583,0.02695279,0.99987537,-0.0,-0.0033597588,-0.0015271631,-0.084202245,0.25740808,9.806262,2,1683969830.1706264
-0.007927292,0.02695279,0.9988997,-0.0,-0.0033597588,-0.0015271631,-0.084202245,0.25740808,9.806262,2,1683969830.186028
-0.007927292,0.02695279,0.9988997,-0.0,-0.0033597588,-0.0015271631,-0.08446826,0.2574327,9.806258,2,1683969830.1911592
-0.007927292,0.02695279,0.9988997,0.0012217305,0.0016798794,-0.0027488936,-0.08446826,0.2574327,9.806258,2,1683969830.206535
-0.00798827,0.025001459,1.0003633,0.0012217305,0.0016798794,-0.0027488936,-0.08446826,0.2574327,9.806258,2,1683969830.2116644
-0.010427438,0.025001459,1.0003633,0.0012217305,0.0016798794,-0.0027488936,-0.08446826,0.2574327,9.806258,2,1683969830.22189
-0.010427438,0.025001459,1.0003633,0.0012217305,0.0016798794,-0.0027488936,-0.0843371,0.2571506,9.806267,2,1683969830.2424064
-0.010427438,0.025001459,1.0003633,-0.0,0.00045814895,-0.0015271631,-0.0843371,0.2571506,9.806267,2,1683969830.247542
-0.009390792,0.024513626,0.9979241,-0.0,0.00045814895,-0.0015271631,-0.0843371,0.2571506,9.806267,2,1683969830.2629175
-0.009390792,0.024513626,0.9979241,-0.0,0.00045814895,-0.0015271631,-0.08427298,0.25719595,9.806267,2,1683969830.2731788
-0.009390792,0.024513626,0.9979241,0.0012217305,-0.00076358154,0.0021380284,-0.08427298,0.25719595,9.806267,2,1683969830.2783093
-0.0074394583,0.02646496,0.9964606,0.0012217305,-0.00076358154,0.0021380284,-0.08427298,0.25719595,9.806267,2,1683969830.298799
-0.007927292,0.025977125,0.9984119,0.0012217305,-0.00076358154,0.0021380284,-0.08427298,0.25719595,9.806267,2,1683969830.314189
-0.007927292,0.025977125,0.9984119,-0.0,-0.0032070426,0.0009162979,-0.08411326,0.25722274,9.806267,2,1683969830.3193
-0.007927292,0.025977125,0.99987537,-0.0,-0.0032070426,0.0009162979,-0.08411326,0.25722274,9.806267,2,1683969830.3449295
-0.007927292,0.025977125,0.99987537,-0.0,-0.0032070426,0.0009162979,-0.083887614,0.25728825,9.806267,2,1683969830.3500712
-0.007927292,0.025977125,0.99987537,-0.002443461,-0.0033597588,-0.00030543262,-0.083887614,0.25728825,9.806267,2,1683969830.3603144
-0.007927292,0.025977125,0.99987537,0.002443461,0.0016798794,0.0009162979,-0.083887614,0.25728825,9.806267,2,1683969830.3808255
-0.007927292,0.025977125,0.99987537,0.002443461,0.0016798794,0.0009162979,-0.0838759,0.25724995,9.806268,2,1683969830.3859558
-0.0059759584,0.025489293,0.99938756,0.002443461,0.0016798794,0.0009162979,-0.0838759,0.25724995,9.806268,2,1683969830.3910863
-0.0059759584,0.025489293,0.99938756,0.002443461,0.0016798794,0.0009162979,-0.08405384,0.25731137,9.806265,2,1683969830.4218388
-0.0059759584,0.025489293,0.99938756,0.0012217305,-0.00076358154,-0.00030543262,-0.08405384,0.25731137,9.806265,2,1683969830.4269624
-0.008415125,0.025977125,0.99987537,0.0012217305,-0.00076358154,-0.00030543262,-0.08405384,0.25731137,9.806265,2,1683969830.4320915
-0.008902958,0.025001459,0.99987537,0.0012217305,-0.00076358154,-0.00030543262,-0.08405384,0.25731137,9.806265,2,1683969830.4577286
-0.008902958,0.025001459,0.99987537,-0.002443461,-0.0009162979,-0.00030543262,-0.08405384,0.25731137,9.806265,2,1683969830.4628568
-0.008902958,0.025001459,0.99987537,-0.002443461,-0.0009162979,-0.00030543262,-0.08405214,0.25731334,9.806265,2,1683969830.4679878
-0.008902958,0.025001459,0.99987537,-0.0,-0.00580322,-0.0015271631,-0.08405214,0.25731334,9.806265,2,1683969830.473117
-0.008902958,0.025001459,0.99987537,0.002443461,-0.001985312,0.0009162979,-0.08405214,0.25731334,9.806265,2,1683969830.4935336
-0.008902958,0.025001459,0.99987537,0.002443461,-0.001985312,0.0009162979,-0.083218254,0.2569567,9.806282,2,1683969830.4986658
-0.007927292,0.025977125,0.9974363,0.002443461,-0.001985312,0.0009162979,-0.083218254,0.2569567,9.806282,2,1683969830.5037918
-0.007927292,0.025977125,0.9974363,0.002443461,-0.001985312,0.0009162979,-0.08321918,0.25703105,9.80628,2,1683969830.5243347
-0.008415125,0.02695279,0.99938756,0.002443461,-0.001985312,0.0009162979,-0.08321918,0.25703105,9.80628,2,1683969830.5294626
-0.008415125,0.02695279,0.99938756,-0.0012217305,0.00045814895,-0.00030543262,-0.08321918,0.25703105,9.80628,2,1683969830.5448449
-0.008415125,0.02695279,0.99938756,-0.0,0.00045814895,0.0009162979,-0.08321918,0.25703105,9.80628,2,1683969830.5551238
-0.008902958,0.02695279,0.99938756,-0.0,0.00045814895,0.0009162979,-0.08321918,0.25703105,9.80628,2,1683969830.5602536
-0.008902958,0.02695279,0.99938756,-0.0,0.00045814895,0.0009162979,-0.08316606,0.25711787,9.806277,2,1683969830.5705218
-0.008902958,0.02695279,0.99938756,-0.002443461,0.00045814895,0.0009162979,-0.08316606,0.25711787,9.806277,2,1683969830.5859132
-0.008902958,0.02695279,0.99938756,-0.002443461,0.00045814895,0.0009162979,-0.083077244,0.25719178,9.806276,2,1683969830.6013
-0.008415125,0.02646496,0.9984119,-0.002443461,0.00045814895,0.0009162979,-0.083077244,0.25719178,9.806276,2,1683969830.6115525
-0.008415125,0.02646496,0.9984119,-0.0,0.00290161,0.0009162979,-0.083077244,0.25719178,9.806276,2,1683969830.6269157
-0.008415125,0.025977125,0.9979241,-0.0,0.00290161,0.0009162979,-0.083077244,0.25719178,9.806276,2,1683969830.632
-0.008415125,0.025977125,0.9979241,-0.0,0.00290161,0.0009162979,-0.08295287,0.2570922,9.80628,2,1683969830.637125
-0.008415125,0.025977125,0.9979241,-0.0,0.00290161,0.0009162979,-0.08304594,0.25703695,9.806281,2,1683969830.6729593
-0.008415125,0.025977125,0.9979241,0.0013744468,0.00045814895,-0.0015271631,-0.08304594,0.25703695,9.806281,2,1683969830.6780882
-0.008476105,0.025489293,1.0003022,0.0013744468,0.00045814895,-0.0015271631,-0.08304594,0.25703695,9.806281,2,1683969830.6883132
-0.008963938,0.02792846,1.0007901,0.0013744468,0.00045814895,-0.0015271631,-0.08304594,0.25703695,9.806281,2,1683969830.7036657
-0.008963938,0.02792846,1.0007901,0.0013744468,-0.006872234,0.0021380284,-0.08304594,0.25703695,9.806281,2,1683969830.7087853
-0.008963938,0.02792846,1.0007901,0.0013744468,-0.006872234,0.0021380284,-0.083040975,0.25708392,9.80628,2,1683969830.7139149
-0.008963938,0.02792846,1.0007901,0.0013744468,-0.006872234,0.0021380284,-0.082716174,0.25715214,9.80628,2,1683969830.7292976
-0.008963938,0.02792846,1.0007901,-0.0022907446,0.0041233404,-0.00030543262,-0.082716174,0.25715214,9.80628,2,1683969830.749821
-0.009939604,0.02792846,0.9998144,-0.0022907446,0.0041233404,-0.00030543262,-0.082716174,0.25715214,9.80628,2,1683969830.7549133
-0.009939604,0.02792846,0.9998144,0.0013744468,0.00045814895,-0.00030543262,-0.082716174,0.25715214,9.80628,2,1683969830.7651792
-0.007927292,0.02792846,0.9988997,0.0013744468,0.00045814895,-0.00030543262,-0.082716174,0.25715214,9.80628,2,1683969830.7703106
-0.007927292,0.02792846,0.9988997,0.0013744468,0.00045814895,-0.00030543262,-0.08335378,0.25693285,9.806281,2,1683969830.7908232
-0.007927292,0.02792846,0.9988997,0.00015271631,0.00045814895,-0.0027488936,-0.08335378,0.25693285,9.806281,2,1683969830.8010802
-0.0074394583,0.02695279,0.99987537,0.00015271631,0.00045814895,-0.0027488936,-0.08335378,0.25693285,9.806281,2,1683969830.8267138
-0.0074394583,0.02695279,0.99987537,0.00015271631,0.00045814895,-0.0027488936,-0.08327533,0.25694114,9.806281,2,1683969830.8318508
-0.0074394583,0.02695279,0.99987537,0.0013744468,-0.001985312,-0.00030543262,-0.08327533,0.25694114,9.806281,2,1683969830.8369892
-0.008476105,0.02792846,1.0003633,0.0013744468,-0.001985312,-0.00030543262,-0.08327533,0.25694114,9.806281,2,1683969830.8523045
-0.008476105,0.02792846,1.0003633,0.0013744468,-0.001985312,-0.00030543262,-0.08333138,0.25699425,9.806279,2,1683969830.8574352
-0.008476105,0.02792846,1.0003633,-0.0022907446,0.0016798794,-0.0015271631,-0.08333138,0.25699425,9.806279,2,1683969830.8625753
-0.008415125,0.027440626,0.9979241,-0.0022907446,0.0016798794,-0.0015271631,-0.08333138,0.25699425,9.806279,2,1683969830.8779645
-0.008415125,0.027440626,0.9979241,-0.0022907446,-0.0021380284,0.0009162979,-0.08333138,0.25699425,9.806279,2,1683969830.8881464
-0.008415125,0.027440626,0.9979241,-0.0022907446,-0.0021380284,0.0009162979,-0.08339922,0.25690848,9.806281,2,1683969830.8932738
-0.009878625,0.025489293,0.99938756,-0.0022907446,-0.0021380284,0.0009162979,-0.08339922,0.25690848,9.806281,2,1683969830.924066
-0.009878625,0.025489293,0.99938756,0.00015271631,0.0016798794,0.0009162979,-0.08339922,0.25690848,9.806281,2,1683969830.934322
-0.009878625,0.025489293,0.99938756,0.00015271631,0.0016798794,0.0009162979,-0.08340897,0.25695097,9.80628,2,1683969830.944575
-0.009878625,0.025489293,0.99938756,0.00015271631,0.0016798794,0.0009162979,-0.08350279,0.25706056,9.806276,2,1683969830.9650908
-0.009878625,0.025489293,0.99938756,-0.0010690142,0.00045814895,0.0009162979,-0.08350279,0.25706056,9.806276,2,1683969830.9752994
-0.00798827,0.025977125,1.0003633,-0.0010690142,0.00045814895,0.0009162979,-0.08350279,0.25706056,9.806276,2,1683969830.9804301
-0.00798827,0.025977125,1.0003633,-0.0010690142,0.00045814895,0.0009162979,-0.08352589,0.25705302,9.806276,2,1683969830.9958386
-0.00798827,0.025977125,1.0003633,0.00015271631,0.0016798794,0.0009162979,-0.08352589,0.25705302,9.806276,2,1683969831.006104
-0.008476105,0.024513626,1.0003633,0.00015271631,0.0016798794,0.0009162979,-0.08352589,0.25705302,9.806276,2,1683969831.0163321
-0.008476105,0.024513626,1.0003633,0.00015271631,0.0016798794,0.0009162979,-0.08381893,0.2569798,9.806275,2,1683969831.0317235
-0.008476105,0.024513626,1.0003633,0.00015271631,0.0016798794,0.0009162979,-0.083705865,0.25727278,9.806269,2,1683969831.047121
-0.008476105,0.024513626,1.0003633,0.00015271631,0.0016798794,-0.0027488936,-0.083705865,0.25727278,9.806269,2,1683969831.0522497
-0.008476105,0.024513626,1.0003633,0.00015271631,0.0016798794,-0.0027488936,-0.083705105,0.2572038,9.806271,2,1683969831.067638
-0.009451771,0.025977125,1.0022537,0.00015271631,0.0016798794,-0.0027488936,-0.083705105,0.2572038,9.806271,2,1683969831.0727696
-0.009451771,0.025977125,1.0022537,-0.0010690142,0.00045814895,-0.0027488936,-0.083705105,0.2572038,9.806271,2,1683969831.0779028
-0.009451771,0.025977125,1.0022537,-0.0010690142,0.00045814895,-0.0027488936,-0.08355529,0.25720233,9.8062725,2,1683969831.1035533
-0.009390792,0.02695279,0.9979241,-0.0010690142,0.00045814895,-0.0027488936,-0.08355529,0.25720233,9.8062725,2,1683969831.118938
-0.009390792,0.02695279,0.9979241,-0.0010690142,-0.001985312,0.0009162979,-0.08355529,0.25720233,9.8062725,2,1683969831.1240675
-0.008902958,0.027440626,0.9984119,-0.0010690142,-0.001985312,0.0009162979,-0.08355529,0.25720233,9.8062725,2,1683969831.1548047
-0.008902958,0.027440626,0.9984119,0.0025961774,-0.00076358154,-0.00030543262,-0.08355529,0.25720233,9.8062725,2,1683969831.1599383
-0.008902958,0.027440626,0.9984119,0.0025961774,-0.00076358154,-0.00030543262,-0.08341716,0.25723633,9.8062725,2,1683969831.1701229
-0.008902958,0.027440626,0.9984119,0.0025961774,-0.00076358154,-0.00030543262,-0.0834328,0.25734112,9.80627,2,1683969831.1803083
-0.008476105,0.025001459,1.0003633,0.0025961774,-0.00076358154,-0.00030543262,-0.0834328,0.25734112,9.80627,2,1683969831.185441
-0.008476105,0.025001459,1.0003633,-0.0010690142,-0.001985312,-0.00030543262,-0.0834328,0.25734112,9.80627,2,1683969831.190573
-0.008476105,0.025001459,1.0003633,-0.0010690142,-0.001985312,-0.00030543262,-0.08320102,0.25721464,9.806275,2,1683969831.216124
-0.007927292,0.02646496,0.99987537,-0.0010690142,-0.001985312,-0.00030543262,-0.08320102,0.25721464,9.806275,2,1683969831.2212617
-0.009390792,0.02792846,0.9988997,-0.0010690142,-0.001985312,-0.00030543262,-0.08320102,0.25721464,9.806275,2,1683969831.2519877
-0.009390792,0.02792846,0.9988997,-0.0010690142,-0.001985312,-0.00030543262,-0.08302532,0.2572756,9.806275,2,1683969831.257115
-0.009390792,0.02792846,0.9988997,0.0013744468,0.00045814895,0.0009162979,-0.08302532,0.2572756,9.806275,2,1683969831.2724643
-0.0074394583,0.024513626,0.99987537,0.0013744468,0.00045814895,0.0009162979,-0.08302532,0.2572756,9.806275,2,1683969831.2929738
-0.0074394583,0.024513626,0.99987537,0.0013744468,0.00045814895,0.0009162979,-0.0828812,0.25742933,9.806272,2,1683969831.3083298
-0.0074394583,0.024513626,0.99987537,0.00015271631,-0.0032070426,-0.00030543262,-0.0828812,0.25742933,9.806272,2,1683969831.3134632
-0.0074394583,0.024513626,0.99987537,0.00015271631,-0.0032070426,-0.00030543262,-0.0833428,0.25794283,9.806254,2,1683969831.328849
-0.007927292,0.025489293,0.99938756,0.00015271631,-0.0032070426,-0.00030543262,-0.0833428,0.25794283,9.806254,2,1683969831.3442488
-0.007927292,0.025489293,0.99938756,0.00015271631,0.00045814895,0.0009162979,-0.0833428,0.25794283,9.806254,2,1683969831.3544755
-0.007927292,0.025489293,0.99938756,-0.0010690142,0.00290161,-0.0027488936,-0.0833428,0.25794283,9.806254,2,1683969831.3698547
-0.008902958,0.02695279,0.9979241,-0.0010690142,0.00290161,-0.0027488936,-0.0833428,0.25794283,9.806254,2,1683969831.380121
-0.008902958,0.02695279,0.9979241,-0.0010690142,0.00290161,-0.0027488936,-0.083466455,0.25800514,9.806252,2,1683969831.3903768
-0.009390792,0.025977125,0.99938756,-0.0010690142,0.00290161,-0.0027488936,-0.083466455,0.25800514,9.806252,2,1683969831.4108992
-0.009390792,0.025977125,0.99938756,0.0013744468,-0.0032070426,-0.0015271631,-0.083466455,0.25800514,9.806252,2,1683969831.4160347
-0.009390792,0.025977125,0.99938756,0.0013744468,-0.0032070426,-0.0015271631,-0.08333966,0.2579707,9.806254,2,1683969831.42113
-0.010427438,0.027440626,1.0012779,0.0013744468,-0.0032070426,-0.0015271631,-0.08333966,0.2579707,9.806254,2,1683969831.4313474
-0.010427438,0.027440626,1.0012779,0.0013744468,-0.001985312,-0.00030543262,-0.08333966,0.2579707,9.806254,2,1683969831.4364786
-0.010427438,0.027440626,1.0012779,0.0013744468,-0.001985312,-0.00030543262,-0.083274275,0.25808585,9.806252,2,1683969831.451863
-0.010427438,0.027440626,1.0012779,0.0013744468,-0.001985312,-0.00030543262,-0.08331972,0.25814933,9.80625,2,1683969831.477446
-0.010427438,0.027440626,1.0012779,0.0013744468,-0.00076358154,-0.0027488936,-0.08331972,0.25814933,9.80625,2,1683969831.4825795
-0.008963938,0.02695279,1.0003633,0.0013744468,-0.00076358154,-0.0027488936,-0.08331972,0.25814933,9.80625,2,1683969831.4928403
-0.008963938,0.02695279,1.0003633,0.0013744468,-0.00076358154,-0.0027488936,-0.0833088,0.25820458,9.806248,2,1683969831.5184448
-0.008963938,0.02695279,1.0003633,0.0013744468,-0.00076358154,-0.0015271631,-0.0833088,0.25820458,9.806248,2,1683969831.5235775
-0.008415125,0.02792846,0.99938756,0.0013744468,-0.00076358154,-0.0015271631,-0.0833088,0.25820458,9.806248,2,1683969831.5338378
-0.008415125,0.02792846,0.99938756,0.0013744468,-0.00076358154,-0.0015271631,-0.08323564,0.25818393,9.806249,2,1683969831.5543516
-0.008415125,0.02792846,0.99938756,0.00015271631,0.0041233404,-0.00030543262,-0.08323564,0.25818393,9.806249,2,1683969831.559485
-0.008963938,0.02695279,1.0003633,0.00015271631,0.0041233404,-0.00030543262,-0.08323564,0.25818393,9.806249,2,1683969831.564617
-0.008963938,0.02695279,1.0003633,0.00015271631,0.0016798794,-0.0015271631,-0.08323564,0.25818393,9.806249,2,1683969831.5799713
-0.009878625,0.025001459,0.99938756,0.00015271631,0.0016798794,-0.0015271631,-0.08323564,0.25818393,9.806249,2,1683969831.5851028
-0.009878625,0.025001459,0.99938756,0.00015271631,0.0016798794,-0.0015271631,-0.08337083,0.25813484,9.80625,2,1683969831.5902338
-0.009878625,0.025001459,0.99938756,0.00015271631,0.0016798794,-0.0015271631,-0.08234264,0.25842187,9.80625,2,1683969831.615849
-0.00798827,0.02695279,1.0003633,-0.0022907446,0.00045814895,-0.00030543262,-0.08234264,0.25842187,9.80625,2,1683969831.626148
-0.008902958,0.025489293,0.9984119,-0.0022907446,0.00045814895,-0.00030543262,-0.08250015,0.25842732,9.806249,2,1683969831.6312242
-0.008415125,0.02646496,0.9984119,-0.0010690142,0.00045814895,0.0021380284,-0.08247134,0.2583857,9.80625,2,1683969831.6364045
-0.008415125,0.02646496,0.9984119,-0.0010690142,-0.0033597588,-0.00030543262,-0.08247134,0.2583857,9.80625,2,1683969831.6466565
-0.008415125,0.02646496,0.9984119,0.00015271631,0.00045814895,-0.00030543262,-0.08247134,0.2583857,9.80625,2,1683969831.6517837
-0.008415125,0.02646496,0.9984119,0.00015271631,0.00045814895,-0.00030543262,-0.08223307,0.25840878,9.806252,2,1683969831.65692
-0.0069516255,0.025977125,0.99938756,0.00015271631,0.00045814895,-0.00030543262,-0.08223307,0.25840878,9.806252,2,1683969831.662043
-0.007927292,0.025977125,0.9984119,0.00015271631,0.00045814895,-0.00030543262,-0.08223307,0.25840878,9.806252,2,1683969831.6877105
-0.007927292,0.025977125,0.9984119,0.00015271631,0.00045814895,-0.00030543262,-0.08210052,0.25849923,9.80625,2,1683969831.7082038
-0.007927292,0.025977125,0.9984119,0.0025961774,-0.00076358154,0.0009162979,-0.08210052,0.25849923,9.80625,2,1683969831.7133336
-0.009390792,0.02646496,0.9974363,0.0025961774,-0.00076358154,0.0009162979,-0.08210052,0.25849923,9.80625,2,1683969831.7235906
-0.009390792,0.02646496,0.9974363,0.0025961774,-0.00076358154,0.0009162979,-0.08209228,0.25850555,9.80625,2,1683969831.7389817
-0.009390792,0.02646496,0.9974363,0.0013744468,-0.00076358154,-0.00030543262,-0.08209228,0.25850555,9.80625,2,1683969831.749245
-0.008902958,0.02695279,0.9969484,0.0013744468,-0.00076358154,-0.00030543262,-0.08209228,0.25850555,9.80625,2,1683969831.7645984
-0.008902958,0.02695279,0.9969484,0.0013744468,-0.00076358154,-0.00030543262,-0.082162976,0.25851816,9.80625,2,1683969831.7748237
-0.008902958,0.02695279,0.9969484,0.00015271631,0.00045814895,-0.0015271631,-0.082162976,0.25851816,9.80625,2,1683969831.779955
-0.009390792,0.027440626,0.9979241,0.00015271631,0.00045814895,-0.0015271631,-0.082162976,0.25851816,9.80625,2,1683969831.7953095
-0.009390792,0.027440626,0.9979241,0.00015271631,0.00045814895,-0.0015271631,-0.082203194,0.2593408,9.806228,2,1683969831.8003988
-0.009390792,0.027440626,0.9979241,-0.0010690142,-0.0033597588,-0.00030543262,-0.082203194,0.2593408,9.806228,2,1683969831.8055305
-0.009390792,0.027440626,0.9979241,-0.0010690142,-0.0033597588,-0.00030543262,-0.08221992,0.25935534,9.806227,2,1683969831.8363352
-0.009390792,0.027440626,0.9979241,-0.0010690142,0.00290161,0.0009162979,-0.08221992,0.25935534,9.806227,2,1683969831.8414662
-0.007927292,0.027440626,0.9988997,-0.0010690142,0.00290161,0.0009162979,-0.08221992,0.25935534,9.806227,2,1683969831.8517282
-0.007927292,0.027440626,0.9988997,-0.0010690142,0.00290161,0.0009162979,-0.08236002,0.25921705,9.80623,2,1683969831.8772645
-0.007927292,0.027440626,0.9988997,0.0,0.0032070426,0.0010690142,-0.08236002,0.25921705,9.80623,2,1683969831.8823938
-0.008415125,0.025977125,0.9988997,0.0,0.0032070426,0.0010690142,-0.08236002,0.25921705,9.80623,2,1683969831.8926497
-0.00798827,0.02646496,1.0012779,0.0,0.0032070426,0.0010690142,-0.08236002,0.25921705,9.80623,2,1683969831.9131591
-0.00798827,0.02646496,1.0012779,0.0,-0.00290161,-0.0013744468,-0.08236002,0.25921705,9.80623,2,1683969831.9182901
-0.00798827,0.02646496,1.0012779,0.0,-0.00290161,-0.0013744468,-0.082356356,0.2592126,9.80623,2,1683969831.923406
-0.008902958,0.025489293,0.9969484,0.0,-0.00290161,-0.0013744468,-0.082356356,0.2592126,9.80623,2,1683969831.9439206
-0.008902958,0.025489293,0.9969484,0.0,-0.0016798794,0.0010690142,-0.082356356,0.2592126,9.80623,2,1683969831.949054
-0.008902958,0.025489293,0.9969484,0.0,-0.0016798794,0.0010690142,-0.08231706,0.25915766,9.8062315,2,1683969831.9592786
-0.007927292,0.02646496,0.9979241,0.0,-0.0016798794,0.0010690142,-0.08231706,0.25915766,9.8062315,2,1683969831.9798014
-0.007927292,0.02646496,0.9979241,0.0,-0.00290161,-0.00015271631,-0.08231706,0.25915766,9.8062315,2,1683969831.9900587
-0.007927292,0.02646496,0.9979241,0.0,-0.00290161,-0.00015271631,-0.08227987,0.25909302,9.806233,2,1683969831.9951847
-0.008415125,0.025001459,0.9979241,0.0,-0.00290161,-0.00015271631,-0.08227987,0.25909302,9.806233,2,1683969832.0105178
-0.008415125,0.025001459,0.9979241,-0.0012217305,0.001985312,0.0022907446,-0.08227987,0.25909302,9.806233,2,1683969832.020736
-0.008415125,0.025001459,0.9979241,-0.0012217305,0.001985312,0.0022907446,-0.08210367,0.25906917,9.806235,2,1683969832.031
-0.008415125,0.025001459,0.9979241,0.0,0.00076358154,-0.00015271631,-0.08210367,0.25906917,9.806235,2,1683969832.0515144
-0.008415125,0.025001459,0.9979241,0.0,0.00076358154,-0.00015271631,-0.082386784,0.2590533,9.806233,2,1683969832.0617716
-0.007927292,0.02695279,0.99938756,0.0,0.00076358154,-0.00015271631,-0.082386784,0.2590533,9.806233,2,1683969832.0720336
-0.007927292,0.02695279,0.99938756,0.0,0.001985312,0.0010690142,-0.082386784,0.2590533,9.806233,2,1683969832.0771632
-0.007927292,0.02695279,0.99938756,0.0,0.001985312,0.0010690142,-0.082268886,0.25929713,9.806229,2,1683969832.0823014
-0.009878625,0.025489293,0.9964606,0.0,0.001985312,0.0010690142,-0.082268886,0.25929713,9.806229,2,1683969832.0976868
-0.009878625,0.025489293,0.9964606,-0.0012217305,-0.00290161,0.0010690142,-0.082268886,0.25929713,9.806229,2,1683969832.1181676
-0.009878625,0.025489293,0.9964606,-0.0012217305,-0.00290161,0.0010690142,-0.082388155,0.25933176,9.806226,2,1683969832.1232615
-0.0074394583,0.025489293,0.9988997,-0.0012217305,-0.00290161,0.0010690142,-0.082388155,0.25933176,9.806226,2,1683969832.1283948
-0.0074394583,0.025489293,0.9988997,-0.0012217305,-0.00290161,0.0010690142,-0.08246526,0.25935057,9.806225,2,1683969832.1540377
-0.008902958,0.025977125,0.9988997,-0.0012217305,-0.00290161,0.0010690142,-0.08246526,0.25935057,9.806225,2,1683969832.1591756
-0.008902958,0.025977125,0.9988997,0.0,0.001985312,0.0010690142,-0.08246526,0.25935057,9.806225,2,1683969832.1643035
-0.008902958,0.025977125,0.9988997,0.0,0.001985312,0.0010690142,-0.082512915,0.25932956,9.806225,2,1683969832.189901
-0.0075004376,0.025977125,1.001339,0.0,0.001985312,0.0010690142,-0.082512915,0.25932956,9.806225,2,1683969832.1950324
-0.0075004376,0.025977125,1.001339,0.0012217305,-0.00045814895,-0.0013744468,-0.082512915,0.25932956,9.806225,2,1683969832.2052407
-0.0075004376,0.02646496,1.0008512,0.0012217305,-0.00045814895,-0.0013744468,-0.082512915,0.25932956,9.806225,2,1683969832.2206182
-0.0075004376,0.02646496,1.0008512,0.0012217305,-0.00045814895,-0.0013744468,-0.08253676,0.25932398,9.806225,2,1683969832.2359986
-0.0075004376,0.02646496,1.0008512,0.0012217305,0.00076358154,-0.0013744468,-0.08253676,0.25932398,9.806225,2,1683969832.2410903
-0.0074394583,0.025001459,0.99987537,0.0012217305,0.00076358154,-0.0013744468,-0.08253676,0.25932398,9.806225,2,1683969832.2666516
-0.0074394583,0.025001459,0.99987537,0.0,-0.0016798794,-0.0013744468,-0.08253676,0.25932398,9.806225,2,1683969832.2717764
-0.0074394583,0.025001459,0.99987537,0.0,-0.0016798794,-0.0013744468,-0.08251143,0.25950336,9.806221,2,1683969832.2769058
-0.0064637917,0.02695279,0.9969484,0.0,-0.0016798794,-0.0013744468,-0.08251143,0.25950336,9.806221,2,1683969832.2974129
-0.0064637917,0.02695279,0.9969484,0.0,-0.0016798794,-0.0013744468,-0.08247093,0.25956333,9.80622,2,1683969832.3025453
-0.0064637917,0.02695279,0.9969484,-0.0012217305,-0.00045814895,-0.00015271631,-0.08247093,0.25956333,9.80622,2,1683969832.3128097
-0.0075004376,0.02646496,1.001339,-0.0012217305,-0.00045814895,-0.00015271631,-0.08247093,0.25956333,9.80622,2,1683969832.3230648
-0.0075004376,0.02646496,1.001339,0.0,0.0032070426,-0.00015271631,-0.08247093,0.25956333,9.80622,2,1683969832.3383725
-0.008963938,0.02792846,1.0003022,0.0,0.0032070426,-0.00015271631,-0.08247093,0.25956333,9.80622,2,1683969832.353752
-0.008963938,0.02792846,1.0003022,-0.0012217305,-0.00045814895,0.0010690142,-0.08247093,0.25956333,9.80622,2,1683969832.3691506
-0.008963938,0.02792846,1.0003022,-0.0012217305,-0.00045814895,0.0010690142,-0.0816125,0.25921887,9.806235,2,1683969832.3742814
-0.0074394583,0.025977125,0.9979241,-0.0012217305,-0.00045814895,0.0010690142,-0.0816125,0.25921887,9.806235,2,1683969832.3896604
-0.0074394583,0.025977125,0.9979241,-0.0012217305,-0.00045814895,0.0010690142,-0.0815109,0.25917423,9.806237,2,1683969832.3999171
-0.0074394583,0.025977125,0.9979241,-0.002443461,-0.00045814895,0.0022907446,-0.0815109,0.25917423,9.806237,2,1683969832.4152668
-0.0074394583,0.025977125,0.9979241,-0.002443461,-0.00045814895,0.0022907446,-0.08134126,0.2591256,9.80624,2,1683969832.4254897
-0.008963938,0.025001459,1.0003633,-0.002443461,-0.00045814895,0.0022907446,-0.08134126,0.2591256,9.80624,2,1683969832.4306235
-0.008963938,0.025001459,1.0003633,-0.0012217305,0.00076358154,-0.00015271631,-0.08134126,0.2591256,9.80624,2,1683969832.4511425
-0.008415125,0.02646496,0.99987537,-0.0012217305,0.00076358154,-0.00015271631,-0.08134126,0.2591256,9.80624,2,1683969832.46653
-0.008415125,0.02646496,0.99987537,-0.0012217305,0.00076358154,-0.00015271631,-0.081331834,0.25914723,9.806239,2,1683969832.4716604
-0.008415125,0.02646496,0.99987537,0.002443461,0.0032070426,0.0010690142,-0.081331834,0.25914723,9.806239,2,1683969832.487045
-0.008415125,0.02646496,0.99987537,0.002443461,0.0032070426,0.0010690142,-0.08138641,0.25922972,9.806237,2,1683969832.5075817
-0.008415125,0.02646496,0.99987537,0.0012217305,-0.00045814895,0.0022907446,-0.08138641,0.25922972,9.806237,2,1683969832.517843
-0.009878625,0.02695279,0.9974363,0.0012217305,-0.00045814895,0.0022907446,-0.08138641,0.25922972,9.806237,2,1683969832.5229726
-0.009878625,0.02695279,0.9974363,0.0012217305,0.00076358154,-0.0025961774,-0.08138641,0.25922972,9.806237,2,1683969832.5281026
-0.009390792,0.025489293,0.99938756,0.0012217305,0.00076358154,-0.0025961774,-0.08138641,0.25922972,9.806237,2,1683969832.5434852
-0.009390792,0.025489293,0.99938756,0.0012217305,0.00076358154,-0.0025961774,-0.081462696,0.25927433,9.806234,2,1683969832.553744
-0.009390792,0.025001459,0.99938756,0.0012217305,0.00076358154,-0.0025961774,-0.081462696,0.25927433,9.806234,2,1683969832.5742502
-0.009390792,0.025001459,0.99938756,0.0012217305,0.00076358154,-0.0025961774,-0.08159033,0.25937837,9.8062315,2,1683969832.5844867
-0.009390792,0.025001459,0.99938756,0.0012217305,0.001985312,-0.00015271631,-0.08159033,0.25937837,9.8062315,2,1683969832.5947397
-0.009390792,0.025001459,0.99938756,0.0012217305,0.001985312,-0.00015271631,-0.081671625,0.25943735,9.80623,2,1683969832.610107
-0.009390792,0.025001459,0.99938756,0.0,-0.004276057,-0.00015271631,-0.081671625,0.25943735,9.80623,2,1683969832.6151896
-0.009939604,0.025489293,1.0003022,0.0,-0.004276057,-0.00015271631,-0.081671625,0.25943735,9.80623,2,1683969832.6203208
-0.008963938,0.027440626,0.9998144,0.0,-0.004276057,-0.00015271631,-0.081671625,0.25943735,9.80623,2,1683969832.6254528
-0.008963938,0.027440626,0.9998144,0.0012217305,0.00076358154,-0.0013744468,-0.081671625,0.25943735,9.80623,2,1683969832.6458874
-0.008963938,0.027440626,0.9998144,0.0012217305,0.00076358154,-0.0013744468,-0.0807997,0.25905174,9.806247,2,1683969832.656144
-0.009390792,0.027440626,0.9993266,0.0012217305,0.00076358154,-0.0013744468,-0.0807997,0.25905174,9.806247,2,1683969832.6664016
-0.009390792,0.027440626,0.9993266,0.0,0.00076358154,-0.0013744468,-0.0807997,0.25905174,9.806247,2,1683969832.6869433
-0.009390792,0.027440626,0.9993266,0.0,0.00076358154,-0.0013744468,-0.08091171,0.25913203,9.806244,2,1683969832.6920779
-0.007927292,0.02646496,0.99938756,0.0,0.00076358154,-0.0013744468,-0.08091171,0.25913203,9.806244,2,1683969832.6972206
-0.007927292,0.02646496,0.99938756,0.0,0.00076358154,-0.0013744468,-0.0809754,0.2590317,9.806246,2,1683969832.7074769
-0.007927292,0.02646496,0.99938756,0.0,0.00076358154,0.0022907446,-0.0809754,0.2590317,9.806246,2,1683969832.7177393
-0.00798827,0.02792846,0.9998144,0.0,0.00076358154,0.0022907446,-0.0809754,0.2590317,9.806246,2,1683969832.7331161
-0.00798827,0.02792846,0.9998144,0.0012217305,-0.0016798794,0.0022907446,-0.0809754,0.2590317,9.806246,2,1683969832.7433434
-0.00798827,0.02792846,0.9998144,0.0012217305,-0.0016798794,0.0022907446,-0.08105568,0.25905564,9.806244,2,1683969832.7484717
-0.008902958,0.02646496,0.9984119,0.0012217305,-0.0016798794,0.0022907446,-0.08105568,0.25905564,9.806244,2,1683969832.7689703
-0.008902958,0.02646496,0.9984119,0.0012217305,-0.0016798794,0.0022907446,-0.081142366,0.25902218,9.806245,2,1683969832.7792459
-0.008902958,0.02646496,0.9984119,0.0012217305,-0.00045814895,-0.00015271631,-0.081142366,0.25902218,9.806245,2,1683969832.7946272
-0.008963938,0.025977125,1.0003022,0.0012217305,-0.00045814895,-0.00015271631,-0.081142366,0.25902218,9.806245,2,1683969832.804848
-0.009390792,0.027440626,0.9993266,0.0012217305,-0.00045814895,-0.00015271631,-0.081142366,0.25902218,9.806245,2,1683969832.8304768
-0.009390792,0.027440626,0.9993266,0.0012217305,-0.00045814895,-0.00015271631,-0.080984116,0.25916556,9.806242,2,1683969832.8356197
-0.009390792,0.027440626,0.9993266,0.0,-0.0016798794,-0.00015271631,-0.080984116,0.25916556,9.806242,2,1683969832.8509676
-0.007927292,0.02646496,0.9984119,0.0,-0.0016798794,-0.00015271631,-0.080984116,0.25916556,9.806242,2,1683969832.871434
-0.007927292,0.027440626,0.9984119,0.0,-0.0016798794,-0.00015271631,-0.080984116,0.25916556,9.806242,2,1683969832.8969693
-0.007927292,0.027440626,0.9984119,0.0012217305,-0.0053450707,-0.0013744468,-0.080984116,0.25916556,9.806242,2,1683969832.9021027
-0.007927292,0.027440626,0.9984119,0.0012217305,-0.0053450707,-0.0013744468,-0.08077697,0.25917634,9.806243,2,1683969832.907182
-0.007927292,0.027440626,0.9984119,0.0012217305,-0.0053450707,-0.0013744468,-0.080787174,0.25860345,9.806258,2,1683969832.9123113
-0.009878625,0.02646496,0.9984119,0.0012217305,-0.0053450707,-0.0013744468,-0.080787174,0.25860345,9.806258,2,1683969832.9379494
-0.009878625,0.02646496,0.9984119,0.0012217305,-0.0053450707,-0.0013744468,-0.080854185,0.25852,9.80626,2,1683969832.9430761
-0.009878625,0.02646496,0.9984119,0.0012217305,-0.0065668016,0.0010690142,-0.080854185,0.25852,9.80626,2,1683969832.95334
-0.009878625,0.02646496,0.9984119,0.0012217305,-0.00045814895,-0.00015271631,-0.080854185,0.25852,9.80626,2,1683969832.9738557
-0.009878625,0.02646496,0.9984119,0.0012217305,-0.00045814895,-0.00015271631,-0.080539115,0.25858927,9.80626,2,1683969832.984051
-0.007927292,0.02695279,0.9988997,0.0012217305,-0.00045814895,-0.00015271631,-0.080539115,0.25858927,9.80626,2,1683969832.9891326
-0.007927292,0.02695279,0.9988997,-0.0012217305,-0.004276057,-0.0025961774,-0.080539115,0.25858927,9.80626,2,1683969832.9993484
-0.007927292,0.02695279,0.9988997,-0.0012217305,-0.004276057,-0.0025961774,-0.08039872,0.258662,9.80626,2,1683969833.009611
-0.008415125,0.02646496,0.99938756,-0.0012217305,-0.004276057,-0.0025961774,-0.08039872,0.258662,9.80626,2,1683969833.014745
-0.008415125,0.02646496,0.99938756,-0.0012217305,-0.004276057,-0.0025961774,-0.08033765,0.2586331,9.806261,2,1683969833.0352044
-0.008415125,0.02646496,0.99938756,-0.0012217305,0.00076358154,-0.0013744468,-0.08033765,0.2586331,9.806261,2,1683969833.0403311
-0.007927292,0.027440626,0.9984119,-0.0012217305,0.00076358154,-0.0013744468,-0.08033765,0.2586331,9.806261,2,1683969833.0454588
-0.007927292,0.025977125,0.9979241,-0.0012217305,0.00076358154,-0.0013744468,-0.08033765,0.2586331,9.806261,2,1683969833.0812972
-0.007927292,0.025977125,0.9979241,-0.0012217305,0.00076358154,-0.0013744468,-0.080382936,0.25865132,9.80626,2,1683969833.0863996
-0.007927292,0.025977125,0.9979241,0.0012217305,-0.0041233404,-0.00015271631,-0.080382936,0.25865132,9.80626,2,1683969833.091493
-0.00798827,0.02646496,1.0007901,0.0012217305,-0.0041233404,-0.00015271631,-0.080382936,0.25865132,9.80626,2,1683969833.0965793
-0.00798827,0.02646496,1.0007901,0.0012217305,-0.0041233404,-0.00015271631,-0.080214046,0.25871068,9.80626,2,1683969833.111924
-0.00798827,0.02646496,1.0007901,0.0012217305,0.00076358154,0.0010690142,-0.080214046,0.25871068,9.80626,2,1683969833.1170647
-0.00798827,0.02646496,1.0007901,0.0012217305,0.0032070426,-0.00015271631,-0.080214046,0.25871068,9.80626,2,1683969833.1529288
-0.00798827,0.02646496,1.0007901,0.0012217305,0.0032070426,-0.00015271631,-0.08028699,0.25875703,9.806258,2,1683969833.1580594
-0.008415125,0.02646496,0.9984119,0.0012217305,0.0032070426,-0.00015271631,-0.08028699,0.25875703,9.806258,2,1683969833.1631856
-0.008415125,0.02646496,0.9984119,0.0012217305,-0.0016798794,0.0022907446,-0.08028699,0.25875703,9.806258,2,1683969833.168312
-0.008415125,0.02646496,0.9984119,0.0012217305,-0.0016798794,0.0022907446,-0.080410376,0.25877073,9.806257,2,1683969833.1785753
-0.007927292,0.025977125,0.99938756,0.0012217305,-0.0016798794,0.0022907446,-0.080410376,0.25877073,9.806257,2,1683969833.1939678
-0.007927292,0.025977125,0.99938756,0.0,0.0032070426,-0.0013744468,-0.080410376,0.25877073,9.806257,2,1683969833.2042222
-0.007927292,0.025977125,0.99938756,0.0,0.0032070426,-0.0013744468,-0.08144274,0.25934905,9.806233,2,1683969833.209354
-0.007927292,0.025977125,0.99938756,0.0,0.0032070426,-0.0013744468,-0.08160657,0.25934678,9.806232,2,1683969833.2298589
-0.007927292,0.025977125,0.99938756,0.0012217305,-0.0016798794,0.0010690142,-0.08160657,0.25934678,9.806232,2,1683969833.2401302
-0.009451771,0.025001459,1.0008512,0.0012217305,-0.0016798794,0.0010690142,-0.08160657,0.25934678,9.806232,2,1683969833.2503574
-0.008415125,0.025489293,0.9988997,0.0012217305,-0.0016798794,0.0010690142,-0.08160657,0.25934678,9.806232,2,1683969833.255481
-0.008415125,0.025489293,0.9988997,0.0012217305,-0.0016798794,0.0010690142,-0.08148809,0.25939646,9.8062315,2,1683969833.2657092
-0.008415125,0.025489293,0.9988997,0.0012217305,0.001985312,-0.00015271631,-0.08148809,0.25939646,9.8062315,2,1683969833.2759666
-0.008415125,0.025489293,0.9988997,0.0012217305,-0.00045814895,0.0010690142,-0.08156576,0.25938872,9.8062315,2,1683969833.2964725
-0.0069516255,0.027440626,0.99938756,0.0012217305,-0.00045814895,0.0010690142,-0.08156576,0.25938872,9.8062315,2,1683969833.3118618
-0.009451771,0.027440626,1.0003633,0.0012217305,-0.00045814895,0.0010690142,-0.08156576,0.25938872,9.8062315,2,1683969833.3323355
-0.009451771,0.027440626,1.0003633,-0.0012217305,-0.004276057,0.0010690142,-0.08156576,0.25938872,9.8062315,2,1683969833.3374803
-0.009451771,0.027440626,1.0003633,-0.0012217305,-0.004276057,0.0010690142,-0.08161504,0.25948814,9.806229,2,1683969833.3477437
-0.009451771,0.027440626,1.0003633,-0.0012217305,-0.004276057,0.0010690142,-0.081255436,0.25945735,9.806232,2,1683969833.3630998
-0.009451771,0.027440626,1.0003633,0.0,0.00076358154,0.0022907446,-0.081255436,0.25945735,9.806232,2,1683969833.368235
-0.00798827,0.02646496,1.0008512,0.0,0.00076358154,0.0022907446,-0.081255436,0.25945735,9.806232,2,1683969833.3733644
-0.009390792,0.02792846,0.9988997,0.0,0.00076358154,0.0022907446,-0.081255436,0.25945735,9.806232,2,1683969833.4040885
-0.009390792,0.02792846,0.9988997,0.0036651916,-0.0016798794,0.0010690142,-0.081255436,0.25945735,9.806232,2,1683969833.4092183
-0.009390792,0.02792846,0.9988997,0.0036651916,-0.0016798794,0.0010690142,-0.08129263,0.259473,9.8062315,2,1683969833.4194777
-0.009390792,0.02792846,0.9988997,-0.0012217305,0.001985312,-0.0013744468,-0.08129263,0.259473,9.8062315,2,1683969833.439997
-0.009390792,0.02792846,0.9988997,-0.0012217305,0.001985312,-0.0013744468,-0.08136813,0.25960466,9.806228,2,1683969833.4451272
-0.009390792,0.02792846,0.9988997,-0.0012217305,0.001985312,-0.0013744468,-0.08175574,0.26004466,9.806212,2,1683969833.4553528
-0.009390792,0.02792846,0.9988997,-0.0,0.00076358154,0.0009162979,-0.08175574,0.26004466,9.806212,2,1683969833.4707131
-0.008476105,0.025489293,1.0022537,-0.0,0.00076358154,0.0009162979,-0.08175574,0.26004466,9.806212,2,1683969833.480964
-0.007927292,0.027440626,0.9988997,-0.0,0.00076358154,0.0009162979,-0.08175574,0.26004466,9.806212,2,1683969833.49117
-0.007927292,0.027440626,0.9988997,-0.0,0.00076358154,0.0009162979,-0.081828736,0.2599536,9.806213,2,1683969833.501462
-0.007927292,0.027440626,0.9988997,-0.0012217305,0.001985312,-0.0015271631,-0.081828736,0.2599536,9.806213,2,1683969833.516845
-0.007927292,0.027440626,0.9988997,-0.0012217305,0.001985312,-0.0015271631,-0.08192169,0.25998488,9.806212,2,1683969833.532229
-0.007927292,0.027440626,0.9988997,-0.0,-0.00290161,-0.0015271631,-0.08192169,0.25998488,9.806212,2,1683969833.5476146
-0.0069516255,0.025977125,0.9979241,-0.0,-0.00290161,-0.0015271631,-0.08192169,0.25998488,9.806212,2,1683969833.5527437
-0.0069516255,0.025977125,0.9979241,-0.0,-0.00290161,-0.0015271631,-0.08196059,0.26000127,9.806211,2,1683969833.5630062
-0.0069516255,0.025977125,0.9979241,-0.0,-0.00045814895,0.0021380284,-0.08196059,0.26000127,9.806211,2,1683969833.5732684
-0.009878625,0.024025792,0.9988997,-0.0,-0.00045814895,0.0021380284,-0.08196059,0.26000127,9.806211,2,1683969833.578399
-0.009878625,0.024025792,0.9988997,0.002443461,-0.0016798794,-0.0027488936,-0.08193006,0.25991872,9.806214,2,1683969833.609158
-0.009390792,0.025977125,0.99938756,0.002443461,-0.0016798794,-0.0027488936,-0.08193006,0.25991872,9.806214,2,1683969833.6142876
-0.008963938,0.028904125,0.9998144,0.002443461,-0.0016798794,-0.0027488936,-0.08193006,0.25991872,9.806214,2,1683969833.6194162
-0.008963938,0.028904125,0.9998144,-0.0,-0.0016798794,0.0009162979,-0.08193006,0.25991872,9.806214,2,1683969833.6245506
-0.008963938,0.028904125,0.9998144,-0.0,-0.0016798794,0.0009162979,-0.08188947,0.2599987,9.806212,2,1683969833.6399312
-0.009451771,0.02695279,1.0003022,-0.0,-0.0016798794,0.0009162979,-0.08188947,0.2599987,9.806212,2,1683969833.6552858
-0.009451771,0.02695279,1.0003022,-0.0012217305,-0.00045814895,-0.00030543262,-0.08188947,0.2599987,9.806212,2,1683969833.6706395
-0.009451771,0.02695279,1.0003022,-0.0012217305,-0.00045814895,-0.00030543262,-0.08177006,0.2600624,9.806211,2,1683969833.6860323
-0.009451771,0.02695279,1.0003022,-0.0012217305,-0.00045814895,-0.00030543262,-0.08162876,0.2599481,9.806216,2,1683969833.696314
-0.007927292,0.025977125,0.9964606,-0.0012217305,-0.00045814895,-0.00030543262,-0.08162876,0.2599481,9.806216,2,1683969833.7065642
-0.007927292,0.025977125,0.9964606,0.0012217305,-0.00045814895,-0.00030543262,-0.08162876,0.2599481,9.806216,2,1683969833.7116954
-0.007927292,0.025977125,0.9964606,-0.0012217305,-0.0016798794,0.0009162979,-0.08162876,0.2599481,9.806216,2,1683969833.7322
-0.007927292,0.025977125,0.9964606,-0.0012217305,-0.0016798794,0.0009162979,-0.081142224,0.26003456,9.806217,2,1683969833.737331
-0.006524771,0.028904125,1.0003633,-0.0012217305,-0.0016798794,0.0009162979,-0.081142224,0.26003456,9.806217,2,1683969833.747583
-0.006524771,0.028904125,1.0003633,-0.0012217305,-0.0016798794,0.0009162979,-0.08120884,0.25998902,9.806218,2,1683969833.7578053
-0.006524771,0.028904125,1.0003633,-0.0,0.001985312,0.0009162979,-0.08120884,0.25998902,9.806218,2,1683969833.7680676
-0.009390792,0.025001459,0.9988997,-0.0,0.001985312,0.0009162979,-0.08120884,0.25998902,9.806218,2,1683969833.7783265
-0.0069516255,0.025001459,0.9984119,-0.0,0.001985312,0.0009162979,-0.08120884,0.25998902,9.806218,2,1683969833.7988667
-0.0069516255,0.025001459,0.9984119,-0.0,0.001985312,0.0009162979,-0.08126043,0.25993124,9.80622,2,1683969833.8040063
-0.0069516255,0.025001459,0.9984119,-0.0012217305,0.001985312,-0.00030543262,-0.08126043,0.25993124,9.80622,2,1683969833.809132
-0.009390792,0.025489293,0.9984119,-0.0012217305,0.001985312,-0.00030543262,-0.08126043,0.25993124,9.80622,2,1683969833.8398678
-0.009390792,0.025489293,0.9984119,-0.0012217305,0.001985312,-0.00030543262,-0.08140461,0.2598828,9.806219,2,1683969833.8449967
-0.009390792,0.025489293,0.9984119,-0.002443461,-0.00045814895,0.0009162979,-0.08140461,0.2598828,9.806219,2,1683969833.8551838
-0.0069516255,0.024513626,0.99938756,-0.002443461,-0.00045814895,0.0009162979,-0.08140461,0.2598828,9.806219,2,1683969833.875666
-0.0069516255,0.024513626,0.99938756,-0.002443461,-0.00045814895,0.0009162979,-0.08143684,0.2598088,9.806221,2,1683969833.8807957
-0.0069516255,0.024513626,0.99938756,-0.0,0.00076358154,-0.00030543262,-0.08143684,0.2598088,9.806221,2,1683969833.885932
-0.009878625,0.025977125,0.99938756,-0.0,0.00076358154,-0.00030543262,-0.08143684,0.2598088,9.806221,2,1683969833.906435
-0.009878625,0.025977125,0.99938756,-0.0,0.00076358154,0.0009162979,-0.08143684,0.2598088,9.806221,2,1683969833.9115636
-0.009878625,0.025977125,0.99938756,-0.0,0.00076358154,0.0009162979,-0.08159813,0.25970438,9.806223,2,1683969833.9166918
-0.009878625,0.025977125,0.99938756,-0.0,0.00076358154,0.0009162979,-0.0816461,0.2597066,9.806223,2,1683969833.9473317
-0.009878625,0.025977125,0.99938756,-0.0,0.00076358154,-0.00030543262,-0.0816461,0.2597066,9.806223,2,1683969833.9524672
-0.007927292,0.025977125,0.9988997,-0.0,0.00076358154,-0.00030543262,-0.0816461,0.2597066,9.806223,2,1683969833.9627175
-0.008902958,0.025489293,0.9988997,-0.0,0.00076358154,-0.00030543262,-0.0816461,0.2597066,9.806223,2,1683969833.9781096
-0.008902958,0.025489293,0.9988997,-0.0,0.00076358154,0.0009162979,-0.0816461,0.2597066,9.806223,2,1683969833.9831963
-0.008902958,0.025489293,0.9988997,-0.0,0.00076358154,0.0009162979,-0.08169867,0.25974953,9.806221,2,1683969833.9883285
-0.010854292,0.025489293,0.9984119,-0.0,0.00076358154,0.0009162979,-0.08169867,0.25974953,9.806221,2,1683969833.9986207
-0.010854292,0.025489293,0.9984119,-0.002443461,0.0032070426,-0.00030543262,-0.08169867,0.25974953,9.806221,2,1683969834.019138
-0.010854292,0.025489293,0.9984119,-0.002443461,0.0032070426,-0.00030543262,-0.0817735,0.26027188,9.806206,2,1683969834.024266
-0.010854292,0.025489293,0.9984119,0.002443461,-0.00045814895,0.0009162979,-0.0817735,0.26027188,9.806206,2,1683969834.039657
-0.007927292,0.025977125,0.99938756,0.002443461,-0.00045814895,0.0009162979,-0.0817735,0.26027188,9.806206,2,1683969834.0499122
-0.007927292,0.025977125,0.99938756,0.002443461,-0.00045814895,0.0009162979,-0.081804544,0.26024583,9.806207,2,1683969834.0550451
-0.008476105,0.02646496,1.0003633,0.002443461,-0.00045814895,0.0009162979,-0.081804544,0.26024583,9.806207,2,1683969834.0704327
-0.008476105,0.02646496,1.0003633,-0.0012217305,0.00076358154,-0.00030543262,-0.081804544,0.26024583,9.806207,2,1683969834.0755262
-0.008476105,0.02646496,1.0003633,-0.0012217305,0.00076358154,-0.00030543262,-0.08186012,0.26026377,9.806206,2,1683969834.090875
-0.008476105,0.02646496,1.0003633,-0.0012217305,0.00076358154,-0.00030543262,-0.08163615,0.2602395,9.806209,2,1683969834.1062691
-0.008476105,0.02646496,1.0003633,-0.0,0.004428773,-0.00030543262,-0.08163615,0.2602395,9.806209,2,1683969834.1113617
-0.0074394583,0.025001459,0.9974363,-0.0,0.004428773,-0.00030543262,-0.08163615,0.2602395,9.806209,2,1683969834.121625
-0.0074394583,0.025001459,0.9974363,-0.0012217305,0.00076358154,-0.0027488936,-0.08163615,0.2602395,9.806209,2,1683969834.1523352
-0.0074394583,0.025001459,0.9974363,-0.0012217305,0.00076358154,-0.0027488936,-0.08170222,0.2602711,9.806207,2,1683969834.1574702
-0.008963938,0.02695279,1.0003633,-0.0012217305,0.00076358154,-0.0027488936,-0.08170222,0.2602711,9.806207,2,1683969834.1677346
-0.008963938,0.02695279,1.0003633,-0.0,-0.00045814895,0.0009162979,-0.08170222,0.2602711,9.806207,2,1683969834.1779919
-0.007927292,0.02695279,0.9984119,-0.0,-0.00045814895,0.0009162979,-0.08170222,0.2602711,9.806207,2,1683969834.1831186
-0.007927292,0.02695279,0.9984119,-0.0,-0.00045814895,0.0009162979,-0.08174226,0.26023084,9.806208,2,1683969834.188252
-0.0075004376,0.02695279,1.0012779,-0.0,-0.00045814895,0.0009162979,-0.08174226,0.26023084,9.806208,2,1683969834.2190504
-0.0075004376,0.02695279,1.0012779,-0.0,-0.00290161,-0.00030543262,-0.08174226,0.26023084,9.806208,2,1683969834.229365
-0.0075004376,0.02695279,1.0012779,-0.0,-0.00290161,-0.00030543262,-0.08177064,0.26026207,9.806206,2,1683969834.2396321
-0.0075004376,0.02695279,1.0012779,-0.0,-0.00290161,-0.00030543262,-0.08169944,0.26034006,9.806205,2,1683969834.2498941
-0.008415125,0.025001459,0.9979241,-0.0,-0.00290161,-0.00030543262,-0.08169944,0.26034006,9.806205,2,1683969834.2601538
-0.008415125,0.025001459,0.9979241,-0.0,-0.00290161,-0.00030543262,-0.08169644,0.26028773,9.806206,2,1683969834.265276
-0.008415125,0.025001459,0.9979241,-0.0,-0.00290161,-0.0015271631,-0.08169644,0.26028773,9.806206,2,1683969834.2857552
-0.007927292,0.027440626,0.99938756,-0.0,-0.00290161,-0.0015271631,-0.08169644,0.26028773,9.806206,2,1683969834.2908895
-0.007927292,0.027440626,0.99938756,-0.0,-0.00290161,-0.0015271631,-0.08202019,0.26054344,9.806197,2,1683969834.3011959
-0.008963938,0.02695279,1.0003022,-0.0,-0.00290161,-0.0015271631,-0.08202019,0.26054344,9.806197,2,1683969834.3217
-0.008963938,0.02695279,1.0003022,-0.0,-0.00290161,-0.0015271631,-0.08204846,0.26061067,9.806195,2,1683969834.3268318
-0.008963938,0.02695279,1.0003022,0.0036651916,0.0056505036,-0.00030543262,-0.08204846,0.26061067,9.806195,2,1683969834.3320675
-0.008476105,0.025977125,1.0003022,0.0036651916,0.0056505036,-0.00030543262,-0.08204846,0.26061067,9.806195,2,1683969834.3577027
-0.008476105,0.025977125,1.0003022,0.0036651916,0.0056505036,-0.00030543262,-0.0822622,0.26072338,9.80619,2,1683969834.3628378
-0.008476105,0.025977125,1.0003022,0.0036651916,0.0056505036,-0.00030543262,-0.08247372,0.26067853,9.80619,2,1683969834.3730912
-0.008415125,0.02792846,0.9988997,0.0036651916,0.0056505036,-0.00030543262,-0.08247372,0.26067853,9.80619,2,1683969834.3833108
-0.008415125,0.02792846,0.9988997,-0.0,-0.0016798794,0.0009162979,-0.08247372,0.26067853,9.80619,2,1683969834.3935602
-0.008415125,0.02792846,0.9988997,0.0012217305,-0.0016798794,0.0021380284,-0.08247372,0.26067853,9.80619,2,1683969834.4140337
-0.007927292,0.02695279,0.9969484,0.0012217305,-0.0016798794,0.0021380284,-0.08247372,0.26067853,9.80619,2,1683969834.424312
-0.007927292,0.02695279,0.9969484,0.0012217305,-0.0016798794,0.0021380284,-0.0824561,0.260652,9.8061905,2,1683969834.439701
-0.007927292,0.02695279,0.9969484,-0.002443461,-0.0018325958,0.0009162979,-0.0824561,0.260652,9.8061905,2,1683969834.4448304
-0.007927292,0.02695279,0.9969484,-0.002443461,-0.0018325958,0.0009162979,-0.08237487,0.26068294,9.8061905,2,1683969834.4653056
-0.008415125,0.02646496,0.9988997,-0.002443461,-0.0018325958,0.0009162979,-0.08237487,0.26068294,9.8061905,2,1683969834.4704442
-0.008415125,0.02646496,0.9988997,-0.002443461,-0.0018325958,0.0009162979,-0.0824177,0.26080856,9.806187,2,1683969834.4909256
-0.008902958,0.02695279,0.9993266,-0.002443461,-0.0018325958,0.0009162979,-0.0824177,0.26080856,9.806187,2,1683969834.496054
-0.008902958,0.02695279,0.9993266,-0.0,-0.00045814895,-0.00030543262,-0.0824177,0.26080856,9.806187,2,1683969834.506314
-0.007927292,0.025977125,0.99987537,-0.0,-0.00045814895,-0.00030543262,-0.0824177,0.26080856,9.806187,2,1683969834.5165603
-0.007927292,0.025977125,0.99987537,-0.002443461,0.00076358154,-0.00030543262,-0.0824177,0.26080856,9.806187,2,1683969834.5216942
-0.007927292,0.025977125,0.99987537,-0.002443461,0.00076358154,-0.00030543262,-0.082198106,0.26078096,9.80619,2,1683969834.5370104
-0.007927292,0.025977125,0.99987537,-0.002443461,0.00076358154,-0.00030543262,-0.082743876,0.2604177,9.806194,2,1683969834.5471842
-0.007927292,0.025977125,0.99987537,-0.0,-0.0016798794,0.0021380284,-0.082743876,0.2604177,9.806194,2,1683969834.5523143
-0.008902958,0.025001459,0.9959728,-0.0,-0.0016798794,0.0021380284,-0.082743876,0.2604177,9.806194,2,1683969834.5574448
-0.008902958,0.025001459,0.9959728,-0.0,-0.0016798794,0.0021380284,-0.08270539,0.2605319,9.806191,2,1683969834.5984836
-0.008415125,0.02792846,0.9984119,-0.0,-0.0016798794,0.0021380284,-0.08270539,0.2605319,9.806191,2,1683969834.6036115
-0.008415125,0.02792846,0.9984119,0.0012217305,0.00076358154,-0.0015271631,-0.08270539,0.2605319,9.806191,2,1683969834.6087012
-0.008415125,0.02792846,0.9984119,-0.0012217305,-0.00045814895,-0.0015271631,-0.08270539,0.2605319,9.806191,2,1683969834.62919
-0.008415125,0.02792846,0.9984119,-0.0012217305,-0.00045814895,-0.0015271631,-0.08263543,0.26051623,9.806192,2,1683969834.6394386
-0.006524771,0.027440626,1.0003633,-0.0012217305,-0.00045814895,-0.0015271631,-0.08263543,0.26051623,9.806192,2,1683969834.644566
-0.007927292,0.027440626,0.9974363,-0.0012217305,-0.00045814895,-0.0015271631,-0.08263543,0.26051623,9.806192,2,1683969834.6548128
-0.007927292,0.027440626,0.9974363,-0.0012217305,-0.00045814895,-0.00030543262,-0.08263543,0.26051623,9.806192,2,1683969834.6650336
-0.007927292,0.027440626,0.9974363,-0.0012217305,-0.00045814895,-0.00030543262,-0.082623444,0.26043978,9.806194,2,1683969834.670157
-0.007927292,0.027440626,0.9974363,-0.0,-0.0041233404,-0.00030543262,-0.082623444,0.26043978,9.806194,2,1683969834.700841
-0.007927292,0.027440626,0.9974363,-0.0,-0.0041233404,-0.00030543262,-0.082681805,0.26029637,9.806198,2,1683969834.705927
-0.008902958,0.02695279,0.9984119,-0.0,-0.0041233404,-0.00030543262,-0.082681805,0.26029637,9.806198,2,1683969834.7161975
-0.007927292,0.02695279,0.9988997,-0.0,-0.0041233404,-0.00030543262,-0.082681805,0.26029637,9.806198,2,1683969834.7264104
-0.007927292,0.02695279,0.9988997,-0.0012217305,-0.004276057,-0.00030543262,-0.082681805,0.26029637,9.806198,2,1683969834.7469285
-0.007927292,0.02695279,0.9988997,-0.0012217305,-0.004276057,-0.00030543262,-0.082496576,0.2602837,9.8062,2,1683969834.7520618
-0.007927292,0.02695279,0.9988997,-0.0012217305,-0.00290161,0.0009162979,-0.082496576,0.2602837,9.8062,2,1683969834.772579
-0.007927292,0.02695279,0.9988997,-0.0012217305,-0.00290161,0.0009162979,-0.082461804,0.26031983,9.806199,2,1683969834.7777038
-0.008415125,0.02841629,0.9984119,-0.0012217305,-0.00290161,0.0009162979,-0.082461804,0.26031983,9.806199,2,1683969834.7828348
-0.008415125,0.02841629,0.9984119,-0.0012217305,-0.0016798794,0.0009162979,-0.082461804,0.26031983,9.806199,2,1683969834.7982194
-0.009939604,0.027440626,0.9998144,-0.0012217305,-0.0016798794,0.0009162979,-0.082461804,0.26031983,9.806199,2,1683969834.8135557
-0.009939604,0.027440626,0.9998144,-0.0012217305,-0.0016798794,0.0009162979,-0.08225964,0.26029268,9.806202,2,1683969834.818684
-0.0064637917,0.02695279,0.9979241,-0.0012217305,-0.0016798794,0.0009162979,-0.08225964,0.26029268,9.806202,2,1683969834.8237994
-0.0064637917,0.02695279,0.9979241,-0.0,-0.0067195175,-0.00030543262,-0.08225964,0.26029268,9.806202,2,1683969834.8288982
-0.0064637917,0.02695279,0.9979241,-0.0,-0.0067195175,-0.00030543262,-0.082999066,0.26009595,9.8062,2,1683969834.8392138
-0.0064637917,0.02695279,0.9979241,-0.0,-0.0067195175,-0.00030543262,-0.082934335,0.26011774,9.8062,2,1683969834.8494766
-0.0064637917,0.02695279,0.9979241,-0.0012217305,0.00076358154,0.0033597588,-0.082934335,0.26011774,9.8062,2,1683969834.8648736
-0.009878625,0.02695279,0.9988997,-0.0012217305,0.00076358154,0.0033597588,-0.082934335,0.26011774,9.8062,2,1683969834.869984
-0.009878625,0.02695279,0.9988997,-0.0012217305,0.00076358154,0.0033597588,-0.08305762,0.2601424,9.806199,2,1683969834.8904755
-0.0075004376,0.02792846,1.0008512,-0.0012217305,0.00076358154,0.0033597588,-0.08305762,0.2601424,9.806199,2,1683969834.9058661
-0.0075004376,0.02792846,1.0008512,0.002443461,0.00076358154,0.0009162979,-0.08305762,0.2601424,9.806199,2,1683969834.9109955
-0.007927292,0.02695279,0.9969484,0.002443461,0.00076358154,0.0009162979,-0.08305762,0.2601424,9.806199,2,1683969834.9263756
-0.007927292,0.02695279,0.9969484,0.0012217305,0.001985312,0.0033597588,-0.08305762,0.2601424,9.806199,2,1683969834.9315116
-0.007927292,0.02695279,0.9969484,0.0012217305,0.001985312,0.0033597588,-0.083083555,0.26026672,9.806195,2,1683969834.9520278
-0.0074394583,0.025977125,0.9984119,0.0012217305,0.001985312,0.0033597588,-0.083083555,0.26026672,9.806195,2,1683969834.9571652
-0.0074394583,0.025977125,0.9984119,0.0012217305,0.001985312,0.0033597588,-0.08317734,0.2603613,9.806192,2,1683969834.9776728
-0.0074394583,0.025977125,0.9984119,0.0012217305,-0.00045814895,0.0009162979,-0.08317734,0.2603613,9.806192,2,1683969834.987935
-0.008415125,0.025977125,0.9988997,0.0012217305,-0.00045814895,0.0009162979,-0.08317734,0.2603613,9.806192,2,1683969835.0032897
-0.008415125,0.025977125,0.9988997,-0.0,-0.0016798794,0.0021380284,-0.08317734,0.2603613,9.806192,2,1683969835.0135446
-0.008415125,0.025977125,0.9988997,-0.0,-0.0016798794,0.0021380284,-0.08314439,0.26043934,9.8061905,2,1683969835.0186772
-0.008415125,0.025977125,0.9988997,-0.0,-0.0016798794,0.0021380284,-0.083035305,0.2604331,9.8061905,2,1683969835.0340867
-0.008415125,0.024513626,0.99987537,-0.0,-0.0016798794,0.0021380284,-0.083035305,0.2604331,9.8061905,2,1683969835.0443287
-0.008415125,0.024513626,0.99987537,0.0012217305,0.0056505036,0.0009162979,-0.083035305,0.2604331,9.8061905,2,1683969835.0545912
-0.0075004376,0.02841629,1.0003022,0.0012217305,0.0056505036,0.0009162979,-0.083035305,0.2604331,9.8061905,2,1683969835.0699613
-0.0075004376,0.02841629,1.0003022,0.0012217305,0.0056505036,0.0009162979,-0.083122306,0.26041016,9.806191,2,1683969835.0750926
-0.008902958,0.02695279,0.9969484,0.0012217305,0.0056505036,0.0009162979,-0.083122306,0.26041016,9.806191,2,1683969835.0956106
-0.008902958,0.02695279,0.9969484,0.0012217305,0.0056505036,0.0009162979,-0.08294738,0.2596111,9.806214,2,1683969835.1058745
-0.008902958,0.02695279,0.9969484,-0.002443461,0.00076358154,0.0009162979,-0.08294738,0.2596111,9.806214,2,1683969835.116135
-0.008902958,0.02695279,0.9969484,-0.0012217305,-0.0016798794,0.0021380284,-0.08294738,0.2596111,9.806214,2,1683969835.1366043
-0.008902958,0.02695279,0.9969484,-0.0012217305,-0.0016798794,0.0021380284,-0.08299156,0.2594409,9.806218,2,1683969835.1417344
-0.009451771,0.025489293,1.0003022,-0.0012217305,-0.0016798794,0.0021380284,-0.08299156,0.2594409,9.806218,2,1683969835.1468685
-0.009451771,0.025489293,1.0003022,-0.0,0.001985312,-0.00030543262,-0.08299156,0.2594409,9.806218,2,1683969835.1571367
-0.009878625,0.025489293,0.9969484,-0.0,0.001985312,-0.00030543262,-0.08299156,0.2594409,9.806218,2,1683969835.1673436
-0.009878625,0.025489293,0.9969484,-0.0,0.001985312,-0.00030543262,-0.08296639,0.259377,9.80622,2,1683969835.1827323
-0.008415125,0.025001459,0.9988997,-0.0,0.001985312,-0.00030543262,-0.08296639,0.259377,9.80622,2,1683969835.187862
-0.008415125,0.025001459,0.9988997,-0.0,0.001985312,-0.00030543262,-0.082960375,0.25926816,9.806223,2,1683969835.2032325
-0.008415125,0.025001459,0.9988997,-0.0,0.00076358154,0.0009162979,-0.082960375,0.25926816,9.806223,2,1683969835.208367
-0.008415125,0.025001459,0.9988997,-0.0,0.00076358154,0.0009162979,-0.082875505,0.25927097,9.806223,2,1683969835.2340202
-0.008415125,0.025001459,0.9988997,-0.0,0.001985312,-0.00030543262,-0.082875505,0.25927097,9.806223,2,1683969835.2391326
-0.008415125,0.02695279,0.9988997,-0.0,0.001985312,-0.00030543262,-0.082875505,0.25927097,9.806223,2,1683969835.2442663
-0.008415125,0.02695279,0.9988997,-0.0012217305,-0.0016798794,0.0009162979,-0.082875505,0.25927097,9.806223,2,1683969835.269893
-0.008415125,0.02695279,0.9988997,-0.0012217305,-0.0016798794,0.0009162979,-0.08284889,0.25928915,9.806224,2,1683969835.2852805
-0.007927292,0.02646496,0.99938756,-0.0012217305,-0.0016798794,0.0009162979,-0.08284889,0.25928915,9.806224,2,1683969835.2904103
-0.007927292,0.02646496,0.99938756,0.0012217305,-0.00045814895,-0.00030543262,-0.08284889,0.25928915,9.806224,2,1683969835.3057973
-0.009390792,0.02695279,0.9984119,0.0012217305,-0.00045814895,-0.00030543262,-0.08284889,0.25928915,9.806224,2,1683969835.316017
-0.009390792,0.02695279,0.9984119,0.0012217305,-0.00045814895,-0.00030543262,-0.08279519,0.25922525,9.806226,2,1683969835.3211486
-0.008476105,0.025977125,1.0003633,0.0012217305,-0.00045814895,-0.00030543262,-0.08279519,0.25922525,9.806226,2,1683969835.3313706
-0.008476105,0.025977125,1.0003633,0.0012217305,-0.00045814895,-0.00030543262,-0.08278615,0.25928843,9.806224,2,1683969835.346781
-0.008902958,0.027440626,0.9979241,0.0012217305,-0.00045814895,-0.00030543262,-0.08278615,0.25928843,9.806224,2,1683969835.36726
-0.008902958,0.027440626,0.9979241,0.002443461,-0.0016798794,-0.0015271631,-0.08278615,0.25928843,9.806224,2,1683969835.3723545
-0.008902958,0.027440626,0.9979241,0.002443461,-0.0016798794,-0.0015271631,-0.08177969,0.2586519,9.806249,2,1683969835.3877406
-0.008902958,0.027440626,0.9979241,0.0012217305,-0.0016798794,-0.00030543262,-0.08177969,0.2586519,9.806249,2,1683969835.4031353
-0.0074394583,0.02646496,0.9984119,0.0012217305,-0.0016798794,-0.00030543262,-0.08177969,0.2586519,9.806249,2,1683969835.4185195
-0.0074394583,0.02646496,0.9984119,0.0012217305,-0.0016798794,-0.00030543262,-0.081540816,0.25865927,9.806251,2,1683969835.4236548
-0.00798827,0.02646496,1.0008512,0.0012217305,-0.0016798794,-0.00030543262,-0.081540816,0.25865927,9.806251,2,1683969835.4339232
-0.00798827,0.02646496,1.0008512,-0.0,0.001985312,-0.0015271631,-0.081426024,0.25858408,9.806253,2,1683969835.4390771
-0.00798827,0.02646496,1.0008512,-0.002443461,-0.00045814895,0.0009162979,-0.081426024,0.25858408,9.806253,2,1683969835.4595985
-0.00798827,0.02646496,1.0008512,-0.002443461,-0.00045814895,0.0009162979,-0.081502095,0.2585595,9.806254,2,1683969835.4698594
-0.0074394583,0.025489293,0.99987537,-0.002443461,-0.00045814895,0.0009162979,-0.081502095,0.2585595,9.806254,2,1683969835.4852138
-0.0074394583,0.024513626,1.0003633,-0.002443461,-0.00045814895,0.0009162979,-0.081502095,0.2585595,9.806254,2,1683969835.500594
-0.0074394583,0.024513626,1.0003633,-0.002443461,-0.00045814895,0.0009162979,-0.081511065,0.25844374,9.806257,2,1683969835.5159833
-0.0074394583,0.024513626,1.0003633,-0.0,0.0032070426,-0.00030543262,-0.081511065,0.25844374,9.806257,2,1683969835.5262454
-0.008902958,0.024025792,0.9988997,-0.0,0.0032070426,-0.00030543262,-0.081511065,0.25844374,9.806257,2,1683969835.5313418
-0.008902958,0.024025792,0.9988997,0.0012217305,0.004428773,-0.00030543262,-0.081511065,0.25844374,9.806257,2,1683969835.5518658
-0.008902958,0.024025792,0.9988997,0.0012217305,0.004428773,-0.00030543262,-0.08161823,0.2583002,9.80626,2,1683969835.562126
-0.008902958,0.02646496,0.99987537,0.0012217305,0.004428773,-0.00030543262,-0.08161823,0.2583002,9.80626,2,1683969835.5826116
-0.008902958,0.02646496,0.99987537,0.0012217305,0.004428773,-0.00030543262,-0.08189199,0.25821736,9.806259,2,1683969835.587742
-0.008902958,0.02646496,0.99987537,-0.0,0.00076358154,-0.00030543262,-0.08189199,0.25821736,9.806259,2,1683969835.5980093
-0.008902958,0.02646496,0.99987537,-0.0,0.00076358154,-0.00030543262,-0.082042925,0.2582551,9.806257,2,1683969835.6133611
-0.008902958,0.025001459,0.9974363,-0.0,0.00076358154,-0.00030543262,-0.082042925,0.2582551,9.806257,2,1683969835.6236272
-0.008902958,0.025001459,0.9974363,-0.0,0.00076358154,-0.00030543262,-0.08221827,0.2577712,9.806269,2,1683969835.6390245
-0.009939604,0.02646496,0.9998144,-0.0,0.00076358154,-0.00030543262,-0.08221827,0.2577712,9.806269,2,1683969835.6493092
-0.009939604,0.02646496,0.9998144,0.0012217305,-0.0041233404,-0.0015271631,-0.08221827,0.2577712,9.806269,2,1683969835.6595557
-0.008902958,0.02646496,0.9988997,0.0012217305,-0.0041233404,-0.0015271631,-0.08221827,0.2577712,9.806269,2,1683969835.680076
-0.008902958,0.02646496,0.9988997,-0.0,0.00076358154,-0.00030543262,-0.08221827,0.2577712,9.806269,2,1683969835.6902962
-0.008902958,0.02646496,0.9988997,-0.0,0.00076358154,-0.00030543262,-0.082330644,0.25790194,9.806264,2,1683969835.6954203
-0.008902958,0.02646496,0.9988997,0.0012217305,-0.00045814895,-0.00030543262,-0.082330644,0.25790194,9.806264,2,1683969835.7056642
-0.0074394583,0.02646496,0.9988997,0.0012217305,-0.00045814895,-0.00030543262,-0.082330644,0.25790194,9.806264,2,1683969835.7159166
-0.0074394583,0.02646496,0.9988997,0.0012217305,-0.00045814895,-0.00030543262,-0.08240466,0.2578463,9.806265,2,1683969835.7364025
-0.008415125,0.025489293,0.9984119,0.0012217305,-0.00045814895,-0.00030543262,-0.08240466,0.2578463,9.806265,2,1683969835.7415307
-0.008415125,0.025489293,0.9984119,0.0012217305,-0.00045814895,-0.00030543262,-0.082395256,0.25786486,9.806265,2,1683969835.7466896
-0.008415125,0.025489293,0.9984119,0.002443461,0.00076358154,-0.00030543262,-0.082395256,0.25786486,9.806265,2,1683969835.7518215
-0.008902958,0.025001459,0.9988997,0.002443461,0.00076358154,-0.00030543262,-0.082395256,0.25786486,9.806265,2,1683969835.7569702
-0.008902958,0.025001459,0.9988997,-0.002443461,-0.0016798794,0.0021380284,-0.082395256,0.25786486,9.806265,2,1683969835.7620947
-0.008902958,0.025001459,0.9988997,-0.002443461,-0.0016798794,0.0021380284,-0.082289234,0.2579152,9.806264,2,1683969835.7723184
-0.008902958,0.025001459,0.9988997,-0.002443461,-0.0016798794,0.0021380284,-0.08227846,0.25792444,9.806264,2,1683969835.7825375
-0.0059759584,0.025977125,0.9988997,-0.002443461,-0.0016798794,0.0021380284,-0.08227846,0.25792444,9.806264,2,1683969835.7876713
-0.0059759584,0.025977125,0.9988997,-0.0,-0.00290161,-0.00030543262,-0.08227846,0.25792444,9.806264,2,1683969835.8030183
-0.0059759584,0.025977125,0.9988997,0.0012217305,0.00076358154,-0.00030543262,-0.08227846,0.25792444,9.806264,2,1683969835.8337808
-0.008415125,0.025977125,0.9979241,0.0012217305,0.00076358154,-0.00030543262,-0.08227846,0.25792444,9.806264,2,1683969835.8389242
-0.008415125,0.025977125,0.9979241,0.0012217305,0.00076358154,-0.00030543262,-0.08189787,0.25785476,9.80627,2,1683969835.8440542
-0.008415125,0.02646496,0.9998144,0.0012217305,0.00076358154,-0.00030543262,-0.08189787,0.25785476,9.80627,2,1683969835.8696542
-0.008415125,0.02646496,0.9998144,0.0012217305,-0.0016798794,0.004581489,-0.08189787,0.25785476,9.80627,2,1683969835.8747468
-0.008415125,0.02646496,0.9998144,-0.0012217305,0.001985312,-0.0015271631,-0.08189787,0.25785476,9.80627,2,1683969835.8901298
-0.009390792,0.025001459,0.998351,-0.0012217305,0.001985312,-0.0015271631,-0.08189787,0.25785476,9.80627,2,1683969835.8952005
-0.009390792,0.025001459,0.998351,-0.0012217305,0.001985312,-0.0015271631,-0.08233867,0.25740525,9.806277,2,1683969835.9054518
-0.008902958,0.025489293,0.9979241,-0.0012217305,0.001985312,-0.0015271631,-0.08233867,0.25740525,9.806277,2,1683969835.9310937
-0.008902958,0.025489293,0.9979241,-0.0012217305,0.001985312,-0.0015271631,-0.082347624,0.25728822,9.80628,2,1683969835.9362304
-0.008902958,0.025489293,0.9979241,-0.0012217305,0.001985312,-0.00030543262,-0.082347624,0.25728822,9.80628,2,1683969835.9413638
-0.008476105,0.02646496,1.0003022,-0.0012217305,0.001985312,-0.00030543262,-0.082347624,0.25728822,9.80628,2,1683969835.9516222
-0.008476105,0.02646496,1.0003022,-0.0012217305,0.001985312,-0.00030543262,-0.08238157,0.257201,9.806282,2,1683969835.9670093
-0.008476105,0.02646496,1.0003022,0.0012217305,-0.0016798794,-0.0015271631,-0.08238157,0.257201,9.806282,2,1683969835.9721413
-0.008476105,0.02646496,1.0003022,-0.0,-0.00045814895,0.0009162979,-0.08238157,0.257201,9.806282,2,1683969835.9926598
-0.008476105,0.02646496,1.0003022,-0.0,-0.00045814895,0.0009162979,-0.08240252,0.25726986,9.80628,2,1683969836.0131443
-0.007927292,0.02646496,0.9984119,-0.0,-0.00045814895,0.0009162979,-0.08240252,0.25726986,9.80628,2,1683969836.0182803
-0.007927292,0.02646496,0.9984119,-0.0,-0.00045814895,0.0009162979,-0.082312815,0.2573273,9.806279,2,1683969836.0284967
-0.010366458,0.02646496,0.9993266,-0.0,-0.00045814895,0.0009162979,-0.082312815,0.2573273,9.806279,2,1683969836.0387428
-0.010366458,0.02646496,0.9993266,-0.002443461,-0.007941248,0.0021380284,-0.082312815,0.2573273,9.806279,2,1683969836.05417
-0.010366458,0.02646496,0.9993266,-0.0012217305,-0.0018325958,-0.0015271631,-0.082312815,0.2573273,9.806279,2,1683969836.0746644
-0.010366458,0.02646496,0.9993266,-0.0012217305,-0.0018325958,-0.0015271631,-0.08211564,0.25713268,9.806286,2,1683969836.0798671
-0.009390792,0.025489293,0.9993266,-0.0012217305,-0.0018325958,-0.0015271631,-0.08211564,0.25713268,9.806286,2,1683969836.0901365
-0.009390792,0.025489293,0.9993266,-0.0012217305,-0.0018325958,-0.0015271631,-0.08210469,0.25703588,9.806289,2,1683969836.1003177
-0.009390792,0.025489293,0.9993266,0.0012217305,-0.00290161,-0.00030543262,-0.08210469,0.25703588,9.806289,2,1683969836.11571
-0.009390792,0.025977125,0.9988388,0.0012217305,-0.00290161,-0.00030543262,-0.08210469,0.25703588,9.806289,2,1683969836.1208465
-0.009390792,0.025977125,0.9988388,-0.0012217305,-0.004276057,-0.0027488936,-0.08210469,0.25703588,9.806289,2,1683969836.1413279
-0.009390792,0.025977125,0.9988388,-0.0012217305,-0.004276057,-0.0027488936,-0.08188874,0.25703484,9.806291,2,1683969836.1515856
-0.009390792,0.025977125,0.9988388,-0.0012217305,-0.004276057,-0.0027488936,-0.08137143,0.25650266,9.806309,2,1683969836.1670249
-0.007927292,0.027440626,0.9984119,-0.0012217305,-0.004276057,-0.0027488936,-0.08137143,0.25650266,9.806309,2,1683969836.1721563
-0.007927292,0.027440626,0.9984119,-0.002443461,0.00076358154,0.0009162979,-0.08137143,0.25650266,9.806309,2,1683969836.1772735
-0.008963938,0.025001459,1.0012779,-0.002443461,0.00076358154,0.0009162979,-0.08137143,0.25650266,9.806309,2,1683969836.192663
-0.008963938,0.025001459,1.0012779,-0.0,0.0032070426,0.0021380284,-0.08137143,0.25650266,9.806309,2,1683969836.2028832
-0.008963938,0.025001459,1.0012779,-0.0,0.0032070426,0.0021380284,-0.0815712,0.25643802,9.806309,2,1683969836.213095
-0.008963938,0.025001459,1.0012779,-0.0012217305,0.00076358154,0.0009162979,-0.0815712,0.25643802,9.806309,2,1683969836.2284493
-0.00798827,0.025977125,1.0003022,-0.0012217305,0.00076358154,0.0009162979,-0.0815712,0.25643802,9.806309,2,1683969836.2335782
-0.00798827,0.025977125,1.0003022,-0.0012217305,0.00076358154,0.0009162979,-0.08189238,0.25645474,9.806306,2,1683969836.2438424
-0.00798827,0.025977125,1.0003022,-0.0,0.001985312,-0.00030543262,-0.08189238,0.25645474,9.806306,2,1683969836.2591896
-0.00798827,0.025977125,1.0003022,-0.0,0.001985312,-0.00030543262,-0.08200176,0.25640133,9.806306,2,1683969836.2643323
-0.008902958,0.025977125,0.9998144,-0.0,0.001985312,-0.00030543262,-0.08200176,0.25640133,9.806306,2,1683969836.274518
-0.010854292,0.02695279,0.9964606,-0.0,0.001985312,-0.00030543262,-0.08200176,0.25640133,9.806306,2,1683969836.2950146
-0.010854292,0.02695279,0.9964606,0.0012217305,-0.00045814895,-0.00030543262,-0.08200176,0.25640133,9.806306,2,1683969836.300154
-0.010854292,0.02695279,0.9964606,0.0012217305,-0.00045814895,-0.00030543262,-0.08215695,0.25632367,9.806308,2,1683969836.3103793
-0.010854292,0.02695279,0.9964606,0.0012217305,-0.00045814895,-0.00030543262,-0.08210397,0.25642002,9.806305,2,1683969836.325724
-0.010854292,0.02695279,0.9964606,-0.0,-0.004276057,-0.0027488936,-0.08210397,0.25642002,9.806305,2,1683969836.3462467
-0.009390792,0.025001459,0.9984119,-0.0,-0.004276057,-0.0027488936,-0.08210397,0.25642002,9.806305,2,1683969836.3513427
-0.009390792,0.025001459,0.9984119,-0.0,-0.004276057,-0.0027488936,-0.081972286,0.25641784,9.806306,2,1683969836.3667502
-0.009451771,0.027440626,0.9998144,-0.0,-0.004276057,-0.0027488936,-0.081972286,0.25641784,9.806306,2,1683969836.3718817
-0.009451771,0.027440626,0.9998144,0.002443461,0.00076358154,-0.00030543262,-0.081972286,0.25641784,9.806306,2,1683969836.3770103
-0.008476105,0.025489293,1.0003022,0.002443461,0.00076358154,-0.00030543262,-0.081972286,0.25641784,9.806306,2,1683969836.3923364
-0.008476105,0.025489293,1.0003022,0.0012217305,0.0032070426,0.0021380284,-0.081972286,0.25641784,9.806306,2,1683969836.4025948
-0.008476105,0.025489293,1.0003022,0.0012217305,0.0032070426,0.0021380284,-0.081987835,0.25643775,9.806306,2,1683969836.4128602
-0.008476105,0.025489293,1.0003022,0.0012217305,0.0032070426,0.0021380284,-0.08202107,0.2560491,9.806315,2,1683969836.4384844
-0.008476105,0.025489293,1.0003022,0.0012217305,0.00076358154,-0.0015271631,-0.08202107,0.2560491,9.806315,2,1683969836.4436264
-0.008902958,0.025489293,0.9979241,0.0012217305,0.00076358154,-0.0015271631,-0.08202107,0.2560491,9.806315,2,1683969836.453893
-0.008902958,0.025977125,0.99938756,0.0012217305,0.00076358154,-0.0015271631,-0.08202107,0.2560491,9.806315,2,1683969836.4641538
-0.008902958,0.025977125,0.99938756,-0.0012217305,0.00076358154,0.0009162979,-0.08202107,0.2560491,9.806315,2,1683969836.4692972
-0.008902958,0.025977125,0.99938756,-0.0012217305,0.00076358154,0.0009162979,-0.082026735,0.2560403,9.806315,2,1683969836.4744585
-0.008963938,0.027440626,0.9998144,-0.0012217305,0.00076358154,0.0009162979,-0.082026735,0.2560403,9.806315,2,1683969836.4898038
-0.008963938,0.027440626,0.9998144,-0.0012217305,0.00076358154,0.0009162979,-0.08198826,0.25603315,9.806316,2,1683969836.494938
-0.008963938,0.027440626,0.9998144,0.0012217305,0.001985312,0.0009162979,-0.08198826,0.25603315,9.806316,2,1683969836.5052207
-0.008902958,0.025977125,0.9984119,0.0012217305,0.001985312,0.0009162979,-0.08198826,0.25603315,9.806316,2,1683969836.5103579
-0.008902958,0.025977125,0.9984119,0.0012217305,0.001985312,0.0009162979,-0.08199329,0.25611755,9.8063135,2,1683969836.5154777
-0.008902958,0.025977125,0.9984119,0.0012217305,0.0032070426,0.0021380284,-0.08199329,0.25611755,9.8063135,2,1683969836.5308561
-0.008902958,0.025977125,0.9984119,0.0036651916,-0.00045814895,0.0009162979,-0.08199329,0.25611755,9.8063135,2,1683969836.5512986
-0.008902958,0.02646496,0.9984119,0.0036651916,-0.00045814895,0.0009162979,-0.08199329,0.25611755,9.8063135,2,1683969836.5615582
-0.008902958,0.02646496,0.9984119,0.0036651916,-0.00045814895,0.0009162979,-0.081935756,0.25603917,9.806316,2,1683969836.5717804
-0.008415125,0.02695279,0.9984119,0.0036651916,-0.00045814895,0.0009162979,-0.081935756,0.25603917,9.806316,2,1683969836.5922687
-0.008415125,0.02695279,0.9984119,0.002443461,-0.00045814895,-0.00030543262,-0.081935756,0.25603917,9.806316,2,1683969836.5973992
-0.008415125,0.02695279,0.9984119,0.002443461,-0.00045814895,-0.00030543262,-0.081802204,0.25622916,9.806313,2,1683969836.6025314
-0.00798827,0.027440626,1.0007901,0.002443461,-0.00045814895,-0.00030543262,-0.081802204,0.25622916,9.806313,2,1683969836.6179135
-0.00798827,0.027440626,1.0007901,-0.0012217305,0.001985312,-0.0027488936,-0.081802204,0.25622916,9.806313,2,1683969836.6230445
-0.00798827,0.027440626,1.0007901,-0.0012217305,0.001985312,-0.0027488936,-0.08175701,0.25630048,9.8063135,2,1683969836.6384344
-0.00798827,0.027440626,1.0007901,-0.0012217305,0.001985312,-0.0027488936,-0.081507705,0.25611603,9.806318,2,1683969836.648653
-0.00798827,0.027440626,1.0007901,-0.0,0.00076358154,-0.0015271631,-0.081507705,0.25611603,9.806318,2,1683969836.6537843
-0.007927292,0.027440626,0.99938756,-0.0,0.00076358154,-0.0015271631,-0.081507705,0.25611603,9.806318,2,1683969836.6742566
-0.007927292,0.027440626,0.99938756,-0.0,0.00076358154,-0.0015271631,-0.081815094,0.2560275,9.806317,2,1683969836.6793485
-0.007927292,0.027440626,0.99938756,0.0012217305,0.00076358154,-0.0027488936,-0.081815094,0.2560275,9.806317,2,1683969836.6998942
-0.0075004376,0.025977125,1.0003633,0.0012217305,0.00076358154,-0.0027488936,-0.081815094,0.2560275,9.806317,2,1683969836.7049983
-0.0075004376,0.025977125,1.0003633,0.0013744468,0.0032070426,-0.0015271631,-0.081815094,0.2560275,9.806317,2,1683969836.720295
-0.0075004376,0.025977125,1.0003633,0.0013744468,0.0032070426,-0.0015271631,-0.08183568,0.25615898,9.8063135,2,1683969836.7305586
-0.008963938,0.02646496,1.0007901,0.0013744468,0.0032070426,-0.0015271631,-0.08183568,0.25615898,9.8063135,2,1683969836.7356923
-0.008963938,0.02646496,1.0007901,0.0013744468,-0.0016798794,-0.00030543262,-0.08183568,0.25615898,9.8063135,2,1683969836.7510846
-0.008963938,0.02646496,1.0007901,0.0013744468,-0.0016798794,-0.00030543262,-0.08200517,0.25620976,9.806312,2,1683969836.7613378
-0.008415125,0.02646496,0.9984119,0.0013744468,-0.0016798794,-0.00030543262,-0.08200517,0.25620976,9.806312,2,1683969836.7664676
-0.008963938,0.02695279,0.99987537,0.0013744468,-0.0016798794,-0.00030543262,-0.08200517,0.25620976,9.806312,2,1683969836.79206
-0.008963938,0.02695279,0.99987537,-0.0010690142,-0.0016798794,-0.00030543262,-0.08200517,0.25620976,9.806312,2,1683969836.807464
-0.008963938,0.02695279,0.99987537,-0.0010690142,-0.0016798794,-0.00030543262,-0.08197258,0.25645372,9.806305,2,1683969836.8126044
-0.00798827,0.02841629,0.99987537,-0.0010690142,-0.0016798794,-0.00030543262,-0.08197258,0.25645372,9.806305,2,1683969836.8331358
-0.00798827,0.02841629,0.99987537,0.0025961774,-0.0016798794,0.0021380284,-0.08197258,0.25645372,9.806305,2,1683969836.838265
-0.00798827,0.02841629,0.99987537,0.0025961774,-0.0016798794,0.0021380284,-0.081934296,0.25648722,9.806304,2,1683969836.8536165
-0.00798827,0.02841629,0.99987537,-0.0022907446,-0.005497787,0.0021380284,-0.081934296,0.25648722,9.806304,2,1683969836.8741448
-0.00798827,0.02841629,0.99987537,-0.0022907446,-0.005497787,0.0021380284,-0.08189458,0.25657734,9.806303,2,1683969836.8792393
-0.008902958,0.02695279,0.9993266,-0.0022907446,-0.005497787,0.0021380284,-0.08189458,0.25657734,9.806303,2,1683969836.8843634
-0.009878625,0.02646496,0.9978631,-0.0022907446,-0.005497787,0.0021380284,-0.08189458,0.25657734,9.806303,2,1683969836.8997517
-0.009878625,0.02646496,0.9978631,0.00015271631,0.0032070426,-0.00030543262,-0.08189458,0.25657734,9.806303,2,1683969836.9100122
-0.009878625,0.02646496,0.9978631,0.00015271631,0.0032070426,-0.00030543262,-0.08176606,0.25642675,9.806308,2,1683969836.9151478
-0.010366458,0.024513626,0.998351,0.00015271631,0.0032070426,-0.00030543262,-0.08176606,0.25642675,9.806308,2,1683969836.9458735
-0.010366458,0.024513626,0.998351,0.0025961774,0.0032070426,0.0009162979,-0.08176606,0.25642675,9.806308,2,1683969836.9510076
-0.010366458,0.024513626,0.998351,0.0025961774,0.0032070426,0.0009162979,-0.082209684,0.2565456,9.806301,2,1683969836.9561417
-0.010366458,0.024513626,0.998351,0.0025961774,0.0032070426,0.0009162979,-0.08257233,0.25680926,9.806291,2,1683969836.9715242
-0.010366458,0.024513626,0.998351,-0.0022907446,-0.0018325958,0.0009162979,-0.08257233,0.25680926,9.806291,2,1683969836.9817405
-0.007927292,0.025977125,0.9984119,-0.0022907446,-0.0018325958,0.0009162979,-0.08257233,0.25680926,9.806291,2,1683969836.992007
-0.009390792,0.025489293,0.9979241,-0.0022907446,-0.0018325958,0.0009162979,-0.08257233,0.25680926,9.806291,2,1683969837.002275
-0.009390792,0.025489293,0.9979241,-0.0022907446,-0.0018325958,0.0009162979,-0.082753435,0.25673676,9.806291,2,1683969837.0124953
-0.009390792,0.025489293,0.9979241,-0.0010690142,-0.0016798794,0.0009162979,-0.082753435,0.25673676,9.806291,2,1683969837.0176275
-0.009390792,0.025489293,0.9979241,-0.0010690142,-0.0016798794,0.0009162979,-0.082708366,0.25670645,9.806293,2,1683969837.0432389
-0.010793312,0.023537958,0.98969185,-0.0010690142,-0.0016798794,0.0009162979,-0.082708366,0.25670645,9.806293,2,1683969837.0483708
-0.010793312,0.023537958,0.98969185,0.0050396384,-0.0065668016,-0.00015271631,-0.082708366,0.25670645,9.806293,2,1683969837.0535014
-0.013293459,0.022562291,0.9978631,0.0050396384,-0.0065668016,-0.00015271631,-0.082708366,0.25670645,9.806293,2,1683969837.0688932
