acc_x,acc_y,acc_z,gyr_x,gyr_y,gyr_z,grav_x,grav_y,grav_z,label,timestamp
-0.0075004376,0.02695279,1.0003633,0.0,-0.0030543262,-0.0015271631,-0.0901887,0.2693718,9.805886,2,1683969802.6152735
-0.009878625,0.025977125,0.9988997,0.002443461,0.001985312,0.0009162979,-0.09011064,0.26934224,9.805889,2,1683969802.6744072
-0.009878625,0.025977125,0.9988997,-0.0012217305,0.0032070426,-0.00030543262,-0.0904434,0.26931107,9.805885,2,1683969802.6795738
-0.008476105,0.025977125,1.0003633,-0.0012217305,0.0032070426,-0.00030543262,-0.0904434,0.26931107,9.805885,2,1683969802.6795828
-0.008476105,0.025977125,1.0003633,-0.0012217305,-0.00061086525,-0.0015271631,-0.0904434,0.26931107,9.805885,2,1683969802.6897736
-0.008476105,0.025977125,1.0003633,-0.0012217305,-0.00061086525,-0.0015271631,-0.090726264,0.26917478,9.805887,2,1683969802.6948965
-0.009878625,0.026891813,0.9955459,-0.0012217305,-0.00061086525,-0.0015271631,-0.090726264,0.26917478,9.805887,2,1683969802.710296
-0.009878625,0.026891813,0.9955459,-0.0012217305,-0.00061086525,-0.0015271631,-0.09072528,0.26896894,9.805893,2,1683969802.7358902
-0.008902958,0.025977125,0.9970094,-0.0012217305,-0.00061086525,-0.0015271631,-0.09072528,0.26896894,9.805893,2,1683969802.746152
-0.008902958,0.025977125,0.9970094,0.0012217305,-0.00045814895,0.004581489,-0.09072528,0.26896894,9.805893,2,1683969802.7512026
-0.008902958,0.025977125,0.9970094,0.0012217305,-0.00045814895,0.004581489,-0.09049747,0.2690432,9.805893,2,1683969802.7614667
-0.008902958,0.025977125,0.9970094,0.0,0.00076358154,0.0033597588,-0.09049747,0.2690432,9.805893,2,1683969802.771721
-0.008902958,0.025489293,0.9974972,0.0,0.00076358154,0.0033597588,-0.09049747,0.2690432,9.805893,2,1683969802.781983
-0.008902958,0.025489293,0.9974972,0.0,0.00076358154,0.0033597588,-0.09039043,0.26896778,9.805896,2,1683969802.8024604
-0.008902958,0.025489293,0.9974972,0.0,-0.0030543262,-0.0027488936,-0.09039043,0.26896778,9.805896,2,1683969802.8075883
-0.008902958,0.025489293,0.99938756,0.0,-0.0030543262,-0.0027488936,-0.09039043,0.26896778,9.805896,2,1683969802.822981
-0.008902958,0.025489293,0.99938756,0.0012217305,0.00076358154,-0.00030543262,-0.09039043,0.26896778,9.805896,2,1683969802.8281112
-0.0064637917,0.025001459,1.0003633,0.0012217305,0.00076358154,-0.00030543262,-0.09039043,0.26896778,9.805896,2,1683969802.8536692
-0.0064637917,0.025001459,1.0003633,0.0012217305,0.00076358154,-0.00030543262,-0.09028357,0.26900387,9.805896,2,1683969802.858802
-0.0064637917,0.025001459,1.0003633,0.0012217305,0.001985312,0.0009162979,-0.09028357,0.26900387,9.805896,2,1683969802.8741944
-0.0064637917,0.025001459,1.0003633,0.0012217305,0.001985312,0.0009162979,-0.090209045,0.26908833,9.805894,2,1683969802.879284
-0.007927292,0.02695279,0.9988997,0.0012217305,0.001985312,0.0009162979,-0.090209045,0.26908833,9.805894,2,1683969802.8946311
-0.007927292,0.02695279,0.9988997,-0.002443461,-0.00061086525,-0.00030543262,-0.090209045,0.26908833,9.805894,2,1683969802.8997633
-0.007927292,0.02695279,0.9988997,-0.002443461,-0.00061086525,-0.00030543262,-0.09022792,0.2690917,9.805894,2,1683969802.9048994
-0.007927292,0.025977125,0.997985,-0.002443461,-0.00061086525,-0.00030543262,-0.09022792,0.2690917,9.805894,2,1683969802.9203088
-0.007927292,0.025977125,0.997985,0.002443461,-0.00045814895,-0.0015271631,-0.09022792,0.2690917,9.805894,2,1683969802.9408376
-0.007927292,0.025977125,0.997985,0.002443461,-0.00045814895,-0.0015271631,-0.09023578,0.26893008,9.805898,2,1683969802.9459748
-0.0069516255,0.025977125,0.9965216,0.002443461,-0.00045814895,-0.0015271631,-0.09023578,0.26893008,9.805898,2,1683969802.9562397
-0.0069516255,0.025977125,0.9965216,0.0,0.0056505036,-0.00030543262,-0.09023578,0.26893008,9.805898,2,1683969802.9818106
-0.0074394583,0.02695279,0.99847287,0.0,0.0056505036,-0.00030543262,-0.09023578,0.26893008,9.805898,2,1683969802.997196
-0.0074394583,0.02695279,0.99847287,0.0,0.0056505036,-0.00030543262,-0.089890935,0.26895687,9.805901,2,1683969803.0023408
-0.0074394583,0.02695279,0.99847287,0.0012217305,0.0032070426,-0.0015271631,-0.089890935,0.26895687,9.805901,2,1683969803.017721
-0.0074394583,0.02695279,0.99847287,0.0012217305,0.0032070426,-0.0015271631,-0.09010056,0.26908058,9.805896,2,1683969803.0330725
-0.008963938,0.02695279,1.0003633,0.0012217305,0.0032070426,-0.0015271631,-0.09010056,0.26908058,9.805896,2,1683969803.0382175
-0.008963938,0.02695279,1.0003633,-0.0012217305,-0.00045814895,-0.00030543262,-0.09010056,0.26908058,9.805896,2,1683969803.0535595
-0.008963938,0.02695279,1.0003633,-0.0012217305,-0.00045814895,-0.00030543262,-0.09022422,0.26907465,9.805895,2,1683969803.058692
-0.008415125,0.025977125,0.997985,-0.0012217305,-0.00045814895,-0.00030543262,-0.09022422,0.26907465,9.805895,2,1683969803.0638258
-0.008415125,0.025977125,0.997985,0.002443461,0.001985312,-0.00030543262,-0.09022422,0.26907465,9.805895,2,1683969803.094525
-0.008415125,0.02646496,0.9970094,0.002443461,0.001985312,-0.00030543262,-0.09022422,0.26907465,9.805895,2,1683969803.1046982
-0.008415125,0.02646496,0.9970094,0.002443461,0.001985312,-0.00030543262,-0.0902814,0.26897094,9.805897,2,1683969803.10981
-0.008476105,0.027440626,1.0003633,0.002443461,0.001985312,-0.00030543262,-0.0902814,0.26897094,9.805897,2,1683969803.1303308
-0.008476105,0.027440626,1.0003633,0.002443461,0.001985312,-0.00030543262,-0.0902056,0.2690774,9.805895,2,1683969803.1405802
-0.008476105,0.027440626,1.0003633,-0.0012217305,-0.0018325958,-0.00030543262,-0.0902056,0.2690774,9.805895,2,1683969803.145718
-0.0074394583,0.025489293,0.9999364,-0.0012217305,-0.0018325958,-0.00030543262,-0.0902056,0.2690774,9.805895,2,1683969803.1661942
-0.0074394583,0.025489293,0.9999364,0.0,-0.00045814895,0.0009162979,-0.0902056,0.2690774,9.805895,2,1683969803.1712844
-0.0074394583,0.025489293,0.9999364,0.0,-0.00045814895,0.0009162979,-0.090240374,0.2690164,9.805896,2,1683969803.1764169
-0.008902958,0.025977125,0.99938756,0.0,0.001985312,-0.00030543262,-0.090240374,0.2690164,9.805896,2,1683969803.1917796
-0.0074394583,0.025001459,1.0003633,0.002443461,-0.00290161,-0.00030543262,-0.09052147,0.26901397,9.805893,2,1683969803.1969984
-0.0074394583,0.025001459,1.0003633,0.002443461,-0.00290161,-0.00030543262,-0.09030378,0.26902625,9.805895,2,1683969803.207222
-0.0069516255,0.02646496,0.9989607,0.002443461,-0.00290161,-0.00030543262,-0.09030378,0.26902625,9.805895,2,1683969803.2123501
-0.0069516255,0.02646496,0.9989607,-0.0012217305,-0.0030543262,-0.00030543262,-0.09030378,0.26902625,9.805895,2,1683969803.2225752
-0.009390792,0.02646496,0.9984119,-0.0012217305,-0.0030543262,-0.00030543262,-0.09030378,0.26902625,9.805895,2,1683969803.2482104
-0.009390792,0.02646496,0.9984119,-0.002443461,-0.0030543262,-0.00030543262,-0.09030378,0.26902625,9.805895,2,1683969803.2533484
-0.009390792,0.02646496,0.9984119,-0.002443461,-0.0030543262,-0.00030543262,-0.09011837,0.26897326,9.805898,2,1683969803.2584789
-0.009878625,0.02646496,0.99987537,-0.002443461,-0.0030543262,-0.00030543262,-0.09011837,0.26897326,9.805898,2,1683969803.26874
-0.009878625,0.02646496,0.99987537,0.0012217305,0.00076358154,0.0009162979,-0.09011837,0.26897326,9.805898,2,1683969803.2893178
-0.009878625,0.02646496,0.99987537,0.0012217305,0.00076358154,0.0009162979,-0.090086795,0.26893097,9.8059,2,1683969803.299585
-0.009390792,0.027379647,0.9974363,0.0012217305,0.00076358154,0.0009162979,-0.090086795,0.26893097,9.8059,2,1683969803.3149552
-0.009390792,0.027379647,0.9974363,0.0012217305,-0.00045814895,-0.00030543262,-0.090086795,0.26893097,9.8059,2,1683969803.3200855
-0.009390792,0.027379647,0.9974363,0.0012217305,-0.00045814895,-0.00030543262,-0.090082064,0.26918572,9.805893,2,1683969803.3354356
-0.009390792,0.027379647,0.9974363,0.0012217305,-0.00045814895,-0.00030543262,-0.08999058,0.26910493,9.805896,2,1683969803.3405602
-0.009390792,0.027379647,0.9974363,0.0,-0.00045814895,-0.0015271631,-0.08999058,0.26910493,9.805896,2,1683969803.3456914
-0.008902958,0.023537958,0.9970094,0.0,-0.00045814895,-0.0015271631,-0.08999058,0.26910493,9.805896,2,1683969803.3508222
-0.008902958,0.023537958,0.9970094,0.0,-0.00045814895,-0.0015271631,-0.0899649,0.26905662,9.805898,2,1683969803.3917687
-0.010366458,0.025977125,0.99987537,0.0,-0.00045814895,-0.0015271631,-0.0899649,0.26905662,9.805898,2,1683969803.407118
-0.0075004376,0.02646496,1.001339,0.0,-0.00045814895,-0.0015271631,-0.0899649,0.26905662,9.805898,2,1683969803.4173832
-0.0075004376,0.02646496,1.001339,-0.002443461,-0.0018325958,0.0009162979,-0.0899649,0.26905662,9.805898,2,1683969803.4275997
-0.0075004376,0.02646496,1.001339,-0.002443461,-0.0018325958,0.0009162979,-0.09006599,0.26901227,9.805898,2,1683969803.4429824
-0.0075004376,0.02646496,1.001339,0.0,-0.0016798794,-0.0015271631,-0.09006599,0.26901227,9.805898,2,1683969803.4633818
-0.0075004376,0.02646496,1.001339,0.0,-0.0016798794,-0.0015271631,-0.08991973,0.26886678,9.805903,2,1683969803.4685068
-0.0074394583,0.025977125,0.997985,0.0,-0.0016798794,-0.0015271631,-0.08991973,0.26886678,9.805903,2,1683969803.4787698
-0.0074394583,0.025977125,0.997985,0.0,-0.0016798794,-0.0015271631,-0.089896105,0.2687319,9.805907,2,1683969803.4838967
-0.0074394583,0.025977125,0.997985,0.0,-0.00045814895,0.0009162979,-0.089896105,0.2687319,9.805907,2,1683969803.499244
-0.008902958,0.02646496,0.99987537,0.0,-0.00045814895,0.0009162979,-0.089896105,0.2687319,9.805907,2,1683969803.5043602
-0.008902958,0.02646496,0.99987537,0.0,-0.00045814895,0.0009162979,-0.08980176,0.2686297,9.805911,2,1683969803.5248713
-0.008902958,0.02646496,0.99987537,0.0012217305,0.00076358154,-0.00030543262,-0.08980176,0.2686297,9.805911,2,1683969803.5300019
-0.0069516255,0.025489293,0.99847287,0.0012217305,0.00076358154,-0.00030543262,-0.08980176,0.2686297,9.805911,2,1683969803.5402603
-0.007927292,0.025977125,0.9974972,0.0012217305,0.00076358154,-0.00030543262,-0.08980176,0.2686297,9.805911,2,1683969803.5505223
-0.007927292,0.025977125,0.9974972,0.0012217305,0.00076358154,-0.00030543262,-0.08986911,0.2686412,9.805909,2,1683969803.5607777
-0.007927292,0.025977125,0.9974972,-0.002443461,0.001985312,-0.00030543262,-0.08986911,0.2686412,9.805909,2,1683969803.5761049
-0.007927292,0.025977125,0.9974972,0.0,0.001985312,0.0033597588,-0.08986911,0.2686412,9.805909,2,1683969803.5966218
-0.007927292,0.025977125,0.9974972,0.0,0.001985312,0.0033597588,-0.089882925,0.2685638,9.805911,2,1683969803.601752
-0.0069516255,0.025001459,0.9974972,0.0,0.001985312,0.0033597588,-0.089882925,0.2685638,9.805911,2,1683969803.6068811
-0.0074394583,0.025977125,0.99847287,0.0,0.001985312,0.0033597588,-0.089882925,0.2685638,9.805911,2,1683969803.6324933
-0.008963938,0.027440626,0.99987537,0.0,0.001985312,0.0033597588,-0.089882925,0.2685638,9.805911,2,1683969803.6530132
-0.008963938,0.027440626,0.99987537,0.0,0.001985312,0.0033597588,-0.08978128,0.2685088,9.805914,2,1683969803.6632023
-0.008963938,0.027440626,0.99987537,-0.002443461,0.00076358154,0.0009162979,-0.08978128,0.2685088,9.805914,2,1683969803.668335
-0.008963938,0.027440626,0.99987537,0.0012217305,-0.00045814895,-0.00030543262,-0.08978128,0.2685088,9.805914,2,1683969803.6837215
-0.008963938,0.027440626,0.99987537,0.0012217305,-0.00045814895,-0.00030543262,-0.089800365,0.26837313,9.805918,2,1683969803.693976
-0.008902958,0.027440626,0.9988997,0.0012217305,-0.00045814895,-0.00030543262,-0.089800365,0.26837313,9.805918,2,1683969803.69907
-0.007927292,0.02646496,0.997985,0.0012217305,-0.00045814895,-0.00030543262,-0.089800365,0.26837313,9.805918,2,1683969803.7195516
-0.007927292,0.02646496,0.997985,0.0012217305,-0.00045814895,-0.00030543262,-0.0898034,0.26830763,9.80592,2,1683969803.7349415
-0.007927292,0.02646496,0.997985,-0.0012217305,-0.0018325958,-0.00030543262,-0.0898034,0.26830763,9.80592,2,1683969803.7400718
-0.008902958,0.025977125,0.99987537,-0.0012217305,-0.0018325958,-0.00030543262,-0.0898034,0.26830763,9.80592,2,1683969803.7554457
-0.008902958,0.025977125,0.99987537,0.0,-0.0016798794,-0.00030543262,-0.0898034,0.26830763,9.80592,2,1683969803.7657094
-0.008902958,0.025977125,0.99987537,0.0,-0.0016798794,-0.00030543262,-0.08970447,0.26823956,9.805922,2,1683969803.770846
-0.008415125,0.02646496,0.99847287,0.0,-0.0016798794,-0.00030543262,-0.08970447,0.26823956,9.805922,2,1683969803.7913966
-0.008415125,0.02646496,0.99847287,0.0,-0.0016798794,-0.00030543262,-0.08976577,0.26808512,9.805926,2,1683969803.8119214
-0.009390792,0.02695279,0.9984119,0.0,-0.0016798794,-0.00030543262,-0.08976577,0.26808512,9.805926,2,1683969803.8170547
-0.009390792,0.02695279,0.9984119,0.0,-0.0016798794,-0.00030543262,-0.08973916,0.2680172,9.805928,2,1683969803.8324332
-0.007927292,0.027440626,0.99938756,-0.0012217305,-0.0030543262,-0.0015271631,-0.08973916,0.2680172,9.805928,2,1683969803.837614
-0.007927292,0.027440626,0.99938756,-0.0012217305,-0.0030543262,-0.0015271631,-0.08947727,0.26796174,9.805932,2,1683969803.8427389
-0.007927292,0.027440626,0.99938756,0.0,0.001985312,-0.00030543262,-0.08947727,0.26796174,9.805932,2,1683969803.858135
-0.007927292,0.027440626,0.99938756,0.0,0.001985312,-0.00030543262,-0.08927595,0.26784694,9.805937,2,1683969803.8631997
-0.0064637917,0.02646496,0.9999364,0.0,0.001985312,-0.00030543262,-0.08927595,0.26784694,9.805937,2,1683969803.8683338
-0.0064637917,0.02646496,0.9999364,-0.002443461,0.0032070426,0.0009162979,-0.08927595,0.26784694,9.805937,2,1683969803.8991644
-0.007927292,0.02695279,0.99847287,-0.002443461,0.0032070426,0.0009162979,-0.08927595,0.26784694,9.805937,2,1683969803.9043007
-0.007927292,0.02695279,0.99847287,-0.002443461,0.0032070426,0.0009162979,-0.08921165,0.2677738,9.80594,2,1683969803.9145606
-0.007927292,0.02695279,0.99847287,-0.002443461,0.0032070426,0.0009162979,-0.08943978,0.26773575,9.805939,2,1683969803.924826
-0.007927292,0.02695279,0.99847287,-0.0012217305,-0.00045814895,-0.00030543262,-0.08943978,0.26773575,9.805939,2,1683969803.935065
-0.009390792,0.025489293,0.9988997,-0.0012217305,-0.00045814895,-0.00030543262,-0.08943978,0.26773575,9.805939,2,1683969803.940196
-0.009390792,0.025489293,0.9988997,-0.002443461,-0.004276057,-0.00030543262,-0.08943978,0.26773575,9.805939,2,1683969803.9658055
-0.009390792,0.025489293,0.9988997,-0.002443461,-0.004276057,-0.00030543262,-0.089308076,0.2676392,9.805942,2,1683969803.9760573
-0.0070126047,0.02695279,1.0003633,-0.002443461,-0.004276057,-0.00030543262,-0.089308076,0.2676392,9.805942,2,1683969803.9811876
-0.0070126047,0.02695279,1.0003633,-0.0012217305,0.0032070426,-0.0015271631,-0.089308076,0.2676392,9.805942,2,1683969804.0017126
-0.008902958,0.02695279,0.99987537,-0.0012217305,0.0032070426,-0.0015271631,-0.089308076,0.2676392,9.805942,2,1683969804.00681
-0.008902958,0.02695279,0.99987537,-0.0012217305,0.0032070426,-0.0015271631,-0.08932262,0.26694548,9.805961,2,1683969804.0222008
-0.008902958,0.02695279,0.99987537,0.0,0.001985312,0.0021380284,-0.08932262,0.26694548,9.805961,2,1683969804.042659
-0.008902958,0.02695279,0.99987537,0.0,0.001985312,0.0021380284,-0.08936182,0.26689604,9.805962,2,1683969804.0477924
-0.009878625,0.02786748,0.9974363,0.0,0.001985312,0.0021380284,-0.08936182,0.26689604,9.805962,2,1683969804.058052
-0.009878625,0.02786748,0.9974363,0.002443461,-0.00045814895,-0.00030543262,-0.08936182,0.26689604,9.805962,2,1683969804.0837002
-0.007927292,0.02695279,0.99938756,0.002443461,-0.00045814895,-0.00030543262,-0.08936182,0.26689604,9.805962,2,1683969804.0888338
-0.007927292,0.02695279,0.99938756,0.002443461,-0.00045814895,-0.00030543262,-0.08940612,0.26689386,9.805962,2,1683969804.09393
-0.008902958,0.025977125,0.99938756,0.002443461,-0.00045814895,-0.00030543262,-0.08940612,0.26689386,9.805962,2,1683969804.1144443
-0.008902958,0.025977125,0.99938756,0.0,0.00076358154,-0.0015271631,-0.08940612,0.26689386,9.805962,2,1683969804.1247113
-0.008902958,0.025977125,0.99938756,0.0,0.00076358154,-0.0015271631,-0.089226924,0.26690736,9.805963,2,1683969804.1298456
-0.008902958,0.025977125,0.99938756,0.0012217305,-0.0016798794,-0.00030543262,-0.089226924,0.26690736,9.805963,2,1683969804.1554837
-0.008902958,0.025977125,0.99938756,0.0012217305,-0.0016798794,-0.00030543262,-0.08918727,0.26689547,9.8059635,2,1683969804.1605766
-0.009390792,0.025489293,0.99938756,0.0012217305,-0.0016798794,-0.00030543262,-0.08918727,0.26689547,9.8059635,2,1683969804.165709
-0.0069516255,0.025977125,0.9989607,0.0012217305,-0.0016798794,-0.00030543262,-0.08918727,0.26689547,9.8059635,2,1683969804.17598
-0.0069516255,0.025977125,0.9989607,0.0012217305,-0.0016798794,-0.00030543262,-0.08907205,0.26689783,9.805964,2,1683969804.1811118
-0.0069516255,0.025977125,0.9989607,-0.0012217305,0.00076358154,0.0009162979,-0.08907205,0.26689783,9.805964,2,1683969804.1913562
-0.0069516255,0.025977125,0.9989607,-0.0012217305,0.00076358154,0.0009162979,-0.08896819,0.2668181,9.805967,2,1683969804.2218592
-0.0069516255,0.025977125,0.9989607,0.0,0.00076358154,0.0021380284,-0.08896819,0.2668181,9.805967,2,1683969804.2320127
-0.0074394583,0.025001459,0.9994486,0.0,0.00076358154,0.0021380284,-0.08896819,0.2668181,9.805967,2,1683969804.2370908
-0.008902958,0.02646496,0.99938756,0.0,0.00076358154,0.0021380284,-0.08896819,0.2668181,9.805967,2,1683969804.2523232
-0.008902958,0.02646496,0.99938756,0.0,-0.0016798794,0.0021380284,-0.08896819,0.2668181,9.805967,2,1683969804.2675526
-0.008415125,0.024025792,0.9994486,0.0,-0.0016798794,0.0021380284,-0.08896819,0.2668181,9.805967,2,1683969804.2726321
-0.008415125,0.024025792,0.9994486,0.0,-0.0016798794,0.0021380284,-0.08873367,0.26619038,9.805986,2,1683969804.2878635
-0.008415125,0.024025792,0.9994486,0.0012217305,-0.00045814895,0.0009162979,-0.08873367,0.26619038,9.805986,2,1683969804.2929463
-0.008415125,0.025489293,0.9988997,0.0012217305,-0.00045814895,0.0009162979,-0.08873367,0.26619038,9.805986,2,1683969804.3081844
-0.008415125,0.025489293,0.9988997,0.0012217305,-0.00045814895,0.0009162979,-0.08866647,0.26614553,9.805988,2,1683969804.3132646
-0.008415125,0.025489293,0.9988997,-0.0012217305,-0.0018325958,-0.00030543262,-0.08866647,0.26614553,9.805988,2,1683969804.3335772
-0.008415125,0.025001459,0.99938756,-0.0012217305,-0.0018325958,-0.00030543262,-0.08866647,0.26614553,9.805988,2,1683969804.338653
-0.008415125,0.025001459,0.99938756,-0.0012217305,-0.0018325958,-0.00030543262,-0.088487014,0.26617402,9.805989,2,1683969804.3488035
-0.009878625,0.027440626,0.9984119,-0.0012217305,-0.0018325958,-0.00030543262,-0.088487014,0.26617402,9.805989,2,1683969804.3691137
-0.009878625,0.027440626,0.9984119,-0.0012217305,-0.0018325958,-0.00030543262,-0.08846844,0.26610595,9.805991,2,1683969804.3894186
-0.009878625,0.027440626,0.9984119,-0.0012217305,0.004428773,0.0009162979,-0.08846844,0.26610595,9.805991,2,1683969804.3944929
-0.009878625,0.027440626,0.9984119,0.002443461,-0.00045814895,-0.00030543262,-0.08846844,0.26610595,9.805991,2,1683969804.3995743
-0.009451771,0.024513626,1.0003633,0.002443461,-0.00045814895,-0.00030543262,-0.08846844,0.26610595,9.805991,2,1683969804.4046612
-0.009451771,0.024513626,1.0003633,0.002443461,-0.00045814895,-0.00030543262,-0.08856736,0.26607764,9.805991,2,1683969804.4198954
-0.009390792,0.02646496,0.99987537,0.002443461,-0.00045814895,-0.00030543262,-0.08856736,0.26607764,9.805991,2,1683969804.4503522
-0.009390792,0.02646496,0.99987537,0.002443461,-0.00045814895,-0.00030543262,-0.08860471,0.26627555,9.805985,2,1683969804.4554312
-0.009390792,0.02646496,0.99987537,0.0012217305,-0.00045814895,-0.00030543262,-0.08860471,0.26627555,9.805985,2,1683969804.4655893
-0.009390792,0.02646496,0.99987537,0.0013744468,0.0018325958,0.0009162979,-0.08860471,0.26627555,9.805985,2,1683969804.4706783
-0.009390792,0.02695279,0.9988997,0.0013744468,0.0018325958,0.0009162979,-0.08860471,0.26627555,9.805985,2,1683969804.4859154
-0.009390792,0.02695279,0.9988997,0.0013744468,0.0018325958,0.0009162979,-0.08861336,0.26645246,9.805981,2,1683969804.4960647
-0.009390792,0.02695279,0.9988997,-0.0010690142,-0.001985312,-0.00030543262,-0.08861336,0.26645246,9.805981,2,1683969804.5214648
-0.009390792,0.02695279,0.9988997,-0.0010690142,-0.001985312,-0.00030543262,-0.08887741,0.26651785,9.805976,2,1683969804.5265422
-0.009390792,0.02695279,0.9988997,-0.0010690142,-0.001985312,-0.00030543262,-0.08845528,0.26638585,9.805984,2,1683969804.546844
-0.0074394583,0.025001459,0.9999364,-0.0010690142,-0.001985312,-0.00030543262,-0.08845528,0.26638585,9.805984,2,1683969804.5519233
-0.0074394583,0.025001459,0.9999364,-0.0010690142,0.004276057,-0.00030543262,-0.08845528,0.26638585,9.805984,2,1683969804.567125
-0.0074394583,0.025489293,0.9974972,-0.0010690142,0.004276057,-0.00030543262,-0.08845528,0.26638585,9.805984,2,1683969804.5823634
-0.0074394583,0.025489293,0.9974972,-0.0010690142,-0.00061086525,0.0009162979,-0.08845528,0.26638585,9.805984,2,1683969804.5925107
-0.0074394583,0.025489293,0.9974972,-0.0010690142,-0.00061086525,0.0009162979,-0.08862257,0.26625103,9.805986,2,1683969804.597591
-0.0074394583,0.025489293,0.9974972,0.00015271631,-0.00061086525,-0.00030543262,-0.08862257,0.26625103,9.805986,2,1683969804.6178977
-0.008902958,0.02646496,0.9989607,0.00015271631,-0.00061086525,-0.00030543262,-0.08862257,0.26625103,9.805986,2,1683969804.6229753
-0.008902958,0.02646496,0.9989607,0.00015271631,-0.00061086525,-0.00030543262,-0.08862729,0.26619488,9.805987,2,1683969804.628052
-0.008902958,0.025001459,0.9974972,0.00015271631,-0.00061086525,-0.00030543262,-0.08862729,0.26619488,9.805987,2,1683969804.6534393
-0.008902958,0.025001459,0.9974972,0.00015271631,-0.00061086525,-0.00030543262,-0.088576406,0.26617852,9.805988,2,1683969804.6585183
-0.008902958,0.025001459,0.9974972,0.0013744468,0.0018325958,-0.00030543262,-0.088576406,0.26617852,9.805988,2,1683969804.6737533
-0.009878625,0.02786748,0.9965216,0.0013744468,0.0018325958,-0.00030543262,-0.088576406,0.26617852,9.805988,2,1683969804.6788316
-0.009878625,0.02786748,0.9965216,0.00015271631,0.00061086525,0.0009162979,-0.088576406,0.26617852,9.805988,2,1683969804.6941018
-0.009878625,0.02786748,0.9965216,0.00015271631,0.00061086525,0.0009162979,-0.0885519,0.2661778,9.805988,2,1683969804.699192
-0.009878625,0.02786748,0.9965216,0.00015271631,0.00061086525,0.0009162979,-0.088627346,0.26610222,9.80599,2,1683969804.71445
-0.008415125,0.02792846,0.9994486,0.00015271631,0.00061086525,0.0009162979,-0.088627346,0.26610222,9.80599,2,1683969804.7246978
-0.008415125,0.02792846,0.9994486,-0.0010690142,-0.004428773,-0.00030543262,-0.088627346,0.26610222,9.80599,2,1683969804.7400694
-0.007927292,0.025489293,0.99847287,-0.0010690142,-0.004428773,-0.00030543262,-0.088627346,0.26610222,9.80599,2,1683969804.755442
-0.007927292,0.025489293,0.99847287,-0.0010690142,-0.004428773,-0.00030543262,-0.08851956,0.26610065,9.805991,2,1683969804.7605433
-0.007927292,0.025489293,0.99847287,-0.0010690142,0.0018325958,-0.0015271631,-0.08851956,0.26610065,9.805991,2,1683969804.765675
-0.009451771,0.02695279,0.99987537,-0.0010690142,0.0018325958,-0.0015271631,-0.08851956,0.26610065,9.805991,2,1683969804.8015203
-0.009451771,0.02695279,0.99987537,0.0025961774,0.0018325958,-0.0015271631,-0.08851956,0.26610065,9.805991,2,1683969804.8066542
-0.009451771,0.02695279,0.99987537,0.0025961774,0.0018325958,-0.0015271631,-0.08860242,0.2661095,9.80599,2,1683969804.8117893
-0.009451771,0.02695279,0.99987537,0.0013744468,-0.0018325958,0.0009162979,-0.08860242,0.2661095,9.80599,2,1683969804.8169196
-0.009451771,0.02695279,0.99987537,0.0013744468,-0.0018325958,0.0009162979,-0.08808849,0.26597464,9.805998,2,1683969804.827189
-0.007927292,0.027440626,0.9988997,0.0013744468,-0.0018325958,0.0009162979,-0.08808849,0.26597464,9.805998,2,1683969804.837449
-0.007927292,0.027440626,0.9988997,0.00015271631,-0.00061086525,0.0009162979,-0.08808849,0.26597464,9.805998,2,1683969804.8733559
-0.007927292,0.027440626,0.9988997,0.00015271631,-0.00061086525,0.0009162979,-0.08802704,0.2661456,9.805994,2,1683969804.8784854
-0.0074394583,0.02646496,0.9970094,0.00015271631,-0.00061086525,0.0009162979,-0.08802704,0.2661456,9.805994,2,1683969804.8836176
-0.0074394583,0.02646496,0.9970094,0.00015271631,-0.00061086525,-0.00030543262,-0.08802704,0.2661456,9.805994,2,1683969804.8990016
-0.0074394583,0.02646496,0.9970094,0.00015271631,-0.00061086525,-0.00030543262,-0.08781619,0.26614943,9.805996,2,1683969804.9041312
-0.0064637917,0.024513626,0.9999364,0.00015271631,-0.00061086525,-0.00030543262,-0.08781619,0.26614943,9.805996,2,1683969804.9143913
-0.0064637917,0.024513626,0.9999364,0.00015271631,-0.00061086525,-0.00030543262,-0.0877017,0.26608235,9.805999,2,1683969804.9297812
-0.009451771,0.027440626,1.0008512,0.00015271631,-0.00061086525,-0.00030543262,-0.0877017,0.26608235,9.805999,2,1683969804.9400415
-0.009451771,0.027440626,1.0008512,0.00015271631,-0.00061086525,0.0021380284,-0.0877017,0.26608235,9.805999,2,1683969804.9553626
-0.0069516255,0.025489293,0.9989607,0.00015271631,-0.00061086525,0.0021380284,-0.0877017,0.26608235,9.805999,2,1683969804.9758763
-0.0069516255,0.025489293,0.9989607,0.00015271631,-0.0018325958,0.0009162979,-0.0877017,0.26608235,9.805999,2,1683969804.9810061
-0.0069516255,0.025489293,0.9989607,0.00015271631,-0.0018325958,0.0009162979,-0.08760085,0.26607433,9.806001,2,1683969804.9861364
-0.009390792,0.025977125,0.9960337,0.00015271631,-0.0018325958,0.0009162979,-0.08760085,0.26607433,9.806001,2,1683969805.0117538
-0.009390792,0.025977125,0.9960337,-0.0010690142,0.00061086525,0.0009162979,-0.08760085,0.26607433,9.806001,2,1683969805.0168903
-0.009390792,0.025977125,0.9960337,-0.0010690142,0.00061086525,0.0009162979,-0.087443106,0.26604408,9.806002,2,1683969805.0271451
-0.009878625,0.025977125,0.9984119,-0.0010690142,0.00061086525,0.0009162979,-0.087443106,0.26604408,9.806002,2,1683969805.0323017
-0.009878625,0.025977125,0.9984119,0.0013744468,0.0030543262,0.0009162979,-0.087443106,0.26604408,9.806002,2,1683969805.0424976
-0.009878625,0.025977125,0.9984119,0.0013744468,0.0030543262,0.0009162979,-0.08760691,0.26604953,9.806001,2,1683969805.0476222
-0.009878625,0.025977125,0.9984119,0.00015271631,0.0018325958,-0.0015271631,-0.08806722,0.26459166,9.806036,2,1683969805.0732894
-0.009878625,0.02646496,0.9979241,0.0013744468,0.0030543262,0.0021380284,-0.08806722,0.26459166,9.806036,2,1683969805.0784621
-0.007927292,0.02646496,0.9974972,-0.0010690142,0.0030543262,0.0021380284,-0.08812509,0.26460615,9.806035,2,1683969805.0836272
-0.008415125,0.02646496,0.9960337,-0.0010690142,0.00061086525,-0.0015271631,-0.08805662,0.26449215,9.806039,2,1683969805.0887995
-0.0074394583,0.025977125,0.99847287,-0.0010690142,0.0018325958,-0.00030543262,-0.08801708,0.26435417,9.806043,2,1683969805.093936
-0.0074394583,0.025977125,0.99847287,-0.0010690142,0.0018325958,-0.00030543262,-0.08801385,0.26435715,9.806043,2,1683969805.119593
-0.007927292,0.02646496,0.99987537,-0.0010690142,0.0018325958,-0.00030543262,-0.08801385,0.26435715,9.806043,2,1683969805.124721
-0.007927292,0.02646496,0.99987537,-0.0010690142,0.00061086525,-0.00030543262,-0.08801385,0.26435715,9.806043,2,1683969805.12982
-0.007927292,0.02646496,0.99987537,-0.0010690142,-0.0018325958,0.0021380284,-0.08801385,0.26435715,9.806043,2,1683969805.145087
-0.008902958,0.025001459,0.99938756,-0.0010690142,-0.0018325958,0.0021380284,-0.08801385,0.26435715,9.806043,2,1683969805.1502154
-0.008902958,0.025001459,0.99938756,-0.0010690142,-0.0018325958,0.0021380284,-0.08799339,0.2643311,9.806044,2,1683969805.1706629
-0.008902958,0.025001459,0.99938756,-0.0010690142,-0.0018325958,0.0021380284,-0.08787538,0.26426232,9.8060465,2,1683969805.1860456
-0.008902958,0.025001459,0.99938756,-0.0022907446,0.0018325958,-0.00030543262,-0.08787538,0.26426232,9.8060465,2,1683969805.1963165
-0.008902958,0.024513626,0.99847287,-0.0022907446,0.0018325958,-0.00030543262,-0.08787538,0.26426232,9.8060465,2,1683969805.206591
-0.009390792,0.027379647,0.9960337,-0.0022907446,0.0018325958,-0.00030543262,-0.08787538,0.26426232,9.8060465,2,1683969805.2117186
-0.009390792,0.027379647,0.9960337,-0.0022907446,0.0018325958,-0.00030543262,-0.08795316,0.2642786,9.806046,2,1683969805.2168481
-0.009390792,0.027379647,0.9960337,-0.0035124752,0.00290161,-0.0015271631,-0.08795316,0.2642786,9.806046,2,1683969805.2372413
-0.009390792,0.028355313,0.9979241,-0.0035124752,0.00290161,-0.0015271631,-0.08795316,0.2642786,9.806046,2,1683969805.2628245
-0.009390792,0.028355313,0.9979241,0.00015271631,0.0030543262,0.0021380284,-0.08795316,0.2642786,9.806046,2,1683969805.2679555
-0.009390792,0.028355313,0.9979241,0.00015271631,0.0030543262,0.0021380284,-0.08811405,0.26359326,9.806063,2,1683969805.2730916
-0.009390792,0.028355313,0.9979241,-0.0010690142,-0.00076358154,-0.0015271631,-0.08811405,0.26359326,9.806063,2,1683969805.2884455
-0.009390792,0.028355313,0.9979241,-0.0010690142,-0.00076358154,-0.0015271631,-0.088447385,0.26362556,9.806059,2,1683969805.293533
-0.00798827,0.02792846,1.0018268,-0.0010690142,-0.00076358154,-0.0015271631,-0.088447385,0.26362556,9.806059,2,1683969805.298664
-0.008963938,0.02695279,1.0018268,-0.0010690142,-0.00076358154,-0.0015271631,-0.088447385,0.26362556,9.806059,2,1683969805.3396235
-0.008963938,0.02695279,1.0018268,-0.0010690142,-0.00076358154,-0.0015271631,-0.08849195,0.2635011,9.806062,2,1683969805.3447516
-0.007927292,0.02646496,0.9974363,-0.0010690142,-0.00076358154,-0.0015271631,-0.08849195,0.2635011,9.806062,2,1683969805.3549612
-0.007927292,0.02646496,0.9974363,-0.0010690142,-0.00076358154,-0.0015271631,-0.08829657,0.26330826,9.806068,2,1683969805.3600602
-0.007927292,0.02646496,0.9974363,0.00015271631,-0.00061086525,-0.0027488936,-0.08829657,0.26330826,9.806068,2,1683969805.370319
-0.007927292,0.02646496,0.9974363,0.00015271631,-0.00061086525,-0.0027488936,-0.088435106,0.26310417,9.806073,2,1683969805.3907971
-0.007927292,0.02646496,0.9974363,-0.0022907446,0.0018325958,-0.00030543262,-0.088435106,0.26310417,9.806073,2,1683969805.4010615
-0.006524771,0.025977125,1.0004243,-0.0022907446,0.0018325958,-0.00030543262,-0.088435106,0.26310417,9.806073,2,1683969805.4061913
-0.006524771,0.025977125,1.0004243,-0.0022907446,0.0018325958,-0.00030543262,-0.08824973,0.26297584,9.806078,2,1683969805.431805
-0.006524771,0.025977125,1.0004243,0.00015271631,-0.0018325958,-0.00030543262,-0.08824973,0.26297584,9.806078,2,1683969805.4419901
-0.008902958,0.023537958,0.997985,0.00015271631,-0.0018325958,-0.00030543262,-0.08824973,0.26297584,9.806078,2,1683969805.452191
-0.008902958,0.023537958,0.997985,0.0013744468,-0.00061086525,-0.00030543262,-0.08824973,0.26297584,9.806078,2,1683969805.457316
-0.009451771,0.025489293,1.0018268,0.0013744468,-0.00061086525,-0.00030543262,-0.08824973,0.26297584,9.806078,2,1683969805.4624457
-0.009451771,0.025489293,1.0018268,0.0013744468,-0.00061086525,-0.00030543262,-0.088160686,0.2629114,9.806081,2,1683969805.477787
-0.009451771,0.025489293,1.0018268,0.0013744468,0.00061086525,-0.00030543262,-0.088160686,0.2629114,9.806081,2,1683969805.5034704
-0.009451771,0.025489293,1.0018268,0.0013744468,0.00061086525,-0.00030543262,-0.0882161,0.26275253,9.806085,2,1683969805.5086029
-0.009451771,0.025489293,1.0018268,0.00015271631,-0.0030543262,0.0033597588,-0.0882161,0.26275253,9.806085,2,1683969805.5239968
-0.011342125,0.025001459,0.99987537,0.00015271631,-0.0030543262,0.0033597588,-0.0882161,0.26275253,9.806085,2,1683969805.5342457
-0.011342125,0.025001459,0.99987537,0.00015271631,-0.0030543262,0.0033597588,-0.0878212,0.2626978,9.806089,2,1683969805.5444753
-0.011342125,0.025001459,0.99987537,-0.0022907446,-0.00061086525,0.0021380284,-0.0878212,0.2626978,9.806089,2,1683969805.5547433
-0.008415125,0.02646496,0.9965216,-0.0022907446,-0.00061086525,0.0021380284,-0.0878212,0.2626978,9.806089,2,1683969805.559871
-0.008415125,0.02646496,0.9965216,-0.0022907446,-0.00061086525,0.0021380284,-0.08769789,0.26259592,9.806093,2,1683969805.565004
-0.010366458,0.025489293,0.9984119,-0.0022907446,-0.00061086525,0.0021380284,-0.08769789,0.26259592,9.806093,2,1683969805.6008322
-0.010366458,0.025489293,0.9984119,-0.0022907446,-0.00061086525,0.0021380284,-0.087649785,0.26252925,9.806096,2,1683969805.6111088
-0.010366458,0.025489293,0.9984119,-0.0022907446,0.0018325958,0.0009162979,-0.087649785,0.26252925,9.806096,2,1683969805.6162379
-0.010366458,0.025489293,0.9984119,-0.0010690142,0.0018325958,0.0009162979,-0.087649785,0.26252925,9.806096,2,1683969805.6316276
-0.007927292,0.027440626,0.99938756,-0.0010690142,0.0018325958,0.0009162979,-0.087649785,0.26252925,9.806096,2,1683969805.64702
-0.007927292,0.027440626,0.99938756,-0.0010690142,0.0018325958,0.0009162979,-0.087776944,0.26246956,9.806096,2,1683969805.652146
-0.007927292,0.025977125,0.9974363,-0.0010690142,0.0018325958,0.0009162979,-0.087776944,0.26246956,9.806096,2,1683969805.6675167
-0.007927292,0.025977125,0.9974363,-0.0010690142,0.0018325958,0.0009162979,-0.08769469,0.26250032,9.806096,2,1683969805.6726398
-0.007927292,0.025977125,0.9974363,0.00015271631,0.0018325958,0.0009162979,-0.08769469,0.26250032,9.806096,2,1683969805.6777484
-0.007927292,0.025977125,0.9974363,0.00015271631,0.0018325958,0.0021380284,-0.08769469,0.26250032,9.806096,2,1683969805.6982384
-0.008476105,0.02792846,0.99987537,0.00015271631,0.0018325958,0.0021380284,-0.08769469,0.26250032,9.806096,2,1683969805.7084615
-0.008476105,0.02792846,0.99987537,0.00015271631,0.0018325958,0.0021380284,-0.08771674,0.26254833,9.806094,2,1683969805.7187266
-0.0059759584,0.02695279,0.99987537,0.00015271631,0.0018325958,0.0021380284,-0.08771674,0.26254833,9.806094,2,1683969805.7340703
-0.0059759584,0.02695279,0.99987537,0.00015271631,0.0018325958,0.0021380284,-0.087631464,0.262568,9.806094,2,1683969805.7545469
-0.0059759584,0.02695279,0.99987537,0.00015271631,-0.00061086525,0.0009162979,-0.087631464,0.262568,9.806094,2,1683969805.7596757
-0.0064637917,0.02695279,0.9984119,0.00015271631,-0.00061086525,0.0009162979,-0.087631464,0.262568,9.806094,2,1683969805.7801933
-0.0064637917,0.02695279,0.9984119,0.00015271631,-0.00061086525,0.0009162979,-0.08766222,0.26262295,9.806092,2,1683969805.7853222
-0.0064637917,0.02695279,0.9984119,0.00015271631,-0.00061086525,0.0009162979,-0.08633454,0.26272926,9.806102,2,1683969805.8007095
-0.007927292,0.025489293,0.99847287,0.00015271631,-0.00061086525,0.0009162979,-0.08633454,0.26272926,9.806102,2,1683969805.8109736
-0.007927292,0.025489293,0.99847287,0.0013744468,-0.005497787,0.0009162979,-0.08633454,0.26272926,9.806102,2,1683969805.826356
-0.007927292,0.025489293,0.99847287,0.0013744468,-0.005497787,0.0009162979,-0.08616447,0.26272082,9.806104,2,1683969805.836608
-0.008415125,0.02646496,0.9984119,0.0013744468,-0.005497787,0.0009162979,-0.08616447,0.26272082,9.806104,2,1683969805.8468645
-0.008415125,0.02646496,0.9984119,0.00015271631,-0.0018325958,0.0021380284,-0.08616447,0.26272082,9.806104,2,1683969805.8570893
-0.008415125,0.02646496,0.9984119,0.00015271631,-0.0018325958,0.0009162979,-0.08616447,0.26272082,9.806104,2,1683969805.877519
-0.008415125,0.02646496,0.9984119,0.00015271631,-0.0018325958,0.0009162979,-0.086041965,0.26265565,9.806107,2,1683969805.8826478
-0.008476105,0.027440626,1.001339,0.00015271631,-0.0018325958,0.0009162979,-0.086041965,0.26265565,9.806107,2,1683969805.8929036
-0.008476105,0.027440626,1.001339,-0.0010690142,-0.00061086525,0.0009162979,-0.086041965,0.26265565,9.806107,2,1683969805.9185095
-0.009939604,0.02792846,1.0008512,-0.0010690142,-0.00061086525,0.0009162979,-0.086041965,0.26265565,9.806107,2,1683969805.9236393
-0.009939604,0.02792846,1.0008512,-0.0010690142,-0.00061086525,0.0009162979,-0.08593094,0.26266813,9.806107,2,1683969805.9287689
-0.009939604,0.02792846,1.0008512,-0.0010690142,-0.00061086525,0.0009162979,-0.08596188,0.26270747,9.806105,2,1683969805.9543014
-0.00798827,0.02646496,1.0003633,-0.0010690142,-0.00061086525,0.0009162979,-0.08596188,0.26270747,9.806105,2,1683969805.9645135
-0.00798827,0.02646496,1.0003633,-0.0010690142,-0.004428773,0.0009162979,-0.08596188,0.26270747,9.806105,2,1683969805.9696407
-0.008415125,0.025001459,0.99847287,-0.0010690142,-0.004428773,0.0009162979,-0.08596188,0.26270747,9.806105,2,1683969805.9850278
-0.008415125,0.025001459,0.99847287,0.0025961774,0.00061086525,-0.00030543262,-0.08596188,0.26270747,9.806105,2,1683969805.9952521
-0.008415125,0.025001459,0.99847287,0.0025961774,0.00061086525,-0.00030543262,-0.08583234,0.2626953,9.8061075,2,1683969806.0003853
-0.008415125,0.025001459,0.99847287,0.00015271631,0.00061086525,-0.0027488936,-0.08583234,0.2626953,9.8061075,2,1683969806.0311534
-0.008415125,0.025001459,0.99847287,0.00015271631,0.00061086525,-0.0027488936,-0.08583413,0.2628298,9.806104,2,1683969806.036279
-0.008415125,0.02792846,0.9988997,0.00015271631,0.00061086525,-0.0027488936,-0.08583413,0.2628298,9.806104,2,1683969806.0414138
-0.008415125,0.02792846,0.9988997,0.0025961774,-0.005497787,-0.0015271631,-0.08583413,0.2628298,9.806104,2,1683969806.0567987
-0.008415125,0.02792846,0.9988997,0.0025961774,-0.005497787,-0.0015271631,-0.08600764,0.26277477,9.806104,2,1683969806.067061
-0.008415125,0.02792846,0.9988997,0.00015271631,-0.00061086525,-0.00030543262,-0.08600764,0.26277477,9.806104,2,1683969806.0824225
-0.008415125,0.02792846,0.9988997,0.00015271631,-0.00061086525,-0.00030543262,-0.08565983,0.2625475,9.806112,2,1683969806.0926852
-0.0074394583,0.025489293,0.9994486,0.00015271631,-0.00061086525,-0.00030543262,-0.08565983,0.2625475,9.806112,2,1683969806.0978127
-0.0074394583,0.025489293,0.9994486,0.00015271631,-0.00061086525,-0.00030543262,-0.08562208,0.26262712,9.80611,2,1683969806.1183307
-0.0074394583,0.025489293,0.9994486,0.0025961774,-0.0030543262,0.0009162979,-0.08562208,0.26262712,9.80611,2,1683969806.1285834
-0.011829958,0.024513626,0.99987537,0.0025961774,-0.0030543262,0.0009162979,-0.08562208,0.26262712,9.80611,2,1683969806.133717
-0.011829958,0.024513626,0.99987537,0.0025961774,-0.0030543262,0.0009162979,-0.08551604,0.26265693,9.80611,2,1683969806.1439376
-0.008902958,0.02646496,0.9994486,0.0025961774,-0.0030543262,0.0009162979,-0.08551604,0.26265693,9.80611,2,1683969806.1490679
-0.008902958,0.02646496,0.9994486,0.00015271631,-0.00061086525,-0.0015271631,-0.08551604,0.26265693,9.80611,2,1683969806.1542037
-0.008902958,0.02646496,0.9994486,0.00015271631,-0.00061086525,-0.00030543262,-0.08551604,0.26265693,9.80611,2,1683969806.19004
-0.008902958,0.02646496,0.9994486,0.00015271631,-0.00061086525,-0.00030543262,-0.08551767,0.26264837,9.80611,2,1683969806.195187
-0.008415125,0.028355313,0.9989607,0.00015271631,-0.00061086525,-0.00030543262,-0.08551767,0.26264837,9.80611,2,1683969806.2053778
-0.008415125,0.028355313,0.9989607,0.00015271631,-0.00061086525,-0.00030543262,-0.08548463,0.26266745,9.80611,2,1683969806.2208312
-0.008476105,0.025977125,1.0003633,0.00015271631,-0.00061086525,-0.00030543262,-0.08548463,0.26266745,9.80611,2,1683969806.2310996
-0.008476105,0.025977125,1.0003633,0.00015271631,-0.0056505036,0.0009162979,-0.08548463,0.26266745,9.80611,2,1683969806.241364
-0.008476105,0.025977125,1.0003633,0.00015271631,0.0018325958,-0.00030543262,-0.08548463,0.26266745,9.80611,2,1683969806.2515895
-0.0069516255,0.025489293,0.9974972,0.00015271631,0.0018325958,-0.00030543262,-0.08548463,0.26266745,9.80611,2,1683969806.2721066
-0.0069516255,0.025489293,0.9974972,0.00015271631,0.0018325958,-0.00030543262,-0.085232146,0.26271456,9.806112,2,1683969806.2772496
-0.0069516255,0.025489293,0.9974972,0.00015271631,0.0018325958,-0.00030543262,-0.08523719,0.26275587,9.80611,2,1683969806.2926042
-0.0069516255,0.025489293,0.9974972,0.0013744468,-0.004428773,-0.0015271631,-0.08523719,0.26275587,9.80611,2,1683969806.2977343
-0.00798827,0.025489293,1.0004243,0.0013744468,-0.004428773,-0.0015271631,-0.08523719,0.26275587,9.80611,2,1683969806.302864
-0.007927292,0.02841629,0.9994486,0.0013744468,-0.004428773,-0.0015271631,-0.08523719,0.26275587,9.80611,2,1683969806.328469
-0.007927292,0.02841629,0.9994486,0.0013744468,-0.004428773,-0.0015271631,-0.08516883,0.2627867,9.80611,2,1683969806.3387253
-0.007927292,0.02841629,0.9994486,-0.0010690142,0.0018325958,-0.00030543262,-0.08516883,0.2627867,9.80611,2,1683969806.3489838
-0.007927292,0.02841629,0.9994486,-0.0035124752,-0.00076358154,0.0009162979,-0.08516883,0.2627867,9.80611,2,1683969806.3541198
-0.009878625,0.02695279,0.9988997,-0.0035124752,-0.00076358154,0.0009162979,-0.08516883,0.2627867,9.80611,2,1683969806.3643467
-0.009878625,0.02695279,0.9988997,-0.0035124752,-0.00076358154,0.0009162979,-0.085726626,0.26204893,9.806125,2,1683969806.3746195
-0.009878625,0.02695279,0.9988997,-0.0022907446,0.00061086525,0.0009162979,-0.085726626,0.26204893,9.806125,2,1683969806.3951356
-0.00798827,0.02646496,1.0008512,-0.0022907446,0.00061086525,0.0009162979,-0.085726626,0.26204893,9.806125,2,1683969806.405316
-0.00798827,0.02646496,1.0008512,-0.0022907446,0.00061086525,0.0009162979,-0.08579176,0.26202184,9.806126,2,1683969806.4104528
-0.00798827,0.02646496,1.0008512,-0.0022907446,0.00061086525,0.0009162979,-0.085818924,0.26197737,9.806126,2,1683969806.4258404
-0.008476105,0.02695279,1.0032902,-0.0022907446,0.00061086525,0.0009162979,-0.085818924,0.26197737,9.806126,2,1683969806.4360979
-0.008476105,0.02695279,1.0032902,-0.0022907446,0.00045814895,-0.00030543262,-0.085818924,0.26197737,9.806126,2,1683969806.4566143
-0.009939604,0.02695279,1.0018268,-0.0022907446,0.00045814895,-0.00030543262,-0.085818924,0.26197737,9.806126,2,1683969806.4617445
-0.009939604,0.02695279,1.0018268,-0.0022907446,0.00061086525,0.0009162979,-0.085818924,0.26197737,9.806126,2,1683969806.482265
-0.009939604,0.02695279,1.0018268,-0.0022907446,0.00061086525,0.0009162979,-0.08587306,0.26186085,9.8061285,2,1683969806.4873855
-0.006524771,0.02695279,1.0003633,-0.0022907446,0.00061086525,0.0009162979,-0.08587306,0.26186085,9.8061285,2,1683969806.5079083
-0.006524771,0.02695279,1.0003633,-0.0022907446,0.00061086525,0.0009162979,-0.08603829,0.26166308,9.806132,2,1683969806.518088
-0.006524771,0.02695279,1.0003633,-0.0047342055,-0.00076358154,0.0009162979,-0.08603829,0.26166308,9.806132,2,1683969806.523176
-0.006524771,0.02695279,1.0003633,-0.0022907446,-0.00061086525,0.0021380284,-0.08603829,0.26166308,9.806132,2,1683969806.5436962
-0.006524771,0.02695279,1.0003633,-0.0022907446,-0.00061086525,0.0021380284,-0.0861346,0.26137584,9.80614,2,1683969806.5488179
-0.0069516255,0.02695279,0.9970094,-0.0022907446,-0.00061086525,0.0021380284,-0.0861346,0.26137584,9.80614,2,1683969806.5642095
-0.008415125,0.02646496,0.9984119,-0.0022907446,-0.00061086525,0.0021380284,-0.0861346,0.26137584,9.80614,2,1683969806.5796027
-0.008415125,0.02646496,0.9984119,-0.0010690142,-0.0032070426,0.0009162979,-0.0861346,0.26137584,9.80614,2,1683969806.5898602
-0.008415125,0.02646496,0.9984119,-0.0010690142,-0.0032070426,0.0009162979,-0.08599072,0.2611255,9.806148,2,1683969806.600126
-0.00798827,0.02695279,1.0003633,-0.0010690142,-0.0032070426,0.0009162979,-0.08599072,0.2611255,9.806148,2,1683969806.605263
-0.00798827,0.02695279,1.0003633,-0.0035124752,0.00045814895,0.0009162979,-0.08599072,0.2611255,9.806148,2,1683969806.6104004
-0.00798827,0.02695279,1.0003633,-0.0035124752,0.00045814895,0.0009162979,-0.086224504,0.25894234,9.806204,2,1683969806.6462846
-0.0064637917,0.025977125,0.9965216,-0.0035124752,0.00045814895,0.0009162979,-0.086224504,0.25894234,9.806204,2,1683969806.6514018
-0.0064637917,0.025977125,0.9965216,-0.0047342055,0.00045814895,0.0009162979,-0.086224504,0.25894234,9.806204,2,1683969806.656538
-0.0074394583,0.025001459,0.99408233,-0.0047342055,0.00045814895,0.0009162979,-0.086224504,0.25894234,9.806204,2,1683969806.6719334
-0.0074394583,0.025001459,0.99408233,-0.0047342055,0.00045814895,0.0009162979,-0.08613342,0.25886595,9.806206,2,1683969806.6821895
-0.011342125,0.025001459,0.9950581,-0.0047342055,0.00045814895,0.0009162979,-0.08613342,0.25886595,9.806206,2,1683969806.7026172
-0.011342125,0.025001459,0.9950581,-0.0047342055,0.00045814895,0.0009162979,-0.08615809,0.2588492,9.806207,2,1683969806.7128756
-0.011342125,0.025001459,0.9950581,0.0025961774,0.004276057,-0.0015271631,-0.08615809,0.2588492,9.806207,2,1683969806.7180054
-0.011342125,0.025001459,0.9950581,-0.0010690142,0.00061086525,-0.00030543262,-0.08615809,0.2588492,9.806207,2,1683969806.7385254
-0.011342125,0.025001459,0.9950581,-0.0010690142,0.00061086525,-0.00030543262,-0.0863704,0.25890177,9.806203,2,1683969806.7436202
-0.011403104,0.025977125,1.0032902,-0.0010690142,0.00061086525,-0.00030543262,-0.0863704,0.25890177,9.806203,2,1683969806.7538824
-0.009939604,0.025489293,1.0042659,-0.0010690142,0.00061086525,-0.00030543262,-0.0863704,0.25890177,9.806203,2,1683969806.7692788
-0.009939604,0.025489293,1.0042659,-0.0010690142,-0.001985312,-0.00030543262,-0.0863704,0.25890177,9.806203,2,1683969806.7744107
-0.009939604,0.025489293,1.0042659,-0.0010690142,-0.001985312,-0.00030543262,-0.08648538,0.2588766,9.806203,2,1683969806.7795384
-0.008415125,0.025001459,0.9965216,-0.0010690142,-0.001985312,-0.00030543262,-0.08648538,0.2588766,9.806203,2,1683969806.8154435
-0.008415125,0.025001459,0.9965216,-0.0010690142,-0.001985312,-0.00030543262,-0.08643307,0.2588097,9.806205,2,1683969806.8205314
-0.008415125,0.025001459,0.9965216,0.00015271631,-0.0018325958,-0.00030543262,-0.08643307,0.2588097,9.806205,2,1683969806.8307977
-0.008415125,0.025001459,0.9965216,0.00015271631,0.00061086525,-0.00030543262,-0.08643307,0.2588097,9.806205,2,1683969806.8410587
-0.009817646,0.023964813,0.98877716,0.00015271631,0.00061086525,-0.00030543262,-0.08643307,0.2588097,9.806205,2,1683969806.851282
-0.009817646,0.023964813,0.98877716,0.00015271631,0.00061086525,-0.00030543262,-0.0863672,0.25862408,9.8062105,2,1683969806.8615046
-0.009817646,0.023964813,0.98877716,0.0025961774,0.0030543262,-0.00030543262,-0.0863672,0.25862408,9.8062105,2,1683969806.882035
-0.009817646,0.023964813,0.98877716,0.0025961774,0.0030543262,-0.00030543262,-0.0863531,0.25882226,9.806205,2,1683969806.8922925
-0.0069516255,0.025977125,0.9989607,0.0025961774,0.0030543262,-0.00030543262,-0.0863531,0.25882226,9.806205,2,1683969806.8974233
-0.0069516255,0.025977125,0.9989607,0.0025961774,0.0030543262,-0.00030543262,-0.08546047,0.2610042,9.806155,2,1683969806.9076633
-0.008415125,0.028355313,0.9931067,0.0025961774,0.0030543262,-0.00030543262,-0.08546047,0.2610042,9.806155,2,1683969806.9127927
-0.008415125,0.028355313,0.9931067,0.0038179078,-0.00061086525,-0.0015271631,-0.08546047,0.2610042,9.806155,2,1683969806.9333103
-0.008415125,0.028355313,0.9931067,0.0038179078,-0.00061086525,-0.0015271631,-0.085276805,0.26098654,9.806157,2,1683969806.9384367
-0.0059759584,0.02646496,0.9994486,0.0038179078,-0.00061086525,-0.0015271631,-0.085276805,0.26098654,9.806157,2,1683969806.9435315
-0.005061271,0.02646496,1.0028024,0.0038179078,-0.00061086525,-0.0015271631,-0.085276805,0.26098654,9.806157,2,1683969806.969127
-0.005061271,0.02646496,1.0028024,0.00015271631,0.0018325958,0.0021380284,-0.085276805,0.26098654,9.806157,2,1683969806.974258
-0.005061271,0.02646496,1.0028024,0.00015271631,0.0018325958,0.0021380284,-0.085045196,0.2611565,9.806154,2,1683969806.9793537
-0.005061271,0.02646496,1.0028024,0.0025961774,-0.0018325958,0.0009162979,-0.085045196,0.2611565,9.806154,2,1683969806.9896152
-0.005061271,0.02646496,1.0028024,0.0025961774,-0.0018325958,0.0009162979,-0.08499977,0.26120797,9.806153,2,1683969807.0050044
-0.0060369377,0.02646496,1.0018268,0.0025961774,-0.0018325958,0.0009162979,-0.08499977,0.26120797,9.806153,2,1683969807.015203
-0.0060369377,0.02646496,1.0018268,0.0025961774,-0.0018325958,0.0009162979,-0.0848882,0.26122004,9.806154,2,1683969807.0305166
-0.0064637917,0.025001459,0.9955459,0.0025961774,-0.0018325958,0.0009162979,-0.0848882,0.26122004,9.806154,2,1683969807.0356464
-0.0064637917,0.025001459,0.9955459,0.0013744468,0.00061086525,-0.0027488936,-0.0848882,0.26122004,9.806154,2,1683969807.0407784
-0.008415125,0.025001459,0.99847287,0.0013744468,0.00061086525,-0.0027488936,-0.0848882,0.26122004,9.806154,2,1683969807.0612586
-0.008415125,0.025001459,0.99847287,0.0013744468,0.00061086525,-0.0027488936,-0.084753186,0.26118922,9.806156,2,1683969807.0663924
-0.008415125,0.025001459,0.99847287,0.0038179078,-0.0018325958,-0.0015271631,-0.084753186,0.26118922,9.806156,2,1683969807.076644
-0.010854292,0.02646496,0.99938756,0.0038179078,-0.0018325958,-0.0015271631,-0.084753186,0.26118922,9.806156,2,1683969807.1074543
-0.010854292,0.02646496,0.99938756,0.0038179078,-0.0018325958,-0.0015271631,-0.084764995,0.26134184,9.806152,2,1683969807.1125922
-0.010854292,0.02646496,0.99938756,0.0013744468,-0.004428773,-0.0015271631,-0.084764995,0.26134184,9.806152,2,1683969807.1177258
-0.011890938,0.025977125,1.0018268,0.0013744468,-0.004428773,-0.0015271631,-0.084764995,0.26134184,9.806152,2,1683969807.127983
-0.011890938,0.025977125,1.0018268,0.0013744468,-0.004428773,-0.0015271631,-0.08450749,0.26141334,9.806153,2,1683969807.138247
-0.011890938,0.025977125,1.0018268,-0.0010690142,-0.00076358154,-0.0015271631,-0.08450749,0.26141334,9.806153,2,1683969807.1484725
-0.012805625,0.024513626,0.9984119,-0.0010690142,-0.00076358154,-0.0015271631,-0.08450749,0.26141334,9.806153,2,1683969807.1587362
-0.012805625,0.024513626,0.9984119,0.00015271631,-0.004428773,0.0009162979,-0.08450749,0.26141334,9.806153,2,1683969807.16899
-0.012805625,0.024513626,0.9984119,0.0013744468,0.00061086525,0.0009162979,-0.08450749,0.26141334,9.806153,2,1683969807.19457
-0.012805625,0.024513626,0.9984119,0.0013744468,0.00061086525,0.0009162979,-0.08460731,0.2618463,9.806141,2,1683969807.2048004
-0.0075004376,0.02646496,1.0008512,0.0013744468,0.00061086525,0.0009162979,-0.08460731,0.2618463,9.806141,2,1683969807.220185
-0.008415125,0.02695279,0.9970094,0.0013744468,0.00061086525,0.0009162979,-0.08460731,0.2618463,9.806141,2,1683969807.2304463
-0.008415125,0.02695279,0.9970094,0.0013744468,0.0018325958,0.0021380284,-0.08460731,0.2618463,9.806141,2,1683969807.235571
-0.008415125,0.02695279,0.9970094,0.0013744468,0.0018325958,0.0021380284,-0.08491873,0.26186156,9.806137,2,1683969807.2406936
-0.0035367915,0.025977125,0.9955459,0.0013744468,0.0018325958,0.0021380284,-0.08491873,0.26186156,9.806137,2,1683969807.2612495
-0.0035367915,0.025977125,0.9955459,-0.0010690142,-0.0018325958,0.0009162979,-0.08491873,0.26186156,9.806137,2,1683969807.2766273
-0.0035367915,0.025977125,0.9955459,-0.0010690142,-0.0018325958,0.0009162979,-0.084890425,0.26181686,9.806139,2,1683969807.2868893
-0.004024625,0.025489293,0.99847287,-0.0010690142,-0.0018325958,0.0009162979,-0.084890425,0.26181686,9.806139,2,1683969807.3176036
-0.004024625,0.025489293,0.99847287,-0.0010690142,-0.0018325958,0.0009162979,-0.08475019,0.26168194,9.806143,2,1683969807.322732
-0.004024625,0.025489293,0.99847287,0.00015271631,0.0018325958,-0.00030543262,-0.08475019,0.26168194,9.806143,2,1683969807.3278632
-0.004024625,0.025489293,0.99847287,0.0013744468,-0.0018325958,-0.0015271631,-0.08475019,0.26168194,9.806143,2,1683969807.3381279
-0.005549104,0.025489293,1.0023146,0.0013744468,-0.0018325958,-0.0015271631,-0.08475019,0.26168194,9.806143,2,1683969807.358579
-0.00798827,0.025977125,1.0003633,0.0013744468,-0.0018325958,-0.0015271631,-0.08475019,0.26168194,9.806143,2,1683969807.3637066
-0.00798827,0.025977125,1.0003633,0.0013744468,-0.0018325958,-0.0015271631,-0.084682636,0.2617706,9.806142,2,1683969807.3739572
-0.00798827,0.025977125,1.0003633,-0.0010690142,-0.004428773,0.0021380284,-0.084682636,0.2617706,9.806142,2,1683969807.3842077
-0.009390792,0.02646496,0.9974972,-0.0010690142,-0.004428773,0.0021380284,-0.084682636,0.2617706,9.806142,2,1683969807.4098296
-0.009390792,0.02646496,0.9974972,0.00015271631,0.0018325958,-0.00030543262,-0.084682636,0.2617706,9.806142,2,1683969807.414965
-0.009390792,0.02646496,0.9974972,0.00015271631,0.0018325958,-0.00030543262,-0.08453333,0.26173252,9.806144,2,1683969807.4303358
-0.009390792,0.02646496,0.9974972,0.0013744468,0.004276057,-0.00030543262,-0.08453333,0.26173252,9.806144,2,1683969807.450816
-0.0069516255,0.025489293,0.9999364,0.0013744468,0.004276057,-0.00030543262,-0.08453333,0.26173252,9.806144,2,1683969807.461069
-0.0069516255,0.025489293,0.9999364,0.0013744468,0.004276057,-0.00030543262,-0.084514916,0.26173654,9.806144,2,1683969807.4764173
-0.0069516255,0.025489293,0.9999364,0.0013744468,0.004276057,-0.00030543262,-0.08442876,0.2617329,9.806146,2,1683969807.4917686
-0.0069516255,0.025489293,0.9999364,0.00015271631,0.00061086525,-0.0015271631,-0.08442876,0.2617329,9.806146,2,1683969807.4968987
-0.007927292,0.025001459,1.0003633,0.00015271631,0.00061086525,-0.0015271631,-0.08442876,0.2617329,9.806146,2,1683969807.50717
-0.008415125,0.025489293,0.99847287,0.00015271631,0.00061086525,0.0021380284,-0.08418893,0.26162687,9.80615,2,1683969807.517475
-0.0075004376,0.027440626,1.001339,-0.0010690142,-0.00061086525,0.0009162979,-0.08418893,0.26162687,9.80615,2,1683969807.5226462
-0.0075004376,0.027440626,1.001339,0.0013744468,-0.00061086525,0.0009162979,-0.08404028,0.26145124,9.806155,2,1683969807.5278146
-0.009939604,0.02792846,1.001339,0.0038179078,-0.0030543262,0.0009162979,-0.08423134,0.26156622,9.806151,2,1683969807.5330505
-0.009939604,0.02792846,1.001339,0.00015271631,-0.0032070426,-0.0015271631,-0.08423134,0.26156622,9.806151,2,1683969807.5381763
-0.009939604,0.02792846,1.001339,0.00015271631,-0.0032070426,-0.0015271631,-0.08416768,0.2616888,9.806149,2,1683969807.5432718
-0.008902958,0.02646496,0.99987537,0.00015271631,-0.0032070426,-0.0015271631,-0.08416768,0.2616888,9.806149,2,1683969807.5484018
-0.008902958,0.02646496,0.99987537,0.00015271631,-0.0032070426,-0.0015271631,-0.08291238,0.2616205,9.806161,2,1683969807.5689173
-0.009878625,0.025001459,0.997985,0.00015271631,-0.0032070426,-0.0015271631,-0.08291238,0.2616205,9.806161,2,1683969807.5791862
-0.009878625,0.025001459,0.997985,0.0013744468,0.0018325958,-0.00030543262,-0.08291238,0.2616205,9.806161,2,1683969807.594571
-0.009878625,0.025001459,0.997985,0.0013744468,0.0018325958,-0.00030543262,-0.08290698,0.2615449,9.806163,2,1683969807.604834
-0.008902958,0.025977125,0.9994486,0.0013744468,0.0018325958,-0.00030543262,-0.08290698,0.2615449,9.806163,2,1683969807.615056
-0.008902958,0.025977125,0.9994486,-0.0010690142,-0.00076358154,-0.0015271631,-0.08290698,0.2615449,9.806163,2,1683969807.6201854
-0.005488125,0.025001459,1.0004243,-0.0010690142,-0.00076358154,-0.0015271631,-0.08290698,0.2615449,9.806163,2,1683969807.6458387
-0.005488125,0.025001459,1.0004243,-0.0010690142,-0.00076358154,-0.0015271631,-0.082928166,0.26140204,9.806167,2,1683969807.6509297
-0.0059759584,0.025977125,0.9994486,-0.0010690142,-0.00076358154,-0.0015271631,-0.082928166,0.26140204,9.806167,2,1683969807.6713994
-0.0059759584,0.025977125,0.9994486,-0.0010690142,-0.00076358154,-0.0015271631,-0.08280855,0.26143104,9.806167,2,1683969807.6919339
-0.0059759584,0.025977125,0.9994486,0.0013744468,0.0018325958,0.0009162979,-0.08280855,0.26143104,9.806167,2,1683969807.702182
-0.0059759584,0.025977125,0.9994486,0.0013744468,0.0018325958,0.0009162979,-0.082914636,0.26146257,9.806165,2,1683969807.727802
-0.0059759584,0.025977125,0.9994486,0.00015271631,0.0018325958,-0.00030543262,-0.082914636,0.26146257,9.806165,2,1683969807.7329316
-0.0074394583,0.025977125,0.99847287,0.00015271631,0.0018325958,-0.00030543262,-0.082914636,0.26146257,9.806165,2,1683969807.7380617
-0.007927292,0.025977125,0.9989607,0.00015271631,0.0018325958,-0.00030543262,-0.082914636,0.26146257,9.806165,2,1683969807.7534568
-0.007927292,0.025977125,0.9989607,0.00015271631,0.00061086525,-0.00030543262,-0.082914636,0.26146257,9.806165,2,1683969807.7585883
-0.007927292,0.025977125,0.9989607,0.00015271631,0.00061086525,-0.00030543262,-0.08279657,0.26126215,9.806171,2,1683969807.7739751
-0.007927292,0.025977125,0.9989607,0.00015271631,-0.0056505036,-0.0015271631,-0.08279657,0.26126215,9.806171,2,1683969807.7893193
-0.008415125,0.02646496,0.997985,0.00015271631,-0.0056505036,-0.0015271631,-0.08279657,0.26126215,9.806171,2,1683969807.7944522
-0.008415125,0.02646496,0.997985,0.00015271631,-0.0056505036,-0.0015271631,-0.08276814,0.26130936,9.80617,2,1683969807.7995832
-0.008415125,0.02646496,0.997985,0.00015271631,-0.0056505036,-0.0015271631,-0.08262261,0.26126128,9.806172,2,1683969807.8149722
-0.008415125,0.025977125,0.9970094,0.00015271631,-0.0056505036,-0.0015271631,-0.08262261,0.26126128,9.806172,2,1683969807.8559928
-0.008415125,0.025977125,0.9970094,0.00015271631,-0.0056505036,-0.0015271631,-0.08143295,0.2613346,9.80618,2,1683969807.861123
-0.008415125,0.025977125,0.9970094,-0.0022907446,0.00061086525,0.0009162979,-0.08143295,0.2613346,9.80618,2,1683969807.871344
-0.009390792,0.027379647,0.9955459,-0.0022907446,0.00061086525,0.0009162979,-0.08143295,0.2613346,9.80618,2,1683969807.881598
-0.009390792,0.027379647,0.9955459,0.0013744468,0.0030543262,0.0009162979,-0.08143295,0.2613346,9.80618,2,1683969807.9021115
-0.009390792,0.027379647,0.9955459,0.0013744468,0.0030543262,0.0009162979,-0.081444606,0.2612562,9.806183,2,1683969807.9071994
-0.0074394583,0.024025792,0.9989607,0.0013744468,0.0030543262,0.0009162979,-0.081444606,0.2612562,9.806183,2,1683969807.9123318
-0.0074394583,0.024025792,0.9989607,0.0013744468,0.0030543262,0.0009162979,-0.08155436,0.26124018,9.806182,2,1683969807.91746
-0.0074394583,0.024025792,0.9989607,0.00015271631,-0.00061086525,-0.0015271631,-0.08155436,0.26124018,9.806182,2,1683969807.9225976
-0.0074394583,0.024025792,0.9989607,-0.0022907446,-0.0018325958,0.0033597588,-0.08155436,0.26124018,9.806182,2,1683969807.958371
-0.0064637917,0.025489293,0.9999364,-0.0022907446,-0.0018325958,0.0033597588,-0.08155436,0.26124018,9.806182,2,1683969807.963497
-0.0064637917,0.025489293,0.9999364,-0.0022907446,-0.0018325958,0.0033597588,-0.08145367,0.26117292,9.806185,2,1683969807.968627
-0.0064637917,0.025489293,0.9999364,-0.0022907446,-0.00076358154,-0.00030543262,-0.08138621,0.2611437,9.806187,2,1683969807.9891963
-0.0064637917,0.025001459,0.9974972,-0.0022907446,-0.00076358154,-0.00030543262,-0.08138621,0.2611437,9.806187,2,1683969807.9892063
-0.008415125,0.02695279,0.99987537,0.00015271631,-0.0030543262,-0.00030543262,-0.08119656,0.2610019,9.806192,2,1683969807.9943564
-0.007927292,0.025001459,0.9989607,-0.0012217305,-0.00045814895,0.00076358154,-0.08120197,0.2609422,9.806193,2,1683969807.999576
-0.007927292,0.025001459,0.9989607,-0.0012217305,0.001985312,-0.0016798794,-0.08120197,0.2609422,9.806193,2,1683969808.0046928
-0.008415125,0.027440626,0.9994486,0.0,-0.00045814895,-0.00045814895,-0.0824538,0.26093763,9.806184,2,1683969808.0201988
-0.009390792,0.027440626,0.99847287,0.0,-0.00045814895,-0.00045814895,-0.0824538,0.26093763,9.806184,2,1683969808.0304587
-0.009390792,0.027440626,0.99847287,0.0,0.00076358154,0.001985312,-0.0824538,0.26093763,9.806184,2,1683969808.040718
-0.0074394583,0.025489293,0.9994486,-0.0012217305,0.00076358154,-0.0016798794,-0.08236861,0.26092893,9.806184,2,1683969808.0561574
-0.0064637917,0.02695279,0.9989607,0.002443461,0.00076358154,0.00076358154,-0.08245066,0.26085454,9.806185,2,1683969808.0613356
-0.0064637917,0.02695279,0.9989607,0.0012217305,0.00076358154,-0.0016798794,-0.08245066,0.26085454,9.806185,2,1683969808.0664608
-0.0064637917,0.025489293,0.99847287,0.0012217305,0.00076358154,-0.0016798794,-0.08245066,0.26085454,9.806185,2,1683969808.0715895
-0.0064637917,0.025489293,0.99847287,0.0012217305,0.00076358154,-0.0016798794,-0.08272928,0.2609147,9.806181,2,1683969808.076723
-0.0069516255,0.024513626,0.9999364,0.0012217305,0.00076358154,-0.0016798794,-0.08272928,0.2609147,9.806181,2,1683969808.0972388
-0.0069516255,0.024513626,0.9999364,0.0,0.00076358154,0.00076358154,-0.08272928,0.2609147,9.806181,2,1683969808.11262
-0.0069516255,0.024513626,0.9999364,0.0,0.00076358154,0.00076358154,-0.08274455,0.26077464,9.806185,2,1683969808.117756
-0.0069516255,0.024513626,0.9999364,-0.0012217305,0.00076358154,0.001985312,-0.08274455,0.26077464,9.806185,2,1683969808.1280134
-0.010366458,0.025977125,0.9984119,-0.0012217305,0.00076358154,0.001985312,-0.08274455,0.26077464,9.806185,2,1683969808.1433206
-0.009878625,0.025977125,0.9974972,-0.0012217305,0.00076358154,0.001985312,-0.08274455,0.26077464,9.806185,2,1683969808.1638398
-0.009878625,0.025977125,0.9974972,0.0012217305,-0.00045814895,-0.00045814895,-0.08274455,0.26077464,9.806185,2,1683969808.1740892
-0.009878625,0.025977125,0.9974972,0.0012217305,-0.00045814895,-0.00045814895,-0.08288107,0.26072612,9.806185,2,1683969808.1791832
-0.0069516255,0.025977125,0.9970094,0.0012217305,-0.00045814895,-0.00045814895,-0.08288107,0.26072612,9.806185,2,1683969808.2047875
-0.0069516255,0.025977125,0.9970094,0.0012217305,-0.00045814895,-0.00045814895,-0.08307908,0.26075476,9.806183,2,1683969808.2099226
-0.0069516255,0.025977125,0.9970094,-0.002443461,-0.0018325958,-0.00045814895,-0.08307908,0.26075476,9.806183,2,1683969808.215053
-0.010427438,0.02695279,0.99987537,-0.002443461,-0.0018325958,-0.00045814895,-0.08307908,0.26075476,9.806183,2,1683969808.240694
-0.010427438,0.02695279,0.99987537,-0.002443461,-0.0018325958,-0.00045814895,-0.08288351,0.26069108,9.806186,2,1683969808.2458284
-0.010427438,0.02695279,0.99987537,-0.0012217305,-0.00045814895,-0.00045814895,-0.08288351,0.26069108,9.806186,2,1683969808.2560909
-0.0064637917,0.025489293,0.99847287,-0.0012217305,-0.00045814895,-0.00045814895,-0.08288351,0.26069108,9.806186,2,1683969808.2766123
-0.0064637917,0.025489293,0.99847287,0.0,0.00076358154,-0.00045814895,-0.08288351,0.26069108,9.806186,2,1683969808.2817416
-0.0064637917,0.025489293,0.99847287,0.0,0.00076358154,-0.00045814895,-0.08269041,0.2606028,9.80619,2,1683969808.291997
-0.007927292,0.025489293,0.9989607,0.0,0.00076358154,-0.00045814895,-0.08269041,0.2606028,9.80619,2,1683969808.302259
-0.007927292,0.025489293,0.9989607,0.0,0.00076358154,-0.00045814895,-0.08256883,0.2605678,9.806191,2,1683969808.3073535
-0.007927292,0.025489293,0.9989607,0.0,-0.0016798794,0.00076358154,-0.08256883,0.2605678,9.806191,2,1683969808.3278215
-0.007927292,0.025489293,0.9989607,-0.0012217305,0.00076358154,0.001985312,-0.08256883,0.2605678,9.806191,2,1683969808.3329542
-0.0064637917,0.02646496,0.9974972,-0.0012217305,0.00076358154,0.001985312,-0.08256883,0.2605678,9.806191,2,1683969808.3585167
-0.0064637917,0.02646496,0.9974972,-0.0012217305,0.00076358154,0.001985312,-0.08249883,0.26055655,9.806192,2,1683969808.3636537
-0.0064637917,0.02646496,0.9974972,0.0,-0.0016798794,0.00076358154,-0.08249883,0.26055655,9.806192,2,1683969808.368785
-0.0064637917,0.02646496,0.9974972,0.0,-0.0016798794,0.00076358154,-0.08225755,0.2604936,9.806196,2,1683969808.3790467
-0.0064637917,0.02646496,0.9974972,0.0,-0.0016798794,0.00076358154,-0.08269887,0.2604112,9.806194,2,1683969808.3943973
-0.009939604,0.02695279,1.0008512,0.0,-0.0016798794,0.00076358154,-0.08269887,0.2604112,9.806194,2,1683969808.3994908
-0.009939604,0.02695279,1.0008512,0.0012217305,-0.00045814895,-0.0016798794,-0.08269887,0.2604112,9.806194,2,1683969808.425137
-0.008415125,0.027440626,0.997985,0.0012217305,-0.00045814895,-0.0016798794,-0.08269887,0.2604112,9.806194,2,1683969808.4404657
-0.008415125,0.027440626,0.997985,0.0012217305,-0.00045814895,-0.0016798794,-0.08274885,0.2605058,9.806192,2,1683969808.4455981
-0.008415125,0.027440626,0.997985,-0.0012217305,-0.00045814895,-0.00045814895,-0.08274885,0.2605058,9.806192,2,1683969808.450733
-0.008415125,0.027440626,0.997985,0.0,-0.0018325958,-0.0016798794,-0.08274885,0.2605058,9.806192,2,1683969808.4813445
-0.009939604,0.02792846,1.0003633,0.0,-0.0018325958,-0.0016798794,-0.08274885,0.2605058,9.806192,2,1683969808.4864762
-0.009939604,0.02792846,1.0003633,0.0,-0.0018325958,-0.0016798794,-0.08280961,0.2604476,9.806192,2,1683969808.4915998
-0.009939604,0.02792846,1.0003633,0.0,0.001985312,-0.00045814895,-0.08280961,0.2604476,9.806192,2,1683969808.5120575
-0.008476105,0.02646496,1.0004243,0.0,0.001985312,-0.00045814895,-0.08280961,0.2604476,9.806192,2,1683969808.5171866
-0.008476105,0.02646496,1.0004243,0.0,0.001985312,-0.00045814895,-0.08269875,0.26048157,9.806192,2,1683969808.5223176
-0.008476105,0.02646496,1.0004243,0.0,0.001985312,-0.00045814895,-0.08279297,0.2603787,9.806195,2,1683969808.5428312
-0.008476105,0.02646496,1.0004243,0.0,0.004428773,-0.0016798794,-0.08279297,0.2603787,9.806195,2,1683969808.5530949
-0.009878625,0.025977125,0.99987537,0.0,0.004428773,-0.0016798794,-0.08279297,0.2603787,9.806195,2,1683969808.563318
-0.009878625,0.02646496,0.997985,0.0,0.004428773,-0.0016798794,-0.08279297,0.2603787,9.806195,2,1683969808.5684483
-0.009878625,0.02646496,0.997985,0.0,0.004428773,-0.0016798794,-0.08302252,0.2603538,9.806193,2,1683969808.573571
-0.009878625,0.02646496,0.997985,-0.0012217305,0.001985312,-0.00045814895,-0.08302252,0.2603538,9.806193,2,1683969808.5889637
-0.007927292,0.02646496,0.9989607,-0.0012217305,0.001985312,-0.00045814895,-0.08302252,0.2603538,9.806193,2,1683969808.6145213
-0.007927292,0.02646496,0.9989607,0.0012217305,-0.0016798794,0.00076358154,-0.08302252,0.2603538,9.806193,2,1683969808.6196597
-0.007927292,0.02646496,0.9989607,0.0012217305,-0.0016798794,0.00076358154,-0.082802445,0.26018733,9.8062,2,1683969808.6299248
-0.007927292,0.02646496,0.9989607,0.0,-0.0016798794,-0.00045814895,-0.082802445,0.26018733,9.8062,2,1683969808.6401823
-0.008902958,0.025489293,0.9994486,0.0,-0.0016798794,-0.00045814895,-0.082802445,0.26018733,9.8062,2,1683969808.6504414
-0.008902958,0.025489293,0.9994486,0.0,-0.0016798794,-0.00045814895,-0.08279715,0.2601595,9.806201,2,1683969808.660714
-0.008902958,0.025489293,0.9994486,0.0,-0.0016798794,-0.00045814895,-0.08279221,0.26014143,9.8062,2,1683969808.6658506
-0.008902958,0.025489293,0.9994486,-0.002443461,-0.0018325958,-0.0016798794,-0.08279221,0.26014143,9.8062,2,1683969808.6863759
-0.008902958,0.025489293,0.9994486,-0.002443461,-0.0018325958,-0.0016798794,-0.08268212,0.26001236,9.806206,2,1683969808.6915083
-0.009390792,0.026891813,0.9970094,-0.002443461,-0.0018325958,-0.0016798794,-0.08268212,0.26001236,9.806206,2,1683969808.6966305
-0.009390792,0.026891813,0.9970094,-0.0012217305,-0.0030543262,-0.00045814895,-0.08268212,0.26001236,9.806206,2,1683969808.7171543
-0.009390792,0.026891813,0.9970094,-0.0012217305,-0.0030543262,-0.00045814895,-0.08264707,0.25995314,9.806208,2,1683969808.7222836
-0.0075004376,0.027440626,1.0013999,-0.0012217305,-0.0030543262,-0.00045814895,-0.08264707,0.25995314,9.806208,2,1683969808.7376685
-0.0075004376,0.027440626,1.0013999,-0.0012217305,-0.0030543262,-0.00045814895,-0.082681954,0.25990984,9.806208,2,1683969808.742761
-0.009878625,0.02695279,0.9989607,-0.0012217305,-0.0030543262,-0.00045814895,-0.082681954,0.25990984,9.806208,2,1683969808.768268
-0.009878625,0.02695279,0.9989607,0.0,-0.00045814895,-0.0016798794,-0.082681954,0.25990984,9.806208,2,1683969808.7733974
-0.009878625,0.02695279,0.9989607,0.0,0.0032070426,0.001985312,-0.082681954,0.25990984,9.806208,2,1683969808.7887821
-0.009878625,0.02695279,0.9989607,0.0,0.0032070426,0.001985312,-0.08255933,0.25985286,9.8062105,2,1683969808.8041737
-0.0069516255,0.025001459,0.9994486,0.0,0.0032070426,0.001985312,-0.08255933,0.25985286,9.8062105,2,1683969808.8092687
-0.007927292,0.025489293,0.997985,0.0,0.0032070426,0.001985312,-0.08255933,0.25985286,9.8062105,2,1683969808.8246229
-0.007927292,0.025489293,0.997985,0.0,0.0032070426,0.001985312,-0.082701206,0.25979954,9.8062105,2,1683969808.8348837
-0.007927292,0.025489293,0.997985,0.0012217305,0.00076358154,-0.0016798794,-0.082701206,0.25979954,9.8062105,2,1683969808.8400168
-0.007927292,0.025489293,0.997985,0.0012217305,0.00076358154,-0.0016798794,-0.08264876,0.25982594,9.8062105,2,1683969808.8502824
-0.007927292,0.025489293,0.997985,-0.0012217305,-0.00045814895,0.001985312,-0.08264876,0.25982594,9.8062105,2,1683969808.8758428
-0.0069516255,0.02695279,0.9994486,-0.0012217305,-0.00045814895,0.001985312,-0.08264876,0.25982594,9.8062105,2,1683969808.880976
-0.0069516255,0.02695279,0.9994486,0.0,0.00076358154,-0.00045814895,-0.08264876,0.25982594,9.8062105,2,1683969808.8861012
-0.0064637917,0.02695279,0.9989607,0.0,0.00076358154,-0.00045814895,-0.08264876,0.25982594,9.8062105,2,1683969808.8911936
-0.0064637917,0.02695279,0.9989607,0.0,0.00076358154,-0.00045814895,-0.082403556,0.25968504,9.806216,2,1683969808.9065616
-0.0064637917,0.02695279,0.9989607,0.0,-0.0016798794,-0.00045814895,-0.082403556,0.25968504,9.806216,2,1683969808.9322433
-0.009390792,0.02646496,0.99847287,0.0,-0.0016798794,-0.00045814895,-0.082403556,0.25968504,9.806216,2,1683969808.9373684
-0.009390792,0.02646496,0.99847287,-0.0012217305,0.0032070426,-0.00045814895,-0.082403556,0.25968504,9.806216,2,1683969808.9425032
-0.009390792,0.02646496,0.99847287,-0.0012217305,0.0032070426,-0.00045814895,-0.08239396,0.2600245,9.806208,2,1683969808.9527764
-0.009390792,0.02646496,0.99847287,-0.0012217305,-0.0016798794,0.001985312,-0.08239396,0.2600245,9.806208,2,1683969808.963036
-0.009390792,0.02646496,0.99847287,-0.0012217305,-0.0016798794,0.001985312,-0.082682244,0.26000664,9.806206,2,1683969808.978425
-0.0074394583,0.025489293,0.99987537,-0.0012217305,-0.0016798794,0.001985312,-0.082682244,0.26000664,9.806206,2,1683969808.9835556
-0.0074394583,0.025489293,0.99987537,0.0,0.001985312,-0.00045814895,-0.082682244,0.26000664,9.806206,2,1683969809.0142694
-0.0075004376,0.02695279,1.0003633,0.0,0.001985312,-0.00045814895,-0.082682244,0.26000664,9.806206,2,1683969809.0193675
-0.0075004376,0.02695279,1.0003633,-0.0012217305,0.00076358154,-0.00045814895,-0.08269685,0.2600975,9.806203,2,1683969809.0245187
-0.0075004376,0.02695279,1.0003633,-0.0012217305,0.00076358154,-0.00045814895,-0.08289105,0.25995144,9.806205,2,1683969809.0296452
-0.0074394583,0.02695279,0.9988997,-0.0012217305,0.00076358154,-0.00045814895,-0.08289105,0.25995144,9.806205,2,1683969809.0347805
-0.0074394583,0.02695279,0.9988997,0.0,-0.0016798794,-0.0016798794,-0.08289105,0.25995144,9.806205,2,1683969809.0655262
-0.007927292,0.02695279,0.997985,0.0,-0.0016798794,-0.0016798794,-0.08289105,0.25995144,9.806205,2,1683969809.0706625
-0.007927292,0.02695279,0.997985,0.0,-0.0016798794,-0.0016798794,-0.08291909,0.25985217,9.806208,2,1683969809.080887
-0.008415125,0.02695279,0.997985,0.0,-0.0016798794,-0.0016798794,-0.08291909,0.25985217,9.806208,2,1683969809.0962741
-0.008415125,0.02695279,0.997985,0.0,-0.0016798794,-0.0016798794,-0.08289707,0.25989753,9.806207,2,1683969809.1014047
-0.008415125,0.02695279,0.997985,0.0,-0.00045814895,0.00076358154,-0.08289707,0.25989753,9.806207,2,1683969809.1219072
-0.008902958,0.025977125,0.99847287,0.0,-0.00045814895,0.00076358154,-0.08289707,0.25989753,9.806207,2,1683969809.1270392
-0.008902958,0.025977125,0.99847287,0.0012217305,-0.00045814895,0.00076358154,-0.08289707,0.25989753,9.806207,2,1683969809.1373005
-0.008902958,0.025977125,0.99847287,0.0012217305,-0.00045814895,0.00076358154,-0.082874894,0.25983378,9.806209,2,1683969809.1526732
-0.008902958,0.025977125,0.99847287,0.0,0.00076358154,0.00076358154,-0.082874894,0.25983378,9.806209,2,1683969809.1680703
-0.008902958,0.02646496,0.99847287,0.0,0.00076358154,0.00076358154,-0.082874894,0.25983378,9.806209,2,1683969809.18342
-0.008902958,0.02646496,0.99847287,0.0,0.00076358154,0.00076358154,-0.082881406,0.25986615,9.806208,2,1683969809.1937032
-0.008902958,0.02646496,0.99847287,0.0,0.00076358154,0.00076358154,-0.08286843,0.25975144,9.8062105,2,1683969809.2193
-0.008902958,0.027440626,0.997985,0.002443461,-0.00045814895,0.001985312,-0.08286843,0.25975144,9.8062105,2,1683969809.2295887
-0.008902958,0.027440626,0.997985,0.002443461,-0.00045814895,0.001985312,-0.08279474,0.25987586,9.806209,2,1683969809.2347128
-0.008902958,0.027440626,0.997985,0.0,-0.0016798794,0.001985312,-0.08279474,0.25987586,9.806209,2,1683969809.239844
-0.008902958,0.02646496,0.997985,0.0,-0.0016798794,0.001985312,-0.08279474,0.25987586,9.806209,2,1683969809.2449777
-0.008902958,0.02646496,0.997985,0.0,-0.0016798794,0.001985312,-0.08266309,0.25991333,9.806209,2,1683969809.2603183
-0.008902958,0.02646496,0.9965216,0.0,-0.0016798794,0.001985312,-0.08266309,0.25991333,9.806209,2,1683969809.2705798
-0.008902958,0.02646496,0.9965216,0.0,-0.00045814895,-0.00045814895,-0.08266309,0.25991333,9.806209,2,1683969809.2859695
-0.008902958,0.02646496,0.9965216,0.0,-0.00045814895,-0.00045814895,-0.08261881,0.2599053,9.806209,2,1683969809.3013647
-0.008902958,0.02646496,0.9965216,0.0012217305,0.0032070426,0.00076358154,-0.08261881,0.2599053,9.806209,2,1683969809.3064952
-0.008476105,0.025001459,1.0008512,0.0012217305,0.0032070426,0.00076358154,-0.08261881,0.2599053,9.806209,2,1683969809.326983
-0.008902958,0.02695279,0.9979241,0.0012217305,0.0032070426,0.00076358154,-0.08261881,0.2599053,9.806209,2,1683969809.337291
-0.008902958,0.02695279,0.9979241,0.0012217305,0.0032070426,0.00076358154,-0.08268165,0.259934,9.806208,2,1683969809.3424263
-0.008902958,0.02695279,0.9979241,0.0,-0.0016798794,0.00076358154,-0.08268165,0.259934,9.806208,2,1683969809.3526344
-0.009390792,0.025977125,0.9988997,0.0,-0.0016798794,0.00076358154,-0.08268165,0.259934,9.806208,2,1683969809.3680253
-0.009390792,0.025977125,0.9988997,0.0,0.008093964,0.001985312,-0.08268165,0.259934,9.806208,2,1683969809.3782804
-0.009390792,0.025977125,0.9988997,0.0,0.008093964,0.001985312,-0.082738675,0.2599186,9.806208,2,1683969809.3936217
-0.009390792,0.025977125,0.9988997,0.0,0.00076358154,0.001985312,-0.082738675,0.2599186,9.806208,2,1683969809.3987553
-0.008902958,0.02695279,0.9969484,0.0,0.00076358154,0.001985312,-0.082738675,0.2599186,9.806208,2,1683969809.4038885
-0.008902958,0.02695279,0.9969484,0.0,0.00076358154,0.001985312,-0.08287588,0.25990525,9.806207,2,1683969809.4294467
-0.009390792,0.025489293,0.99938756,0.0,0.00076358154,0.001985312,-0.08287588,0.25990525,9.806207,2,1683969809.4345694
-0.009390792,0.025489293,0.99938756,0.0,0.00076358154,-0.00045814895,-0.08287588,0.25990525,9.806207,2,1683969809.4448435
-0.009390792,0.025489293,0.99938756,0.0,0.00076358154,-0.00045814895,-0.082851596,0.25988153,9.806208,2,1683969809.4499688
-0.008415125,0.025977125,0.9965216,0.0,0.00076358154,-0.00045814895,-0.082851596,0.25988153,9.806208,2,1683969809.4704535
-0.008415125,0.025977125,0.9965216,0.0,0.00076358154,-0.00045814895,-0.08224928,0.2595146,9.806222,2,1683969809.4806783
-0.008415125,0.025977125,0.9965216,-0.002443461,0.00061086525,-0.00045814895,-0.08224928,0.2595146,9.806222,2,1683969809.4959867
-0.008415125,0.025977125,0.9965216,-0.0012217305,-0.0016798794,0.00076358154,-0.08224928,0.2595146,9.806222,2,1683969809.5165057
-0.008902958,0.025001459,0.99847287,-0.0012217305,-0.0016798794,0.00076358154,-0.08224928,0.2595146,9.806222,2,1683969809.5216393
-0.008902958,0.025001459,0.99847287,-0.0012217305,-0.0016798794,0.00076358154,-0.08228416,0.25944272,9.806224,2,1683969809.5267715
-0.0074394583,0.025977125,0.9994486,-0.0012217305,-0.0016798794,0.00076358154,-0.08228416,0.25944272,9.806224,2,1683969809.537034
-0.0074394583,0.025977125,0.9994486,-0.0012217305,-0.0016798794,0.00076358154,-0.08236671,0.2594093,9.806224,2,1683969809.542125
-0.0074394583,0.025977125,0.9994486,0.0012217305,0.00076358154,-0.00045814895,-0.08236671,0.2594093,9.806224,2,1683969809.5831203
-0.009390792,0.02695279,0.9988997,0.0012217305,0.00076358154,-0.00045814895,-0.08236671,0.2594093,9.806224,2,1683969809.5933423
-0.009390792,0.02695279,0.9988997,0.0012217305,0.00076358154,-0.00045814895,-0.08237846,0.2594169,9.806224,2,1683969809.5984275
-0.008902958,0.025977125,0.9974972,0.0012217305,0.00076358154,-0.00045814895,-0.08237846,0.2594169,9.806224,2,1683969809.608641
-0.008902958,0.025977125,0.9974972,0.0013744468,0.0056505036,0.0009162979,-0.08237846,0.2594169,9.806224,2,1683969809.6291466
-0.008902958,0.025977125,0.9974972,0.0013744468,0.0056505036,0.0009162979,-0.08259989,0.25944117,9.806221,2,1683969809.6394212
-0.008902958,0.025977125,0.9974972,0.0013744468,0.0056505036,0.0009162979,-0.08268851,0.25935104,9.806223,2,1683969809.644563
-0.008963938,0.025977125,1.0008512,0.0013744468,0.0056505036,0.0009162979,-0.08268851,0.25935104,9.806223,2,1683969809.654797
-0.008963938,0.025977125,1.0008512,-0.0010690142,-0.00045814895,0.0009162979,-0.08268851,0.25935104,9.806223,2,1683969809.6650136
-0.00798827,0.028904125,1.0008512,-0.0010690142,-0.00045814895,0.0009162979,-0.08268851,0.25935104,9.806223,2,1683969809.6906145
-0.00798827,0.028904125,1.0008512,-0.0010690142,-0.00045814895,0.0009162979,-0.08275849,0.2593576,9.806223,2,1683969809.700928
-0.00798827,0.028904125,1.0008512,-0.0010690142,0.001985312,0.0009162979,-0.08275849,0.2593576,9.806223,2,1683969809.7111993
-0.007927292,0.02695279,0.99938756,-0.0010690142,0.001985312,0.0009162979,-0.08275849,0.2593576,9.806223,2,1683969809.7214613
-0.007927292,0.02695279,0.99938756,0.00015271631,0.0032070426,-0.00030543262,-0.08275849,0.2593576,9.806223,2,1683969809.7317288
-0.007927292,0.02695279,0.99938756,0.0025961774,0.0032070426,-0.00030543262,-0.08275849,0.2593576,9.806223,2,1683969809.736869
-0.007927292,0.02695279,0.99938756,0.00015271631,0.004428773,0.0009162979,-0.08275849,0.2593576,9.806223,2,1683969809.7420032
-0.007927292,0.02695279,0.99938756,0.00015271631,0.004428773,0.0009162979,-0.083463304,0.25955507,9.8062105,2,1683969809.762512
-0.009878625,0.028355313,0.99938756,0.00015271631,0.004428773,0.0009162979,-0.083463304,0.25955507,9.8062105,2,1683969809.767645
-0.0074394583,0.02695279,0.99847287,0.00015271631,0.004428773,0.0009162979,-0.083463304,0.25955507,9.8062105,2,1683969809.783029
-0.0074394583,0.02695279,0.99847287,0.00015271631,0.004428773,0.0009162979,-0.083824225,0.2596158,9.806206,2,1683969809.7881598
-0.0074394583,0.02695279,0.99847287,0.00015271631,0.001985312,0.0021380284,-0.083824225,0.2596158,9.806206,2,1683969809.7932925
-0.0074394583,0.02695279,0.99847287,0.00015271631,0.001985312,0.0021380284,-0.08395663,0.25965965,9.806204,2,1683969809.8137715
-0.0074394583,0.02695279,0.99847287,0.0013744468,0.00076358154,-0.00030543262,-0.08395663,0.25965965,9.806204,2,1683969809.8342946
-0.0074394583,0.02695279,0.99938756,0.0013744468,0.00076358154,-0.00030543262,-0.08395663,0.25965965,9.806204,2,1683969809.8394203
-0.0074394583,0.02695279,0.99938756,0.0013744468,-0.00045814895,0.0009162979,-0.08395663,0.25965965,9.806204,2,1683969809.859934
-0.0074394583,0.02695279,0.99938756,0.0013744468,-0.00045814895,0.0009162979,-0.0840259,0.25972775,9.806202,2,1683969809.8650656
-0.007927292,0.02646496,0.9988997,0.0013744468,-0.00045814895,0.0009162979,-0.0840259,0.25972775,9.806202,2,1683969809.8752902
-0.0074394583,0.025001459,0.99987537,0.0013744468,-0.00045814895,0.0009162979,-0.0840259,0.25972775,9.806202,2,1683969809.8957999
-0.0074394583,0.025001459,0.99987537,0.0025961774,-0.00045814895,-0.00030543262,-0.0840259,0.25972775,9.806202,2,1683969809.9009345
-0.0074394583,0.025001459,0.99987537,0.0025961774,-0.00045814895,-0.00030543262,-0.08395816,0.25972497,9.806202,2,1683969809.916341
-0.0074394583,0.025001459,0.99987537,0.00015271631,-0.0016798794,-0.0015271631,-0.08395816,0.25972497,9.806202,2,1683969809.9317322
-0.009878625,0.02646496,0.9979241,0.00015271631,-0.0016798794,-0.0015271631,-0.08395816,0.25972497,9.806202,2,1683969809.94198
-0.009878625,0.02646496,0.9979241,0.00015271631,-0.0016798794,-0.0015271631,-0.083922625,0.25986454,9.806199,2,1683969809.95224
-0.009878625,0.02646496,0.9979241,0.00015271631,-0.0016798794,-0.0015271631,-0.08381352,0.25996998,9.806197,2,1683969809.967614
-0.009878625,0.02646496,0.9988997,0.00015271631,-0.0016798794,-0.0015271631,-0.08381352,0.25996998,9.806197,2,1683969809.9778762
-0.009878625,0.02646496,0.9988997,0.0025961774,0.0032070426,0.0009162979,-0.08381352,0.25996998,9.806197,2,1683969809.9830055
-0.009878625,0.02646496,0.9988997,0.0025961774,0.0032070426,0.0009162979,-0.08362871,0.26002258,9.806197,2,1683969809.9983947
-0.009878625,0.02646496,0.9988997,0.00015271631,0.001985312,0.0009162979,-0.08362871,0.26002258,9.806197,2,1683969810.013743
-0.008902958,0.02792846,0.99938756,0.00015271631,0.001985312,0.0009162979,-0.08362871,0.26002258,9.806197,2,1683969810.0239632
-0.008902958,0.02792846,0.99938756,0.00015271631,0.001985312,0.0009162979,-0.08412451,0.2603473,9.806184,2,1683969810.0444462
-0.008902958,0.02792846,0.99938756,-0.0022907446,-0.0018325958,-0.00030543262,-0.08412451,0.2603473,9.806184,2,1683969810.0495892
-0.0070126047,0.02695279,1.0003633,-0.0022907446,-0.0018325958,-0.00030543262,-0.08412451,0.2603473,9.806184,2,1683969810.0597622
-0.0070126047,0.02695279,1.0003633,0.0013744468,0.0032070426,0.0009162979,-0.08412451,0.2603473,9.806184,2,1683969810.0699446
-0.0070126047,0.02695279,1.0003633,0.0013744468,0.0032070426,0.0009162979,-0.08410548,0.2602548,9.806187,2,1683969810.080126
-0.008902958,0.02695279,0.9984119,0.0013744468,0.0032070426,0.0009162979,-0.08410548,0.2602548,9.806187,2,1683969810.0852597
-0.008902958,0.02695279,0.9984119,0.0013744468,0.0032070426,0.0009162979,-0.08413757,0.26018092,9.806189,2,1683969810.0955195
-0.008902958,0.02695279,0.9984119,-0.0010690142,-0.00045814895,0.0009162979,-0.08413757,0.26018092,9.806189,2,1683969810.1057413
-0.008415125,0.025977125,0.99847287,-0.0010690142,-0.00045814895,0.0009162979,-0.08413757,0.26018092,9.806189,2,1683969810.126257
-0.008415125,0.025977125,0.99847287,-0.0010690142,-0.00045814895,0.0009162979,-0.08411475,0.26017234,9.80619,2,1683969810.131347
-0.008415125,0.025977125,0.99847287,-0.0010690142,-0.0018325958,-0.00030543262,-0.08411475,0.26017234,9.80619,2,1683969810.1467495
-0.008415125,0.025977125,0.99847287,-0.0010690142,-0.0018325958,-0.00030543262,-0.084080845,0.26013923,9.8061905,2,1683969810.1672013
-0.008415125,0.025977125,0.99847287,-0.0010690142,0.004428773,0.0033597588,-0.084080845,0.26013923,9.8061905,2,1683969810.1723385
-0.007927292,0.024025792,0.9974972,-0.0010690142,0.004428773,0.0033597588,-0.084080845,0.26013923,9.8061905,2,1683969810.1877253
-0.008415125,0.025489293,0.997985,-0.0010690142,0.004428773,0.0033597588,-0.084080845,0.26013923,9.8061905,2,1683969810.2082143
-0.008415125,0.025489293,0.997985,0.00015271631,0.001985312,0.0009162979,-0.084080845,0.26013923,9.8061905,2,1683969810.213348
-0.008415125,0.025489293,0.997985,0.00015271631,0.001985312,0.0009162979,-0.08427129,0.26002917,9.806191,2,1683969810.2184386
-0.008963938,0.025489293,1.0008512,0.00015271631,0.001985312,0.0009162979,-0.08427129,0.26002917,9.806191,2,1683969810.2492151
-0.008963938,0.025489293,1.0008512,0.0013744468,-0.00290161,-0.0027488936,-0.08427129,0.26002917,9.806191,2,1683969810.2543514
-0.008963938,0.025489293,1.0008512,0.0013744468,-0.00290161,-0.0027488936,-0.084378004,0.26000482,9.8061905,2,1683969810.2594798
-0.008963938,0.025489293,1.0008512,0.0013744468,-0.00045814895,-0.0015271631,-0.084378004,0.26000482,9.8061905,2,1683969810.274821
-0.008963938,0.025489293,1.0008512,0.0013744468,-0.00045814895,-0.0015271631,-0.08415785,0.2600525,9.806192,2,1683969810.2799442
-0.008963938,0.025489293,1.0008512,0.0013744468,-0.00045814895,-0.0015271631,-0.08461984,0.26019537,9.806184,2,1683969810.2850683
-0.009939604,0.024513626,1.0003633,0.0013744468,-0.00045814895,-0.0015271631,-0.08461984,0.26019537,9.806184,2,1683969810.2902026
-0.0064637917,0.02646496,0.9994486,0.0013744468,-0.00045814895,-0.0015271631,-0.08461984,0.26019537,9.806184,2,1683969810.3157768
-0.0064637917,0.02646496,0.9994486,0.0013744468,-0.00045814895,-0.0015271631,-0.084563754,0.26008454,9.806188,2,1683969810.3208952
-0.0064637917,0.02646496,0.9994486,-0.0010690142,-0.0018325958,-0.00030543262,-0.084563754,0.26008454,9.806188,2,1683969810.3311586
-0.008902958,0.025977125,0.9984119,-0.0010690142,-0.0018325958,-0.00030543262,-0.084563754,0.26008454,9.806188,2,1683969810.3362935
-0.008902958,0.025977125,0.9984119,0.0013744468,0.00076358154,-0.00030543262,-0.084563754,0.26008454,9.806188,2,1683969810.346577
-0.008902958,0.025977125,0.9984119,0.0013744468,0.00076358154,-0.00030543262,-0.08453169,0.2600274,9.80619,2,1683969810.3517416
-0.008902958,0.025977125,0.9984119,-0.0010690142,-0.0018325958,-0.00030543262,-0.08453169,0.2600274,9.80619,2,1683969810.3568728
-0.008415125,0.025977125,0.997985,-0.0010690142,-0.0018325958,-0.00030543262,-0.08453169,0.2600274,9.80619,2,1683969810.3620043
-0.008415125,0.025977125,0.997985,-0.0010690142,-0.0018325958,-0.00030543262,-0.08455798,0.26006827,9.806188,2,1683969810.3773966
-0.008415125,0.025977125,0.997985,0.00015271631,-0.00045814895,0.0021380284,-0.08455798,0.26006827,9.806188,2,1683969810.3876588
-0.008415125,0.025977125,0.997985,0.00015271631,-0.00045814895,0.0021380284,-0.084389284,0.25989503,9.806194,2,1683969810.3979197
-0.0074394583,0.025001459,0.99938756,0.00015271631,-0.00045814895,0.0021380284,-0.084389284,0.25989503,9.806194,2,1683969810.4081585
-0.0074394583,0.025001459,0.99938756,0.0025961774,0.0032070426,-0.00030543262,-0.084389284,0.25989503,9.806194,2,1683969810.4440546
-0.0074394583,0.025001459,0.99938756,0.0025961774,0.0032070426,-0.00030543262,-0.08437322,0.25995776,9.806192,2,1683969810.449187
-0.0075004376,0.02841629,1.0003633,0.0025961774,0.0032070426,-0.00030543262,-0.08437322,0.25995776,9.806192,2,1683969810.4543257
-0.0075004376,0.02841629,1.0003633,0.0025961774,0.0032070426,-0.00030543262,-0.084429465,0.26014906,9.806187,2,1683969810.464575
-0.009878625,0.025977125,0.9988997,0.0025961774,0.0032070426,-0.00030543262,-0.084429465,0.26014906,9.806187,2,1683969810.4748266
-0.009878625,0.025977125,0.9988997,0.0025961774,-0.00045814895,0.0009162979,-0.084429465,0.26014906,9.806187,2,1683969810.4902127
-0.009878625,0.025977125,0.9988997,0.00015271631,0.0032070426,-0.0015271631,-0.084429465,0.26014906,9.806187,2,1683969810.500439
-0.008902958,0.02695279,0.9984119,0.00015271631,0.0032070426,-0.0015271631,-0.084429465,0.26014906,9.806187,2,1683969810.5055668
-0.008902958,0.02695279,0.9984119,0.00015271631,0.0032070426,-0.0015271631,-0.08448254,0.26023316,9.806184,2,1683969810.5107079
-0.008902958,0.02646496,0.9984119,0.00015271631,0.0032070426,-0.0015271631,-0.08448254,0.26023316,9.806184,2,1683969810.5414164
-0.008902958,0.02646496,0.9984119,0.00015271631,0.0032070426,-0.0015271631,-0.084571876,0.26007414,9.806188,2,1683969810.5567648
-0.008902958,0.02646496,0.9984119,-0.0010690142,-0.00045814895,-0.00030543262,-0.084571876,0.26007414,9.806188,2,1683969810.5618916
-0.009878625,0.027379647,0.9969484,-0.0010690142,-0.00045814895,-0.00030543262,-0.084571876,0.26007414,9.806188,2,1683969810.5670252
-0.009878625,0.027379647,0.9969484,0.00015271631,-0.00290161,0.0021380284,-0.084571876,0.26007414,9.806188,2,1683969810.592605
-0.009878625,0.027379647,0.9969484,0.00015271631,-0.00290161,0.0021380284,-0.08464836,0.26014876,9.806185,2,1683969810.597739
-0.008415125,0.02786748,0.9974972,0.00015271631,-0.00290161,0.0021380284,-0.08464836,0.26014876,9.806185,2,1683969810.6131241
-0.007927292,0.02695279,0.9994486,0.00015271631,-0.00290161,0.0021380284,-0.08464836,0.26014876,9.806185,2,1683969810.6284711
-0.007927292,0.02695279,0.9994486,0.0013744468,-0.0016798794,0.0009162979,-0.08464836,0.26014876,9.806185,2,1683969810.6336048
-0.007927292,0.02695279,0.9994486,0.0013744468,-0.0016798794,0.0009162979,-0.08465653,0.2602875,9.806181,2,1683969810.6438625
-0.0074394583,0.025977125,0.997985,0.0013744468,-0.0016798794,0.0009162979,-0.08465653,0.2602875,9.806181,2,1683969810.6540813
-0.0074394583,0.025977125,0.997985,0.0013744468,-0.0016798794,0.0009162979,-0.08455949,0.2603223,9.806182,2,1683969810.6746047
-0.0074394583,0.025977125,0.997985,0.0025961774,0.001985312,0.0009162979,-0.08455949,0.2603223,9.806182,2,1683969810.679733
-0.010366458,0.02695279,0.99938756,0.0025961774,0.001985312,0.0009162979,-0.08455949,0.2603223,9.806182,2,1683969810.7002156
-0.010366458,0.02695279,0.99938756,-0.0010690142,0.00076358154,0.0009162979,-0.08455949,0.2603223,9.806182,2,1683969810.7156012
-0.010366458,0.02695279,0.99938756,-0.0010690142,0.00076358154,0.0009162979,-0.08477557,0.26032984,9.806179,2,1683969810.7207341
-0.010366458,0.02695279,0.99938756,-0.0022907446,-0.004276057,-0.00030543262,-0.08477557,0.26032984,9.806179,2,1683969810.7463589
-0.008902958,0.025489293,0.99847287,-0.0022907446,-0.004276057,-0.00030543262,-0.08477557,0.26032984,9.806179,2,1683969810.751483
-0.008902958,0.025489293,0.99847287,-0.0022907446,-0.004276057,-0.00030543262,-0.08474293,0.26021147,9.806183,2,1683969810.7566118
-0.008963938,0.02646496,1.0003633,-0.0022907446,-0.004276057,-0.00030543262,-0.08474293,0.26021147,9.806183,2,1683969810.7617428
-0.008963938,0.02646496,1.0003633,-0.0022907446,0.00061086525,-0.00030543262,-0.08474293,0.26021147,9.806183,2,1683969810.7822616
-0.008963938,0.02646496,1.0003633,-0.0022907446,0.00061086525,-0.00030543262,-0.08475868,0.26011065,9.806185,2,1683969810.7924888
-0.009390792,0.025001459,0.99847287,-0.0022907446,0.00061086525,-0.00030543262,-0.08475868,0.26011065,9.806185,2,1683969810.7976182
-0.009390792,0.025001459,0.99847287,-0.0022907446,0.00061086525,-0.00030543262,-0.08471932,0.25992063,9.8061905,2,1683969810.8027449
-0.009390792,0.025001459,0.99847287,-0.0022907446,0.001985312,-0.00030543262,-0.08471932,0.25992063,9.8061905,2,1683969810.812958
-0.009390792,0.025001459,0.99847287,-0.0022907446,0.001985312,-0.00030543262,-0.084178485,0.2598615,9.806197,2,1683969810.8231854
-0.008415125,0.025977125,0.997985,-0.0022907446,0.001985312,-0.00030543262,-0.084178485,0.2598615,9.806197,2,1683969810.833444
-0.008415125,0.025977125,0.997985,-0.0010690142,0.004428773,0.0009162979,-0.084178485,0.2598615,9.806197,2,1683969810.8488328
-0.008415125,0.025977125,0.997985,0.0013744468,0.00076358154,-0.00030543262,-0.084178485,0.2598615,9.806197,2,1683969810.869314
-0.008415125,0.025977125,0.997985,0.0013744468,0.00076358154,-0.00030543262,-0.08427326,0.2598718,9.806195,2,1683969810.8744624
-0.007927292,0.025977125,0.9994486,0.0013744468,0.00076358154,-0.00030543262,-0.08427326,0.2598718,9.806195,2,1683969810.8846805
-0.009390792,0.024513626,0.9974972,0.0013744468,0.00076358154,-0.00030543262,-0.08427326,0.2598718,9.806195,2,1683969810.8898149
-0.009390792,0.024513626,0.9974972,0.00015271631,-0.00045814895,0.0009162979,-0.08427326,0.2598718,9.806195,2,1683969810.9051645
-0.009390792,0.024513626,0.9974972,0.00015271631,-0.00045814895,0.0009162979,-0.08428877,0.2598688,9.806195,2,1683969810.9154153
-0.009390792,0.024513626,0.9974972,0.00015271631,0.0056505036,0.0009162979,-0.08428877,0.2598688,9.806195,2,1683969810.9410598
-0.008415125,0.024025792,0.997985,0.00015271631,0.0056505036,0.0009162979,-0.08428877,0.2598688,9.806195,2,1683969810.9512808
-0.008415125,0.024025792,0.997985,0.00015271631,0.0056505036,0.0009162979,-0.08429962,0.2597974,9.806197,2,1683969810.95641
-0.008415125,0.024025792,0.997985,0.0013744468,0.001985312,0.0021380284,-0.08429962,0.2597974,9.806197,2,1683969810.9769235
-0.008415125,0.024025792,0.997985,0.0013744468,0.001985312,0.0021380284,-0.08454568,0.2598013,9.806195,2,1683969810.9820573
-0.0074394583,0.025489293,0.9970094,0.0013744468,0.001985312,0.0021380284,-0.08454568,0.2598013,9.806195,2,1683969810.9871964
-0.0074394583,0.025489293,0.9970094,-0.0010690142,0.001985312,-0.00030543262,-0.08454568,0.2598013,9.806195,2,1683969811.0077236
-0.0074394583,0.025489293,0.9970094,-0.0010690142,0.001985312,-0.00030543262,-0.08467339,0.25979814,9.806194,2,1683969811.0128567
-0.0069516255,0.024513626,0.997985,-0.0010690142,0.001985312,-0.00030543262,-0.08467339,0.25979814,9.806194,2,1683969811.0179946
-0.0069516255,0.024513626,0.997985,-0.0010690142,0.001985312,-0.00030543262,-0.08459065,0.2597591,9.806196,2,1683969811.0435925
-0.0069516255,0.024513626,0.997985,0.00015271631,-0.00045814895,-0.00030543262,-0.08459065,0.2597591,9.806196,2,1683969811.0589824
-0.008476105,0.02695279,1.001339,0.00015271631,-0.00045814895,-0.00030543262,-0.08459065,0.2597591,9.806196,2,1683969811.0641139
-0.0069516255,0.024513626,1.0003633,0.00015271631,-0.00045814895,-0.00030543262,-0.08459065,0.2597591,9.806196,2,1683969811.0692449
-0.0069516255,0.024513626,1.0003633,0.00015271631,-0.0016798794,-0.00030543262,-0.08459065,0.2597591,9.806196,2,1683969811.0897813
-0.0069516255,0.024513626,1.0003633,0.00015271631,-0.0016798794,-0.00030543262,-0.079396196,0.2642875,9.806118,2,1683969811.0949485
-0.0069516255,0.024513626,1.0003633,-0.0022907446,0.001985312,-0.00030543262,-0.079396196,0.2642875,9.806118,2,1683969811.1000798
