acc_x,acc_y,acc_z,gyr_x,gyr_y,gyr_z,grav_x,grav_y,grav_z,label,timestamp
-0.007927292,0.024513626,0.99987537,-0.0010690142,-0.00061086525,-0.00030543262,-0.083478466,0.25825462,9.806246,2,1683969816.0842805
-0.007927292,0.024513626,0.99987537,-0.0022907446,-0.00076358154,-0.0015271631,-0.083478466,0.25825462,9.806246,2,1683969816.0948641
-0.007927292,0.024513626,0.99987537,-0.0010690142,-0.001985312,-0.00030543262,-0.083230846,0.25812206,9.806251,2,1683969816.10019
-0.007927292,0.024513626,0.99987537,-0.0010690142,-0.001985312,-0.00030543262,-0.08319644,0.25796536,9.806255,2,1683969816.105508
-0.0069516255,0.025977125,0.9979241,0.0013744468,-0.0030543262,-0.0015271631,-0.083005056,0.25787303,9.806259,2,1683969816.1112175
-0.008415125,0.02646496,0.9988997,0.0013744468,-0.0030543262,-0.0015271631,-0.083005056,0.25787303,9.806259,2,1683969816.116398
-0.009390792,0.025977125,0.9969484,0.0013744468,-0.0030543262,-0.0015271631,-0.083005056,0.25787303,9.806259,2,1683969816.1267147
-0.009390792,0.025977125,0.9969484,0.0013744468,0.00061086525,-0.00030543262,-0.083005056,0.25787303,9.806259,2,1683969816.1370304
-0.009390792,0.025977125,0.9969484,0.0013744468,0.00061086525,-0.00030543262,-0.08301781,0.25792658,9.806257,2,1683969816.1421585
-0.009390792,0.025001459,0.99938756,0.00015271631,0.00061086525,0.0021380284,-0.08296216,0.2580426,9.806254,2,1683969816.1524868
-0.008902958,0.025001459,0.99938756,0.00015271631,0.00061086525,0.0021380284,-0.08296216,0.2580426,9.806254,2,1683969816.1678643
-0.008902958,0.025001459,0.99938756,0.00015271631,0.00061086525,0.0021380284,-0.08294199,0.25809747,9.806254,2,1683969816.1729865
-0.008415125,0.025977125,0.997985,0.0013744468,-0.00061086525,-0.00030543262,-0.08308302,0.25820234,9.80625,2,1683969816.183299
-0.0069516255,0.024513626,0.99847287,0.0013744468,-0.00061086525,-0.00030543262,-0.08308302,0.25820234,9.80625,2,1683969816.1962016
-0.007927292,0.027440626,0.99938756,0.0013744468,0.004276057,-0.0015271631,-0.08277739,0.25829616,9.80625,2,1683969816.2014089
-0.007927292,0.027440626,0.99938756,0.0013744468,0.004276057,-0.0015271631,-0.08319991,0.25838736,9.806244,2,1683969816.206526
-0.007927292,0.027440626,0.99938756,0.0013744468,-0.00061086525,-0.0015271631,-0.08319991,0.25838736,9.806244,2,1683969816.2116458
-0.008963938,0.027440626,1.0003633,0.0013744468,-0.00061086525,-0.0015271631,-0.08319991,0.25838736,9.806244,2,1683969816.216775
-0.0074394583,0.02646496,0.997985,0.0013744468,-0.00061086525,-0.0015271631,-0.08319991,0.25838736,9.806244,2,1683969816.2372866
-0.0074394583,0.02646496,0.997985,0.0013744468,-0.00061086525,-0.0015271631,-0.083099954,0.25847727,9.806242,2,1683969816.2424126
-0.0074394583,0.02646496,0.997985,0.00015271631,-0.00061086525,-0.00030543262,-0.083099954,0.25847727,9.806242,2,1683969816.2577584
-0.0074394583,0.02646496,0.997985,0.00015271631,0.0018325958,0.0021380284,-0.083099954,0.25847727,9.806242,2,1683969816.262888
-0.0074394583,0.02646496,0.997985,0.00015271631,0.0018325958,0.0021380284,-0.083078064,0.25849444,9.806242,2,1683969816.2731507
-0.008476105,0.027440626,1.0003633,0.00015271631,0.0018325958,0.0021380284,-0.083078064,0.25849444,9.806242,2,1683969816.2935731
-0.008476105,0.027440626,1.0003633,0.0013744468,-0.0018325958,-0.00030543262,-0.083078064,0.25849444,9.806242,2,1683969816.298671
-0.008902958,0.02695279,0.9988997,0.0013744468,-0.0018325958,-0.00030543262,-0.083078064,0.25849444,9.806242,2,1683969816.303754
-0.008902958,0.02695279,0.9988997,0.0013744468,-0.0018325958,-0.00030543262,-0.08309471,0.25854272,9.806241,2,1683969816.3140118
-0.009878625,0.025001459,0.99987537,0.0013744468,-0.0018325958,-0.00030543262,-0.08309471,0.25854272,9.806241,2,1683969816.3447804
-0.009878625,0.025001459,0.99987537,0.0025961774,0.004276057,-0.00030543262,-0.08309471,0.25854272,9.806241,2,1683969816.3550377
-0.009878625,0.025001459,0.99987537,0.0025961774,0.004276057,-0.00030543262,-0.08319569,0.2586384,9.806238,2,1683969816.3601708
-0.009878625,0.025489293,0.9979241,0.0025961774,0.004276057,-0.00030543262,-0.08319569,0.2586384,9.806238,2,1683969816.375562
-0.009878625,0.025489293,0.9979241,0.0025961774,0.004276057,-0.00030543262,-0.08333167,0.2587384,9.806233,2,1683969816.3858054
-0.009878625,0.025489293,0.9979241,-0.0010690142,-0.00061086525,0.0033597588,-0.08333167,0.2587384,9.806233,2,1683969816.3909025
-0.009878625,0.025489293,0.9979241,0.00015271631,-0.00061086525,-0.0015271631,-0.08333167,0.2587384,9.806233,2,1683969816.416402
-0.010366458,0.025489293,0.9965216,0.00015271631,-0.00061086525,-0.0015271631,-0.08333167,0.2587384,9.806233,2,1683969816.4215295
-0.010366458,0.025489293,0.9965216,0.00015271631,-0.00061086525,-0.0015271631,-0.08339498,0.25874183,9.806233,2,1683969816.4266608
-0.008902958,0.025977125,0.997985,0.00015271631,-0.00061086525,-0.0015271631,-0.08339498,0.25874183,9.806233,2,1683969816.4574614
-0.008902958,0.025977125,0.997985,0.00015271631,-0.00061086525,-0.0015271631,-0.083365925,0.2588047,9.8062315,2,1683969816.4625947
-0.008902958,0.025977125,0.997985,-0.0022907446,-0.001985312,-0.0015271631,-0.083365925,0.2588047,9.8062315,2,1683969816.4728625
-0.008902958,0.025977125,0.997985,-0.0022907446,-0.001985312,-0.0015271631,-0.083094776,0.258768,9.806234,2,1683969816.4882703
-0.008902958,0.025977125,0.997985,0.00015271631,-0.00061086525,0.0009162979,-0.083094776,0.258768,9.806234,2,1683969816.5035326
-0.008902958,0.02646496,0.99847287,0.00015271631,-0.00061086525,0.0009162979,-0.083094776,0.258768,9.806234,2,1683969816.5086195
-0.008415125,0.02646496,0.99847287,0.00015271631,-0.00061086525,0.0009162979,-0.083094776,0.258768,9.806234,2,1683969816.5291266
-0.008415125,0.02646496,0.99847287,0.00015271631,0.00061086525,0.0009162979,-0.083094776,0.258768,9.806234,2,1683969816.5342689
-0.008415125,0.02646496,0.99847287,0.00015271631,0.00061086525,0.0009162979,-0.083057545,0.25887433,9.8062315,2,1683969816.5393915
-0.008415125,0.027379647,0.9974972,0.00015271631,0.00061086525,0.0009162979,-0.083057545,0.25887433,9.8062315,2,1683969816.5496454
-0.008415125,0.027379647,0.9974972,0.0038179078,-0.00061086525,-0.0015271631,-0.083057545,0.25887433,9.8062315,2,1683969816.5650342
-0.008415125,0.027379647,0.9974972,0.0038179078,-0.00061086525,-0.0015271631,-0.08288101,0.25898936,9.806231,2,1683969816.5803785
-0.0069516255,0.028355313,0.99847287,0.0038179078,-0.00061086525,-0.0015271631,-0.08288101,0.25898936,9.806231,2,1683969816.5906472
-0.0069516255,0.028355313,0.99847287,0.0038179078,-0.00061086525,-0.0015271631,-0.08286747,0.2590751,9.806229,2,1683969816.5957813
-0.0069516255,0.028355313,0.99847287,0.0025961774,-0.0030543262,-0.00030543262,-0.08286747,0.2590751,9.806229,2,1683969816.6008828
-0.0069516255,0.028355313,0.99847287,0.0025961774,-0.0030543262,-0.00030543262,-0.0825982,0.2591921,9.806228,2,1683969816.6316411
-0.0069516255,0.028355313,0.99847287,0.00015271631,0.00061086525,-0.00030543262,-0.0825982,0.2591921,9.806228,2,1683969816.6367707
-0.00798827,0.02646496,1.0008512,0.00015271631,0.00061086525,-0.00030543262,-0.0825982,0.2591921,9.806228,2,1683969816.6521554
-0.00798827,0.02646496,1.0008512,0.00015271631,0.00061086525,-0.00030543262,-0.08252017,0.25929284,9.806226,2,1683969816.6675513
-0.009390792,0.027379647,0.9974972,0.00015271631,0.00061086525,-0.00030543262,-0.08252017,0.25929284,9.806226,2,1683969816.672677
-0.009390792,0.027379647,0.9974972,0.00015271631,-0.00061086525,0.0009162979,-0.08252017,0.25929284,9.806226,2,1683969816.7085118
-0.009390792,0.027379647,0.9974972,0.00015271631,-0.00061086525,0.0009162979,-0.08247182,0.25932994,9.806225,2,1683969816.713603
-0.0074394583,0.02646496,0.9999364,0.00015271631,-0.00061086525,0.0009162979,-0.08247182,0.25932994,9.806225,2,1683969816.7186818
-0.0074394583,0.02646496,0.9999364,0.00015271631,-0.00061086525,0.0009162979,-0.082339965,0.25927714,9.806228,2,1683969816.7442107
-0.008476105,0.02646496,1.001339,0.00015271631,-0.00061086525,0.0009162979,-0.082339965,0.25927714,9.806228,2,1683969816.749303
-0.008476105,0.02646496,1.001339,-0.0010690142,-0.00076358154,-0.0015271631,-0.082339965,0.25927714,9.806228,2,1683969816.754434
-0.008415125,0.027379647,0.9970094,-0.0010690142,-0.00076358154,-0.0015271631,-0.082339965,0.25927714,9.806228,2,1683969816.7646928
-0.008415125,0.027379647,0.9970094,-0.0010690142,0.0018325958,-0.0015271631,-0.082339965,0.25927714,9.806228,2,1683969816.7698238
-0.008415125,0.027379647,0.9970094,-0.0010690142,0.0018325958,-0.0015271631,-0.08246475,0.25917554,9.80623,2,1683969816.780075
-0.008415125,0.027379647,0.9970094,-0.0010690142,0.0018325958,-0.0015271631,-0.082561605,0.25910786,9.806231,2,1683969816.810739
-0.008415125,0.027379647,0.9970094,0.00015271631,0.00061086525,0.0021380284,-0.082561605,0.25910786,9.806231,2,1683969816.8158581
-0.008415125,0.02646496,0.99987537,0.00015271631,0.00061086525,0.0021380284,-0.082561605,0.25910786,9.806231,2,1683969816.8311949
-0.008415125,0.02695279,0.99847287,0.00015271631,0.00061086525,0.0021380284,-0.082561605,0.25910786,9.806231,2,1683969816.8414392
-0.008415125,0.02695279,0.99847287,0.00015271631,0.00061086525,0.0009162979,-0.082561605,0.25910786,9.806231,2,1683969816.8516955
-0.008415125,0.02695279,0.99847287,0.00015271631,0.00061086525,0.0009162979,-0.082587175,0.25918567,9.806228,2,1683969816.8568308
-0.007927292,0.024513626,0.9989607,0.00015271631,0.00061086525,0.0009162979,-0.082587175,0.25918567,9.806228,2,1683969816.8824685
-0.007927292,0.024513626,0.9989607,-0.0022907446,0.0030543262,0.0009162979,-0.082587175,0.25918567,9.806228,2,1683969816.8876312
-0.007927292,0.024513626,0.9989607,-0.0022907446,0.0030543262,0.0009162979,-0.082627356,0.25911912,9.80623,2,1683969816.8978894
-0.008902958,0.024513626,0.9994486,-0.0022907446,0.0030543262,0.0009162979,-0.082627356,0.25911912,9.80623,2,1683969816.9081504
-0.008902958,0.024513626,0.9994486,-0.0022907446,0.0030543262,0.0009162979,-0.08284293,0.25899273,9.8062315,2,1683969816.9132838
-0.008902958,0.024513626,0.9994486,-0.0010690142,0.00061086525,0.0009162979,-0.08284293,0.25899273,9.8062315,2,1683969816.9286673
-0.008902958,0.025977125,0.99847287,-0.0010690142,0.00061086525,0.0009162979,-0.08284293,0.25899273,9.8062315,2,1683969816.9491546
-0.008902958,0.025977125,0.99847287,0.00015271631,-0.006872234,-0.00030543262,-0.08284293,0.25899273,9.8062315,2,1683969816.9645047
-0.008902958,0.025977125,0.99847287,0.00015271631,-0.006872234,-0.00030543262,-0.082793586,0.2589818,9.8062315,2,1683969816.9696336
-0.008902958,0.025977125,0.99847287,0.00015271631,-0.006872234,-0.00030543262,-0.08269622,0.25893918,9.806233,2,1683969817.000343
-0.007927292,0.02695279,0.99847287,0.00015271631,-0.006872234,-0.00030543262,-0.08269622,0.25893918,9.806233,2,1683969817.0054367
-0.007927292,0.02695279,0.99847287,0.00015271631,-0.0032070426,-0.0015271631,-0.08269622,0.25893918,9.806233,2,1683969817.010572
-0.008902958,0.025489293,0.9994486,0.00015271631,-0.0032070426,-0.0015271631,-0.08269622,0.25893918,9.806233,2,1683969817.0310528
-0.008902958,0.025489293,0.9994486,0.0013744468,-0.00061086525,0.0009162979,-0.08269622,0.25893918,9.806233,2,1683969817.0412958
-0.008902958,0.025489293,0.9994486,0.0013744468,-0.00061086525,0.0009162979,-0.08263795,0.25891778,9.806234,2,1683969817.0464263
-0.010854292,0.02646496,0.99938756,0.0013744468,-0.00061086525,0.0009162979,-0.08263795,0.25891778,9.806234,2,1683969817.0669556
-0.010854292,0.02646496,0.99938756,0.00015271631,-0.00061086525,-0.00030543262,-0.08263795,0.25891778,9.806234,2,1683969817.0720496
-0.010854292,0.02646496,0.99938756,0.00015271631,-0.00061086525,-0.00030543262,-0.082575224,0.25897807,9.806233,2,1683969817.0823233
-0.010854292,0.02646496,0.99938756,-0.0010690142,-0.004428773,-0.00030543262,-0.082575224,0.25897807,9.806233,2,1683969817.1028342
-0.010427438,0.028843146,1.0003633,-0.0010690142,-0.004428773,-0.00030543262,-0.082575224,0.25897807,9.806233,2,1683969817.1079614
-0.010427438,0.028843146,1.0003633,-0.0010690142,-0.004428773,-0.00030543262,-0.0826806,0.25916627,9.806228,2,1683969817.1182592
-0.006524771,0.02646496,1.0004243,-0.0010690142,-0.004428773,-0.00030543262,-0.0826806,0.25916627,9.806228,2,1683969817.1387053
-0.006524771,0.02646496,1.0004243,-0.0010690142,-0.004428773,-0.00030543262,-0.0823847,0.25907215,9.806233,2,1683969817.1489723
-0.006524771,0.02646496,1.0004243,0.0025961774,0.00061086525,-0.00030543262,-0.0823847,0.25907215,9.806233,2,1683969817.1541016
-0.010427438,0.027440626,1.0008512,0.0025961774,0.00061086525,-0.00030543262,-0.0823847,0.25907215,9.806233,2,1683969817.1745853
-0.010427438,0.027440626,1.0008512,0.0025961774,0.00061086525,-0.00030543262,-0.08244355,0.2591692,9.806231,2,1683969817.1848505
-0.007927292,0.02695279,0.9999364,0.0025961774,0.00061086525,-0.00030543262,-0.08244355,0.2591692,9.806231,2,1683969817.189984
-0.007927292,0.02695279,0.9999364,0.0025961774,0.00061086525,-0.00030543262,-0.08252585,0.2592083,9.806228,2,1683969817.1951063
-0.007927292,0.02695279,0.9999364,-0.0010690142,-0.001985312,-0.0027488936,-0.08252585,0.2592083,9.806228,2,1683969817.205377
-0.007927292,0.02695279,0.9999364,-0.0010690142,-0.001985312,-0.0027488936,-0.082432196,0.25923067,9.806229,2,1683969817.236148
-0.008902958,0.02695279,0.9989607,-0.0010690142,-0.001985312,-0.0027488936,-0.082432196,0.25923067,9.806229,2,1683969817.2464054
-0.008902958,0.02695279,0.9989607,0.0013744468,-0.00061086525,0.0009162979,-0.082432196,0.25923067,9.806229,2,1683969817.2515304
-0.0064637917,0.025977125,0.9989607,0.0013744468,-0.00061086525,0.0009162979,-0.082432196,0.25923067,9.806229,2,1683969817.2617853
-0.0064637917,0.025977125,0.9989607,0.0013744468,0.00061086525,-0.00030543262,-0.082432196,0.25923067,9.806229,2,1683969817.2669187
-0.0064637917,0.025977125,0.9989607,0.0013744468,0.00061086525,-0.00030543262,-0.08218836,0.25919288,9.8062315,2,1683969817.277183
-0.0064637917,0.025977125,0.9989607,0.0013744468,0.00061086525,-0.00030543262,-0.08192051,0.25910822,9.806235,2,1683969817.3181908
-0.0064637917,0.025977125,0.9989607,0.00015271631,-0.00061086525,-0.00030543262,-0.08192051,0.25910822,9.806235,2,1683969817.323305
-0.008415125,0.027379647,0.9974972,0.00015271631,-0.00061086525,-0.00030543262,-0.08192051,0.25910822,9.806235,2,1683969817.3283844
-0.008902958,0.025977125,0.9989607,0.00015271631,-0.00061086525,-0.00030543262,-0.08192051,0.25910822,9.806235,2,1683969817.3436375
-0.008902958,0.025977125,0.9989607,0.00015271631,-0.00061086525,-0.00030543262,-0.08187807,0.25911215,9.806236,2,1683969817.3538747
-0.008902958,0.025977125,0.9989607,-0.0010690142,-0.00061086525,0.0009162979,-0.08187807,0.25911215,9.806236,2,1683969817.3590062
-0.008902958,0.025977125,0.99987537,-0.0010690142,-0.00061086525,0.0009162979,-0.08187807,0.25911215,9.806236,2,1683969817.3795178
-0.008902958,0.025977125,0.99987537,-0.0010690142,-0.00061086525,0.0009162979,-0.081913136,0.25918907,9.806233,2,1683969817.3949108
-0.008902958,0.025977125,0.99987537,-0.0010690142,0.00061086525,0.0009162979,-0.081913136,0.25918907,9.806233,2,1683969817.4000452
-0.008902958,0.025977125,0.99987537,0.00015271631,-0.0030543262,-0.00030543262,-0.081913136,0.25918907,9.806233,2,1683969817.4204793
-0.0070126047,0.024513626,1.001339,0.00015271631,-0.0030543262,-0.00030543262,-0.081913136,0.25918907,9.806233,2,1683969817.4255877
-0.0070126047,0.024513626,1.001339,0.00015271631,-0.0030543262,-0.00030543262,-0.08198365,0.2591212,9.806234,2,1683969817.4358037
-0.008415125,0.02695279,0.99847287,0.00015271631,-0.0030543262,-0.00030543262,-0.08198365,0.2591212,9.806234,2,1683969817.4512029
-0.008415125,0.02695279,0.99847287,0.00015271631,-0.0030543262,-0.00030543262,-0.082068436,0.25914532,9.806233,2,1683969817.4666026
-0.008415125,0.02695279,0.99847287,0.0013744468,0.00076358154,-0.0015271631,-0.082068436,0.25914532,9.806233,2,1683969817.4717383
-0.009939604,0.025001459,1.0008512,0.0013744468,0.00076358154,-0.0015271631,-0.082068436,0.25914532,9.806233,2,1683969817.4922168
-0.009939604,0.025001459,1.0008512,0.0013744468,0.00076358154,-0.0015271631,-0.082170986,0.2591222,9.806233,2,1683969817.4973485
-0.009939604,0.025001459,1.0008512,0.00015271631,0.004428773,-0.0015271631,-0.082170986,0.2591222,9.806233,2,1683969817.502478
-0.009878625,0.02695279,0.9984119,0.00015271631,0.004428773,-0.0015271631,-0.082170986,0.2591222,9.806233,2,1683969817.5229754
-0.009878625,0.02695279,0.9984119,0.00015271631,0.004428773,-0.0015271631,-0.082300715,0.25913703,9.8062315,2,1683969817.5280604
-0.009878625,0.02695279,0.9984119,0.0013744468,0.001985312,-0.0015271631,-0.082300715,0.25913703,9.8062315,2,1683969817.533149
-0.009878625,0.02695279,0.9984119,-0.0035124752,-0.00061086525,-0.00030543262,-0.082300715,0.25913703,9.8062315,2,1683969817.5484385
-0.009878625,0.02695279,0.9984119,-0.0035124752,-0.00061086525,-0.00030543262,-0.08199589,0.2589672,9.806239,2,1683969817.553572
-0.009878625,0.02695279,0.9984119,-0.0010690142,0.00076358154,0.0009162979,-0.08199589,0.2589672,9.806239,2,1683969817.5587049
-0.008415125,0.027440626,0.99938756,-0.0010690142,0.00076358154,0.0009162979,-0.08199589,0.2589672,9.806239,2,1683969817.5689614
-0.008415125,0.027440626,0.99938756,0.0013744468,-0.00045814895,0.0009162979,-0.08199589,0.2589672,9.806239,2,1683969817.604824
-0.008415125,0.027440626,0.99938756,0.0013744468,-0.00045814895,0.0009162979,-0.08193353,0.2589105,9.806241,2,1683969817.6099455
-0.0069516255,0.02646496,0.99847287,0.0013744468,-0.00045814895,0.0009162979,-0.08193353,0.2589105,9.806241,2,1683969817.6201656
-0.0069516255,0.02646496,0.99847287,0.0013744468,-0.00045814895,-0.00030543262,-0.08193353,0.2589105,9.806241,2,1683969817.6354554
-0.0069516255,0.02646496,0.99847287,0.0013744468,-0.00045814895,-0.00030543262,-0.08177333,0.2589,9.806243,2,1683969817.645618
-0.00798827,0.02646496,1.0008512,0.0013744468,-0.00045814895,-0.00030543262,-0.08177333,0.2589,9.806243,2,1683969817.6558092
-0.00798827,0.02646496,1.0008512,0.0013744468,-0.00045814895,-0.00030543262,-0.08163322,0.25891626,9.806244,2,1683969817.665962
-0.008415125,0.025977125,0.9989607,0.0013744468,-0.00045814895,-0.00030543262,-0.08163322,0.25891626,9.806244,2,1683969817.671045
-0.008415125,0.025977125,0.9989607,0.0013744468,-0.00290161,-0.0015271631,-0.08163322,0.25891626,9.806244,2,1683969817.676126
-0.0064637917,0.02646496,0.99847287,0.0013744468,-0.00290161,-0.0015271631,-0.08163322,0.25891626,9.806244,2,1683969817.7066586
-0.0064637917,0.02646496,0.99847287,0.0013744468,-0.00290161,-0.0015271631,-0.081586264,0.25890344,9.806244,2,1683969817.7117376
-0.0064637917,0.02646496,0.99847287,0.00015271631,-0.0016798794,0.0009162979,-0.081586264,0.25890344,9.806244,2,1683969817.7168214
-0.0064637917,0.02646496,0.99847287,0.00015271631,-0.0016798794,0.0009162979,-0.08139473,0.25896803,9.806244,2,1683969817.7371302
-0.0064637917,0.02646496,0.99847287,-0.0010690142,0.006872234,-0.0015271631,-0.08139473,0.25896803,9.806244,2,1683969817.7422104
-0.009390792,0.025489293,0.99987537,-0.0010690142,0.006872234,-0.0015271631,-0.08139473,0.25896803,9.806244,2,1683969817.752363
-0.009390792,0.025489293,0.99987537,0.00015271631,0.0032070426,-0.00030543262,-0.08139473,0.25896803,9.806244,2,1683969817.777752
-0.009390792,0.025489293,0.99987537,0.00015271631,0.0032070426,-0.00030543262,-0.08138837,0.25890946,9.806246,2,1683969817.7879128
-0.008902958,0.025489293,0.99987537,0.00015271631,0.0032070426,-0.00030543262,-0.08138837,0.25890946,9.806246,2,1683969817.798072
-0.008476105,0.025489293,1.001339,0.00015271631,0.0032070426,-0.00030543262,-0.08138837,0.25890946,9.806246,2,1683969817.813283
-0.008476105,0.025489293,1.001339,0.00015271631,0.0032070426,-0.00030543262,-0.08142234,0.25884986,9.806247,2,1683969817.81836
-0.008476105,0.025489293,1.001339,-0.0010690142,0.00076358154,0.0009162979,-0.08142234,0.25884986,9.806247,2,1683969817.8234417
-0.008476105,0.025489293,1.001339,-0.0010690142,0.00076358154,0.0009162979,-0.08199003,0.25853613,9.806251,2,1683969817.8335998
-0.008476105,0.025489293,1.001339,-0.0010690142,0.00076358154,-0.00030543262,-0.08199003,0.25853613,9.806251,2,1683969817.8539104
-0.0069516255,0.02646496,0.997985,-0.0010690142,0.00076358154,-0.00030543262,-0.08199003,0.25853613,9.806251,2,1683969817.8589838
-0.0069516255,0.02646496,0.997985,-0.0010690142,0.00076358154,-0.00030543262,-0.08202739,0.25852248,9.806251,2,1683969817.8792996
-0.0069516255,0.02646496,0.997985,-0.0010690142,-0.00045814895,-0.00030543262,-0.08202739,0.25852248,9.806251,2,1683969817.8894572
-0.008415125,0.025977125,0.99987537,-0.0010690142,-0.00045814895,-0.00030543262,-0.08202739,0.25852248,9.806251,2,1683969817.8996167
-0.008415125,0.025977125,0.99987537,-0.0010690142,-0.00045814895,-0.00030543262,-0.082208,0.25857344,9.806247,2,1683969817.9046955
-0.0074394583,0.02646496,0.99987537,-0.0010690142,-0.00045814895,-0.00030543262,-0.082208,0.25857344,9.806247,2,1683969817.909769
-0.0074394583,0.02646496,0.99987537,-0.0010690142,0.0056505036,-0.0015271631,-0.082208,0.25857344,9.806247,2,1683969817.9250026
-0.0069516255,0.027440626,0.9994486,-0.0010690142,0.0056505036,-0.0015271631,-0.082208,0.25857344,9.806247,2,1683969817.9503596
-0.0069516255,0.027440626,0.9994486,0.00015271631,-0.00045814895,-0.0015271631,-0.082208,0.25857344,9.806247,2,1683969817.955442
-0.0069516255,0.027440626,0.9994486,0.00015271631,-0.00045814895,-0.0015271631,-0.082272924,0.25865287,9.806245,2,1683969817.970668
-0.008963938,0.027440626,1.0003633,0.00015271631,-0.00045814895,-0.0015271631,-0.082272924,0.25865287,9.806245,2,1683969817.9909778
-0.008963938,0.027440626,1.0003633,0.00015271631,-0.00045814895,-0.0015271631,-0.08240558,0.25867692,9.806243,2,1683969817.9960568
-0.008963938,0.027440626,1.0003633,0.00015271631,0.001985312,0.0021380284,-0.08240558,0.25867692,9.806243,2,1683969818.0062141
-0.0074394583,0.027440626,0.9989607,0.00015271631,0.001985312,0.0021380284,-0.08240558,0.25867692,9.806243,2,1683969818.0214489
-0.0074394583,0.027440626,0.9989607,0.00015271631,-0.00045814895,-0.0015271631,-0.08240558,0.25867692,9.806243,2,1683969818.0316072
-0.0074394583,0.027440626,0.9989607,0.00015271631,-0.00045814895,-0.0015271631,-0.08256998,0.25868452,9.806241,2,1683969818.036728
-0.0074394583,0.027440626,0.9989607,0.00015271631,-0.00045814895,-0.0015271631,-0.08262608,0.25876245,9.806239,2,1683969818.0520253
-0.0074394583,0.027440626,0.9989607,0.0013744468,0.001985312,0.0009162979,-0.08262608,0.25876245,9.806239,2,1683969818.057154
-0.010366458,0.027440626,0.99938756,0.0013744468,0.001985312,0.0009162979,-0.08262608,0.25876245,9.806239,2,1683969818.0724757
-0.010366458,0.027440626,0.99938756,0.00015271631,-0.0016798794,0.0009162979,-0.08262608,0.25876245,9.806239,2,1683969818.0929651
-0.010366458,0.027440626,0.99938756,0.00015271631,-0.0016798794,0.0009162979,-0.0829641,0.2589537,9.806231,2,1683969818.0980961
-0.009878625,0.024513626,0.9984119,0.00015271631,-0.0016798794,0.0009162979,-0.0829641,0.2589537,9.806231,2,1683969818.103185
-0.009878625,0.024513626,0.9984119,0.00015271631,0.001985312,-0.00030543262,-0.0829641,0.2589537,9.806231,2,1683969818.1134486
-0.009878625,0.024513626,0.9984119,0.00015271631,0.001985312,-0.00030543262,-0.08311892,0.25906086,9.806227,2,1683969818.1338902
-0.009878625,0.024513626,0.9984119,0.0025961774,-0.00045814895,0.0009162979,-0.08311892,0.25906086,9.806227,2,1683969818.138982
-0.009390792,0.02695279,0.9988997,0.0025961774,-0.00045814895,0.0009162979,-0.08311892,0.25906086,9.806227,2,1683969818.1542988
-0.009390792,0.02695279,0.9988997,0.0025961774,-0.00045814895,0.0009162979,-0.08291931,0.25906053,9.806229,2,1683969818.1594248
-0.009390792,0.02695279,0.9988997,0.00015271631,-0.0016798794,-0.0015271631,-0.08291931,0.25906053,9.806229,2,1683969818.1696837
-0.0075004376,0.02792846,1.0008512,0.00015271631,-0.0016798794,-0.0015271631,-0.08291931,0.25906053,9.806229,2,1683969818.190203
-0.0075004376,0.02792846,1.0008512,0.00015271631,0.00076358154,-0.0015271631,-0.08291931,0.25906053,9.806229,2,1683969818.2004623
-0.0075004376,0.02792846,1.0008512,0.00015271631,0.00076358154,-0.0015271631,-0.08274947,0.25912824,9.806229,2,1683969818.2158594
-0.0075004376,0.02792846,1.0008512,0.00015271631,0.00076358154,-0.0015271631,-0.08267585,0.2591934,9.806228,2,1683969818.2311928
-0.0075004376,0.02792846,1.0008512,-0.0010690142,-0.0016798794,0.0021380284,-0.08267585,0.2591934,9.806228,2,1683969818.236286
-0.009451771,0.027440626,1.001339,-0.0010690142,-0.0016798794,0.0021380284,-0.08267585,0.2591934,9.806228,2,1683969818.2464614
-0.009451771,0.027440626,1.001339,0.0013744468,0.004428773,-0.00030543262,-0.08267585,0.2591934,9.806228,2,1683969818.256704
-0.008963938,0.027440626,0.99987537,0.0013744468,0.004428773,-0.00030543262,-0.08267585,0.2591934,9.806228,2,1683969818.261833
-0.008963938,0.027440626,0.99987537,0.0013744468,0.004428773,-0.00030543262,-0.082542494,0.25920317,9.806228,2,1683969818.272086
-0.006524771,0.02646496,1.0009121,0.0013744468,0.004428773,-0.00030543262,-0.082542494,0.25920317,9.806228,2,1683969818.2925951
-0.006524771,0.02646496,1.0009121,0.0013744468,0.004428773,-0.00030543262,-0.08250999,0.2591951,9.806229,2,1683969818.3079877
-0.006524771,0.02646496,1.0009121,-0.0010690142,-0.0018325958,-0.00030543262,-0.08250999,0.2591951,9.806229,2,1683969818.3131206
-0.006524771,0.02646496,1.0009121,0.00015271631,0.001985312,-0.00030543262,-0.08250999,0.2591951,9.806229,2,1683969818.3437786
-0.0074394583,0.025977125,0.9989607,0.00015271631,0.001985312,-0.00030543262,-0.08250999,0.2591951,9.806229,2,1683969818.3488655
-0.0074394583,0.025977125,0.9989607,0.00015271631,0.001985312,-0.00030543262,-0.08245539,0.25921232,9.806229,2,1683969818.3539975
-0.0074394583,0.025977125,0.9989607,0.00015271631,0.0032070426,-0.00030543262,-0.08245539,0.25921232,9.806229,2,1683969818.3693905
-0.0074394583,0.025977125,0.9989607,0.0025961774,0.00076358154,-0.0015271631,-0.08245539,0.25921232,9.806229,2,1683969818.374521
-0.008902958,0.025489293,0.9974972,0.0025961774,0.00076358154,-0.0015271631,-0.08245539,0.25921232,9.806229,2,1683969818.3796482
-0.008902958,0.025489293,0.9974972,0.0025961774,0.00076358154,-0.0015271631,-0.08367693,0.2587647,9.80623,2,1683969818.4001691
-0.007927292,0.02646496,0.9965216,0.0025961774,0.00076358154,-0.0015271631,-0.08367693,0.2587647,9.80623,2,1683969818.4154873
-0.007927292,0.02646496,0.9965216,0.0025961774,0.00076358154,-0.0015271631,-0.08360744,0.25882533,9.806229,2,1683969818.4257393
-0.007927292,0.02646496,0.9965216,-0.0010690142,0.0032070426,0.0009162979,-0.08360744,0.25882533,9.806229,2,1683969818.4359796
-0.008902958,0.025977125,0.9979241,-0.0010690142,0.0032070426,0.0009162979,-0.08360744,0.25882533,9.806229,2,1683969818.4615824
-0.008902958,0.025977125,0.9979241,0.00015271631,-0.00045814895,-0.00030543262,-0.08360744,0.25882533,9.806229,2,1683969818.4718049
-0.008902958,0.025977125,0.9979241,0.00015271631,-0.00045814895,-0.00030543262,-0.08377347,0.25879323,9.806229,2,1683969818.4768982
-0.008902958,0.025977125,0.9979241,0.00015271631,-0.00045814895,-0.00030543262,-0.08375166,0.25881705,9.806229,2,1683969818.4974146
-0.0069516255,0.02646496,0.9988997,0.00015271631,-0.00045814895,-0.00030543262,-0.08375166,0.25881705,9.806229,2,1683969818.5025468
-0.0069516255,0.02646496,0.9988997,-0.0010690142,0.004428773,0.0009162979,-0.08375166,0.25881705,9.806229,2,1683969818.5128012
-0.0069516255,0.02646496,0.9988997,-0.0010690142,0.004428773,0.0009162979,-0.08384809,0.25876778,9.806229,2,1683969818.517894
-0.008415125,0.02646496,0.99938756,-0.0010690142,0.004428773,0.0009162979,-0.08384809,0.25876778,9.806229,2,1683969818.5281572
-0.008415125,0.02646496,0.99938756,-0.0022907446,-0.005497787,0.0009162979,-0.08384809,0.25876778,9.806229,2,1683969818.54858
-0.008415125,0.02646496,0.99938756,-0.0022907446,-0.005497787,0.0009162979,-0.083627045,0.25860703,9.806234,2,1683969818.553667
-0.008415125,0.023537958,0.99938756,-0.0022907446,-0.005497787,0.0009162979,-0.083627045,0.25860703,9.806234,2,1683969818.5742173
-0.008415125,0.023537958,0.99938756,-0.0010690142,0.00076358154,0.0009162979,-0.083627045,0.25860703,9.806234,2,1683969818.5793145
-0.009939604,0.02792846,1.0003633,-0.0010690142,0.00076358154,0.0009162979,-0.083627045,0.25860703,9.806234,2,1683969818.5998578
-0.009939604,0.02792846,1.0003633,0.0013744468,0.001985312,-0.00030543262,-0.083627045,0.25860703,9.806234,2,1683969818.6101124
-0.009939604,0.02792846,1.0003633,0.0013744468,0.001985312,-0.00030543262,-0.08384159,0.25852597,9.806234,2,1683969818.6203294
-0.009939604,0.02792846,1.0003633,0.0013744468,0.001985312,-0.00030543262,-0.08392029,0.25862685,9.8062315,2,1683969818.640853
-0.009390792,0.025977125,0.9974972,0.0013744468,0.001985312,-0.00030543262,-0.08392029,0.25862685,9.8062315,2,1683969818.6510391
-0.007927292,0.025977125,0.99987537,0.0013744468,0.001985312,-0.00030543262,-0.08392029,0.25862685,9.8062315,2,1683969818.6612427
-0.007927292,0.025977125,0.99987537,-0.0035124752,-0.0030543262,0.0009162979,-0.08392029,0.25862685,9.8062315,2,1683969818.6663616
-0.007927292,0.025977125,0.99987537,-0.0035124752,-0.0030543262,0.0009162979,-0.083890624,0.25855723,9.806233,2,1683969818.671483
-0.007927292,0.025977125,0.99987537,-0.0035124752,-0.0030543262,0.0009162979,-0.083824046,0.25842664,9.806238,2,1683969818.7021766
-0.007927292,0.025977125,0.99987537,-0.0010690142,0.00076358154,0.0009162979,-0.083824046,0.25842664,9.806238,2,1683969818.7123795
-0.008415125,0.025977125,0.997985,-0.0010690142,0.00076358154,0.0009162979,-0.083824046,0.25842664,9.806238,2,1683969818.7226138
-0.008415125,0.025977125,0.997985,0.0013744468,-0.00045814895,0.0009162979,-0.083824046,0.25842664,9.806238,2,1683969818.7482076
-0.008415125,0.025977125,0.997985,0.0013744468,-0.00045814895,0.0009162979,-0.08386217,0.25835565,9.806239,2,1683969818.7533007
-0.0069516255,0.025489293,0.9994486,0.0013744468,-0.00045814895,0.0009162979,-0.08386217,0.25835565,9.806239,2,1683969818.758387
-0.0070126047,0.02695279,1.0003633,0.0013744468,-0.00045814895,0.0009162979,-0.08386217,0.25835565,9.806239,2,1683969818.7737014
-0.0070126047,0.02695279,1.0003633,0.0013744468,-0.00045814895,0.0009162979,-0.083828665,0.25837275,9.806239,2,1683969818.7891
-0.0070126047,0.02695279,1.0003633,0.00015271631,-0.00045814895,-0.00030543262,-0.083828665,0.25837275,9.806239,2,1683969818.7942328
-0.0070126047,0.02695279,1.0003633,-0.0022907446,-0.0018325958,0.0009162979,-0.083828665,0.25837275,9.806239,2,1683969818.814673
-0.0070126047,0.02695279,1.0003633,-0.0022907446,-0.0018325958,0.0009162979,-0.08388188,0.25853115,9.806234,2,1683969818.8198044
-0.007927292,0.025489293,0.9988997,-0.0022907446,-0.0018325958,0.0009162979,-0.08388188,0.25853115,9.806234,2,1683969818.8249383
-0.008902958,0.027440626,0.9984119,-0.0022907446,-0.0018325958,0.0009162979,-0.08388188,0.25853115,9.806234,2,1683969818.8454657
-0.008902958,0.027440626,0.9984119,-0.0022907446,-0.0018325958,0.0009162979,-0.0838759,0.2583409,9.806239,2,1683969818.860724
-0.008902958,0.027440626,0.9984119,-0.0010690142,-0.00045814895,0.0009162979,-0.0838759,0.2583409,9.806239,2,1683969818.8658547
-0.008902958,0.02695279,0.99938756,-0.0010690142,-0.00045814895,0.0009162979,-0.0838759,0.2583409,9.806239,2,1683969818.8709855
-0.008902958,0.02695279,0.99938756,0.0013744468,-0.00045814895,0.0021380284,-0.0838759,0.2583409,9.806239,2,1683969818.886374
-0.008902958,0.02695279,0.99938756,0.0013744468,-0.00045814895,0.0021380284,-0.08381398,0.25840455,9.806238,2,1683969818.8914983
-0.008902958,0.02695279,0.99938756,0.0013744468,-0.00045814895,0.0021380284,-0.08363735,0.2584154,9.806239,2,1683969818.9171014
-0.0069516255,0.025001459,0.99847287,0.0013744468,-0.00045814895,0.0021380284,-0.08363735,0.2584154,9.806239,2,1683969818.927325
-0.0069516255,0.025001459,0.99847287,0.00015271631,-0.0016798794,-0.0015271631,-0.08363735,0.2584154,9.806239,2,1683969818.937585
-0.0069516255,0.025001459,0.99847287,0.00015271631,-0.0016798794,-0.0015271631,-0.082954526,0.25883135,9.806234,2,1683969818.9427183
-0.0069516255,0.025001459,0.99847287,0.00015271631,-0.0016798794,-0.0015271631,-0.082992606,0.25884256,9.806233,2,1683969818.952936
-0.0069516255,0.025001459,0.99847287,0.0013744468,0.001985312,0.0009162979,-0.082992606,0.25884256,9.806233,2,1683969818.968262
-0.0059759584,0.028843146,0.9989607,0.0013744468,0.001985312,0.0009162979,-0.082992606,0.25884256,9.806233,2,1683969818.978522
-0.0074394583,0.025489293,0.99847287,0.0013744468,0.001985312,0.0009162979,-0.082992606,0.25884256,9.806233,2,1683969818.9836538
-0.0074394583,0.025489293,0.99847287,0.0013744468,0.001985312,0.0009162979,-0.08300055,0.25894186,9.8062315,2,1683969818.9990022
-0.0074394583,0.025489293,0.99847287,0.0013744468,0.00076358154,-0.00030543262,-0.08300055,0.25894186,9.8062315,2,1683969819.0092735
-0.008415125,0.02695279,0.99847287,0.0013744468,0.00076358154,-0.00030543262,-0.08300055,0.25894186,9.8062315,2,1683969819.0297832
-0.008415125,0.02695279,0.99847287,0.0013744468,0.00076358154,-0.00030543262,-0.08316086,0.2588796,9.8062315,2,1683969819.034918
-0.008415125,0.02695279,0.99847287,-0.0022907446,-0.0018325958,-0.00030543262,-0.08316086,0.2588796,9.8062315,2,1683969819.0503335
-0.008415125,0.02695279,0.99847287,-0.0022907446,-0.0018325958,-0.00030543262,-0.08310711,0.25871804,9.806236,2,1683969819.0605917
-0.009878625,0.02646496,0.99938756,-0.0022907446,-0.0018325958,-0.00030543262,-0.08310711,0.25871804,9.806236,2,1683969819.0708508
-0.009878625,0.02646496,0.99938756,0.00015271631,-0.0016798794,0.0021380284,-0.08310711,0.25871804,9.806236,2,1683969819.0811129
-0.008902958,0.025977125,0.997985,0.00015271631,-0.0016798794,0.0021380284,-0.08310711,0.25871804,9.806236,2,1683969819.0913327
-0.008902958,0.025977125,0.997985,0.00015271631,-0.0016798794,0.0021380284,-0.0832866,0.25884452,9.8062315,2,1683969819.10159
-0.008902958,0.025977125,0.997985,0.00015271631,0.0056505036,0.0009162979,-0.0832866,0.25884452,9.8062315,2,1683969819.106725
-0.008902958,0.025977125,0.997985,0.00015271631,0.0056505036,0.0009162979,-0.08339804,0.2588629,9.80623,2,1683969819.1323025
-0.008902958,0.025977125,0.997985,0.0013744468,0.00076358154,0.0009162979,-0.08339804,0.2588629,9.80623,2,1683969819.137433
-0.008415125,0.02695279,0.9969484,0.0013744468,0.00076358154,0.0009162979,-0.08339804,0.2588629,9.80623,2,1683969819.152815
-0.008415125,0.02695279,0.9969484,0.0013744468,-0.00045814895,-0.0015271631,-0.08339804,0.2588629,9.80623,2,1683969819.1784215
-0.007927292,0.02646496,0.9974363,0.0013744468,-0.00045814895,-0.0015271631,-0.08339804,0.2588629,9.80623,2,1683969819.1835525
-0.007927292,0.02646496,0.9974363,0.0013744468,-0.00045814895,-0.0015271631,-0.0833625,0.25897598,9.806228,2,1683969819.1937997
-0.007927292,0.02646496,0.9974363,0.0013744468,-0.0016798794,0.0009162979,-0.0833625,0.25897598,9.806228,2,1683969819.2040715
-0.00798827,0.02792846,1.0008512,0.0013744468,-0.0016798794,0.0009162979,-0.0833625,0.25897598,9.806228,2,1683969819.2143383
-0.00798827,0.02792846,1.0008512,0.0013744468,0.00076358154,-0.00030543262,-0.0833625,0.25897598,9.806228,2,1683969819.2194645
-0.00798827,0.02792846,1.0008512,0.0013744468,0.00076358154,-0.00030543262,-0.08432197,0.25963917,9.806202,2,1683969819.2245975
-0.008902958,0.02695279,0.9984119,0.0013744468,0.00076358154,-0.00030543262,-0.08432197,0.25963917,9.806202,2,1683969819.2553334
-0.008902958,0.02695279,0.9984119,0.0013744468,0.00076358154,-0.00030543262,-0.08420745,0.2597885,9.806198,2,1683969819.2604642
-0.008902958,0.02695279,0.9984119,0.0013744468,0.001985312,0.0009162979,-0.08420745,0.2597885,9.806198,2,1683969819.2656002
-0.007927292,0.025977125,0.99987537,0.0013744468,0.001985312,0.0009162979,-0.08420745,0.2597885,9.806198,2,1683969819.2809913
-0.007927292,0.025977125,0.99987537,0.00015271631,0.0018325958,-0.00030543262,-0.08420745,0.2597885,9.806198,2,1683969819.29633
-0.007927292,0.025977125,0.99987537,0.00015271631,0.0018325958,-0.00030543262,-0.08425097,0.25981665,9.806197,2,1683969819.3117206
-0.008902958,0.02786748,0.9969484,0.00015271631,0.0018325958,-0.00030543262,-0.08425097,0.25981665,9.806197,2,1683969819.3168478
-0.008902958,0.02786748,0.9969484,-0.0010690142,0.009162978,-0.00030543262,-0.08425097,0.25981665,9.806197,2,1683969819.3219895
-0.008902958,0.02786748,0.9969484,-0.0010690142,0.009162978,-0.00030543262,-0.084380716,0.25976536,9.806197,2,1683969819.3271232
-0.007927292,0.024025792,0.9989607,-0.0010690142,0.009162978,-0.00030543262,-0.084380716,0.25976536,9.806197,2,1683969819.3527706
-0.007927292,0.024025792,0.9989607,0.00015271631,0.0018325958,-0.00030543262,-0.084380716,0.25976536,9.806197,2,1683969819.3732753
-0.007927292,0.024025792,0.9989607,0.00015271631,0.0018325958,-0.00030543262,-0.08469029,0.2597301,9.806196,2,1683969819.3835325
-0.008902958,0.02646496,0.9989607,0.00015271631,0.0018325958,-0.00030543262,-0.08469029,0.2597301,9.806196,2,1683969819.3989186
-0.008902958,0.02646496,0.9989607,0.00015271631,0.0018325958,0.0009162979,-0.08469029,0.2597301,9.806196,2,1683969819.4040473
-0.008902958,0.02646496,0.9989607,0.00015271631,0.0018325958,0.0009162979,-0.08470049,0.2596939,9.806197,2,1683969819.409154
-0.008902958,0.02646496,0.9989607,0.00015271631,0.0018325958,0.0009162979,-0.08477953,0.25967783,9.806196,2,1683969819.4295943
-0.0069516255,0.02646496,0.997985,0.00015271631,0.0018325958,0.0009162979,-0.08477953,0.25967783,9.806196,2,1683969819.439847
-0.0069516255,0.02646496,0.997985,-0.0010690142,0.0030543262,0.0009162979,-0.08477953,0.25967783,9.806196,2,1683969819.4552007
-0.0069516255,0.02646496,0.997985,0.00015271631,-0.0018325958,0.0009162979,-0.08477953,0.25967783,9.806196,2,1683969819.4654546
-0.0069516255,0.02646496,0.997985,0.00015271631,-0.0018325958,0.0009162979,-0.084662646,0.25960925,9.8062,2,1683969819.4705844
-0.008415125,0.025489293,0.997985,0.00015271631,-0.0018325958,0.0009162979,-0.084662646,0.25960925,9.8062,2,1683969819.4757168
-0.008415125,0.025489293,0.997985,0.00015271631,-0.0018325958,0.0009162979,-0.08542801,0.25983906,9.806187,2,1683969819.4911096
-0.007927292,0.027440626,0.99847287,0.00015271631,-0.0018325958,0.0009162979,-0.08542801,0.25983906,9.806187,2,1683969819.5013673
-0.007927292,0.027440626,0.99847287,0.0013744468,0.004276057,0.0009162979,-0.08542801,0.25983906,9.806187,2,1683969819.5065033
-0.007927292,0.027440626,0.99847287,-0.0022907446,0.004276057,0.0009162979,-0.08542801,0.25983906,9.806187,2,1683969819.5116353
-0.0074394583,0.02786748,0.9974972,-0.0022907446,0.004276057,0.0009162979,-0.08542801,0.25983906,9.806187,2,1683969819.5269747
-0.0074394583,0.02786748,0.9974972,-0.0022907446,0.004276057,0.0009162979,-0.08565256,0.2600182,9.80618,2,1683969819.5372357
-0.0074394583,0.02786748,0.9974972,-0.0022907446,0.004276057,0.0009162979,-0.08600379,0.26001284,9.806177,2,1683969819.567989
-0.008963938,0.025977125,1.0008512,-0.0022907446,0.004276057,0.0009162979,-0.08600379,0.26001284,9.806177,2,1683969819.5731204
-0.008963938,0.025977125,1.0008512,0.0013744468,0.00061086525,0.0009162979,-0.08600379,0.26001284,9.806177,2,1683969819.578253
-0.007927292,0.023537958,0.99847287,0.0013744468,0.00061086525,0.0009162979,-0.08600379,0.26001284,9.806177,2,1683969819.5987284
-0.007927292,0.023537958,0.99847287,0.0013744468,0.00061086525,-0.0027488936,-0.08600379,0.26001284,9.806177,2,1683969819.6038594
-0.007927292,0.023537958,0.99847287,0.0013744468,0.00061086525,-0.0027488936,-0.0859246,0.26001614,9.806177,2,1683969819.6141202
-0.007927292,0.023537958,0.99847287,0.0025961774,-0.0018325958,-0.0015271631,-0.0859246,0.26001614,9.806177,2,1683969819.6294332
-0.0074394583,0.02646496,0.9994486,0.0025961774,-0.0018325958,-0.0015271631,-0.0859246,0.26001614,9.806177,2,1683969819.6345623
-0.0074394583,0.02646496,0.9994486,0.0025961774,-0.0018325958,-0.0015271631,-0.08604814,0.25993055,9.806179,2,1683969819.6499622
-0.007927292,0.02786748,0.997985,0.0025961774,-0.0018325958,-0.0015271631,-0.08604814,0.25993055,9.806179,2,1683969819.6602404
-0.007927292,0.02786748,0.997985,0.0025961774,-0.0018325958,-0.0015271631,-0.08616505,0.26009166,9.806173,2,1683969819.670462
-0.007927292,0.02786748,0.997985,0.00015271631,0.007941248,-0.0015271631,-0.08616505,0.26009166,9.806173,2,1683969819.6806395
-0.008902958,0.02695279,0.99938756,-0.0022907446,-0.00076358154,0.0009162979,-0.08632084,0.26007953,9.806172,2,1683969819.6961937
-0.008902958,0.02695279,0.99938756,-0.0022907446,-0.00076358154,0.0009162979,-0.08631956,0.26018673,9.8061695,2,1683969819.70131
-0.00798827,0.02646496,1.0018268,-0.0022907446,-0.00076358154,0.0009162979,-0.08631956,0.26018673,9.8061695,2,1683969819.7064679
-0.00798827,0.02646496,1.0018268,0.00015271631,-0.0018325958,0.0009162979,-0.08631956,0.26018673,9.8061695,2,1683969819.7166588
-0.00798827,0.02646496,1.0018268,0.00015271631,-0.0018325958,0.0009162979,-0.086004645,0.25981635,9.806182,2,1683969819.7269278
-0.00798827,0.02646496,1.0018268,-0.0010690142,-0.001985312,-0.00030543262,-0.086004645,0.25981635,9.806182,2,1683969819.742285
-0.00798827,0.02646496,1.0018268,-0.0010690142,-0.001985312,-0.00030543262,-0.0860298,0.25988945,9.80618,2,1683969819.7474082
-0.012378771,0.028355313,1.0003633,-0.0010690142,-0.001985312,-0.00030543262,-0.0860298,0.25988945,9.80618,2,1683969819.757663
-0.0074394583,0.02695279,0.9994486,-0.0010690142,-0.001985312,-0.00030543262,-0.0860298,0.25988945,9.80618,2,1683969819.7730837
-0.0074394583,0.02695279,0.9994486,-0.0010690142,-0.00061086525,-0.00030543262,-0.0860298,0.25988945,9.80618,2,1683969819.778226
-0.0074394583,0.02695279,0.9994486,-0.0010690142,-0.00061086525,-0.00030543262,-0.08597295,0.2599095,9.80618,2,1683969819.7935762
-0.0074394583,0.02695279,0.9994486,0.0013744468,0.00061086525,-0.0015271631,-0.08597295,0.2599095,9.80618,2,1683969819.8037937
-0.0074394583,0.02695279,0.9994486,0.0013744468,0.00061086525,-0.0015271631,-0.08602011,0.25992852,9.806179,2,1683969819.814017
-0.009878625,0.027440626,0.99938756,0.0013744468,0.00061086525,-0.0015271631,-0.08602011,0.25992852,9.806179,2,1683969819.8345342
-0.009878625,0.027440626,0.99938756,0.0013744468,0.00061086525,-0.0015271631,-0.086009786,0.2599996,9.806177,2,1683969819.8396566
-0.009878625,0.027440626,0.99938756,0.00015271631,-0.0018325958,-0.0015271631,-0.086009786,0.2599996,9.806177,2,1683969819.8447883
-0.008415125,0.027440626,0.997985,0.00015271631,-0.0018325958,-0.0015271631,-0.086009786,0.2599996,9.806177,2,1683969819.8653038
-0.008415125,0.027440626,0.997985,0.00015271631,-0.0018325958,-0.0015271631,-0.08602475,0.26004425,9.806176,2,1683969819.8755565
-0.00798827,0.025489293,1.0008512,0.00015271631,-0.0018325958,-0.0015271631,-0.08602475,0.26004425,9.806176,2,1683969819.896071
-0.00798827,0.025489293,1.0008512,0.00015271631,-0.00061086525,-0.00030543262,-0.08602475,0.26004425,9.806176,2,1683969819.9012034
-0.00798827,0.025489293,1.0008512,-0.0022907446,-0.0032070426,-0.00030543262,-0.08602475,0.26004425,9.806176,2,1683969819.9217062
-0.00798827,0.025489293,1.0008512,-0.0022907446,-0.0032070426,-0.00030543262,-0.086026765,0.25994468,9.806179,2,1683969819.926837
-0.00798827,0.02841629,1.0003633,-0.0022907446,-0.0032070426,-0.00030543262,-0.086026765,0.25994468,9.806179,2,1683969819.9422255
-0.008415125,0.02646496,0.9970094,-0.0022907446,-0.0032070426,-0.00030543262,-0.086026765,0.25994468,9.806179,2,1683969819.952441
-0.008415125,0.02646496,0.9970094,-0.0022907446,-0.0032070426,-0.00030543262,-0.08585008,0.2597874,9.806184,2,1683969819.9575768
-0.008415125,0.02646496,0.9970094,0.00015271631,0.0018325958,0.0009162979,-0.08585008,0.2597874,9.806184,2,1683969819.962706
-0.008902958,0.02695279,0.99987537,0.00015271631,0.0018325958,0.0009162979,-0.08585008,0.2597874,9.806184,2,1683969819.9780834
-0.008902958,0.02695279,0.99987537,0.00015271631,0.0018325958,0.0009162979,-0.08650715,0.26034087,9.806164,2,1683969819.9831698
-0.008902958,0.02695279,0.99987537,0.00015271631,0.00061086525,0.0009162979,-0.08650715,0.26034087,9.806164,2,1683969819.988303
-0.007927292,0.02695279,0.99938756,0.00015271631,0.00061086525,0.0009162979,-0.08650715,0.26034087,9.806164,2,1683969820.008819
-0.007927292,0.02695279,0.99938756,0.00015271631,0.00061086525,0.0009162979,-0.08636312,0.26044005,9.806162,2,1683969820.0190668
-0.007927292,0.02695279,0.99938756,0.00015271631,0.00061086525,-0.0015271631,-0.08636312,0.26044005,9.806162,2,1683969820.0241978
-0.008902958,0.02695279,0.99987537,0.00015271631,0.00061086525,-0.0015271631,-0.08636312,0.26044005,9.806162,2,1683969820.0498278
-0.008902958,0.02695279,0.99987537,-0.0010690142,-0.001985312,-0.00030543262,-0.08636312,0.26044005,9.806162,2,1683969820.0600917
-0.008902958,0.02695279,0.99987537,-0.0010690142,-0.001985312,-0.00030543262,-0.08650193,0.26048845,9.80616,2,1683969820.0652227
-0.008902958,0.025001459,0.9974972,-0.0010690142,-0.001985312,-0.00030543262,-0.08650193,0.26048845,9.80616,2,1683969820.0908446
-0.008902958,0.025001459,0.9974972,-0.0010690142,-0.001985312,-0.00030543262,-0.08648677,0.26028016,9.806166,2,1683969820.1011038
-0.008902958,0.025001459,0.9974972,-0.0010690142,-0.00061086525,0.0009162979,-0.08648677,0.26028016,9.806166,2,1683969820.106237
-0.008902958,0.025001459,0.9974972,-0.0010690142,0.00061086525,0.0009162979,-0.08648677,0.26028016,9.806166,2,1683969820.1215856
-0.008902958,0.025001459,0.9974972,-0.0010690142,0.00061086525,0.0009162979,-0.086512126,0.26018986,9.806168,2,1683969820.136962
-0.008415125,0.02695279,0.9970094,-0.0010690142,0.00061086525,0.0009162979,-0.086512126,0.26018986,9.806168,2,1683969820.1420946
-0.008415125,0.02695279,0.9970094,-0.0022907446,-0.001985312,0.0009162979,-0.086512126,0.26018986,9.806168,2,1683969820.1471856
-0.008415125,0.02695279,0.9970094,-0.0022907446,-0.001985312,0.0009162979,-0.08650729,0.25995177,9.806174,2,1683969820.1574488
-0.008902958,0.02695279,0.99938756,-0.0022907446,-0.001985312,0.0009162979,-0.08650729,0.25995177,9.806174,2,1683969820.1625826
-0.008902958,0.02695279,0.99938756,-0.0022907446,-0.001985312,0.0009162979,-0.08637688,0.2597699,9.80618,2,1683969820.193309
-0.0074394583,0.02646496,0.9989607,-0.0022907446,-0.001985312,0.0009162979,-0.08637688,0.2597699,9.80618,2,1683969820.198429
-0.0074394583,0.02646496,0.9989607,0.00015271631,-0.0018325958,-0.00030543262,-0.08637688,0.2597699,9.80618,2,1683969820.2035565
-0.0074394583,0.02646496,0.9989607,0.00015271631,0.00061086525,-0.0015271631,-0.08637688,0.2597699,9.80618,2,1683969820.2292118
-0.0074394583,0.02646496,0.9989607,0.00015271631,0.00061086525,-0.0015271631,-0.08643141,0.25968578,9.806182,2,1683969820.2343423
-0.009390792,0.02646496,0.99938756,0.00015271631,0.00061086525,-0.0015271631,-0.08643141,0.25968578,9.806182,2,1683969820.2394378
-0.009390792,0.02646496,0.99938756,0.0013744468,-0.00061086525,0.0009162979,-0.08643141,0.25968578,9.806182,2,1683969820.2599545
-0.009390792,0.02646496,0.99938756,0.0013744468,-0.00061086525,0.0009162979,-0.085600674,0.25904894,9.806206,2,1683969820.2650878
-0.008415125,0.025977125,0.9988997,0.0013744468,-0.00061086525,0.0009162979,-0.085600674,0.25904894,9.806206,2,1683969820.2753103
-0.009390792,0.025977125,0.9988997,0.0013744468,-0.00061086525,0.0009162979,-0.085600674,0.25904894,9.806206,2,1683969820.3009546
-0.009390792,0.025977125,0.9988997,-0.0035124752,-0.001985312,0.0009162979,-0.085600674,0.25904894,9.806206,2,1683969820.3111742
-0.009390792,0.025977125,0.9988997,-0.0035124752,-0.001985312,0.0009162979,-0.085545786,0.2591502,9.806204,2,1683969820.3163066
-0.009390792,0.025977125,0.9988997,-0.0010690142,-0.001985312,-0.0015271631,-0.085545786,0.2591502,9.806204,2,1683969820.3419576
-0.009390792,0.025977125,0.9988997,-0.0010690142,-0.001985312,-0.0015271631,-0.08548571,0.25909528,9.806206,2,1683969820.347094
-0.008415125,0.027440626,0.99938756,-0.0010690142,-0.001985312,-0.0015271631,-0.08548571,0.25909528,9.806206,2,1683969820.3522298
-0.007927292,0.027440626,0.9984119,-0.0010690142,-0.001985312,-0.0015271631,-0.08548571,0.25909528,9.806206,2,1683969820.3676114
-0.007927292,0.027440626,0.9984119,-0.0010690142,-0.001985312,-0.0015271631,-0.085500695,0.25907448,9.806206,2,1683969820.3727057
-0.007927292,0.027440626,0.9984119,0.0025961774,-0.0030543262,-0.0015271631,-0.085500695,0.25907448,9.806206,2,1683969820.3829129
-0.007927292,0.027440626,0.9984119,-0.0010690142,0.005497787,0.0033597588,-0.085500695,0.25907448,9.806206,2,1683969820.4187536
-0.008415125,0.027440626,0.997985,-0.0010690142,0.005497787,0.0033597588,-0.085500695,0.25907448,9.806206,2,1683969820.423877
-0.008415125,0.027440626,0.997985,-0.0010690142,0.005497787,0.0033597588,-0.08547403,0.2591283,9.806208,2,1683969820.4290063
-0.009939604,0.027440626,1.0003633,-0.0010690142,0.005497787,0.0033597588,-0.08547403,0.2591283,9.806208,2,1683969820.4545379
-0.009939604,0.027440626,1.0003633,-0.0010690142,0.005497787,0.0033597588,-0.08550476,0.25916746,9.806204,2,1683969820.4596605
-0.009939604,0.027440626,1.0003633,0.00015271631,-0.0018325958,0.0021380284,-0.08550476,0.25916746,9.806204,2,1683969820.4647906
-0.009390792,0.02646496,0.9988997,0.00015271631,-0.0018325958,0.0021380284,-0.08550476,0.25916746,9.806204,2,1683969820.4750051
-0.009390792,0.02646496,0.9988997,0.00015271631,-0.0018325958,0.0021380284,-0.08548264,0.25912538,9.806205,2,1683969820.485267
-0.009390792,0.02646496,0.9988997,-0.0010690142,-0.00061086525,0.0009162979,-0.08548264,0.25912538,9.806205,2,1683969820.4903953
-0.009390792,0.02646496,0.9988997,-0.0010690142,-0.00061086525,0.0009162979,-0.085600905,0.2590314,9.806206,2,1683969820.5109015
-0.009390792,0.02646496,0.9988997,-0.0010690142,-0.00076358154,-0.0015271631,-0.085600905,0.2590314,9.806206,2,1683969820.5262408
-0.0074394583,0.02646496,0.997985,-0.0010690142,-0.00076358154,-0.0015271631,-0.085600905,0.2590314,9.806206,2,1683969820.5415905
-0.008963938,0.025001459,1.0003633,-0.0010690142,-0.00076358154,-0.0015271631,-0.085600905,0.2590314,9.806206,2,1683969820.5467274
-0.008963938,0.025001459,1.0003633,-0.0010690142,-0.00076358154,-0.0015271631,-0.08562675,0.258656,9.806216,2,1683969820.5672026
-0.008963938,0.025001459,1.0003633,0.00015271631,-0.0018325958,-0.0015271631,-0.08562675,0.258656,9.806216,2,1683969820.5774243
-0.008963938,0.025001459,1.0003633,0.00015271631,0.00061086525,-0.00030543262,-0.08562675,0.258656,9.806216,2,1683969820.5825605
-0.0075004376,0.02646496,1.0003633,0.00015271631,0.00061086525,-0.00030543262,-0.08562675,0.258656,9.806216,2,1683969820.6029932
-0.0075004376,0.02646496,1.0003633,0.00015271631,0.00061086525,-0.00030543262,-0.08563378,0.25859874,9.806217,2,1683969820.6081161
-0.0075004376,0.02646496,1.0003633,0.00015271631,0.00061086525,-0.00030543262,-0.08564329,0.2584672,9.806221,2,1683969820.6234846
-0.009390792,0.025489293,0.99847287,0.00015271631,0.00061086525,-0.00030543262,-0.08564329,0.2584672,9.806221,2,1683969820.638876
-0.009390792,0.025489293,0.99847287,-0.0010690142,0.0030543262,0.0021380284,-0.08564329,0.2584672,9.806221,2,1683969820.6440141
-0.008415125,0.025977125,0.99987537,-0.0010690142,0.0030543262,0.0021380284,-0.08564329,0.2584672,9.806221,2,1683969820.659411
-0.008415125,0.025977125,0.99987537,-0.0010690142,0.0018325958,0.0009162979,-0.08564329,0.2584672,9.806221,2,1683969820.669674
-0.008415125,0.025977125,0.99987537,-0.0010690142,0.0018325958,0.0009162979,-0.085712016,0.25837743,9.806223,2,1683969820.67994
-0.008415125,0.025977125,0.99987537,-0.0010690142,0.00061086525,0.0021380284,-0.08595618,0.2583427,9.806221,2,1683969820.695511
-0.008476105,0.024513626,1.0008512,-0.0010690142,0.00061086525,0.0021380284,-0.08595618,0.2583427,9.806221,2,1683969820.6955247
-0.008963938,0.02695279,1.0003633,0.0,0.00045814895,-0.0015271631,-0.08595618,0.2583427,9.806221,2,1683969820.70068
-0.008963938,0.02695279,1.0003633,0.0,0.00045814895,-0.0015271631,-0.085129656,0.25801829,9.806237,2,1683969820.721136
-0.00798827,0.027440626,1.0003633,0.0,0.00045814895,-0.0015271631,-0.085129656,0.25801829,9.806237,2,1683969820.72627
-0.0074394583,0.024513626,0.9970094,0.0,0.00045814895,-0.0015271631,-0.085129656,0.25801829,9.806237,2,1683969820.7313967
-0.0074394583,0.024513626,0.9970094,-0.0012217305,0.00290161,-0.0015271631,-0.085129656,0.25801829,9.806237,2,1683969820.741654
-0.0074394583,0.024513626,0.9970094,-0.0012217305,0.00290161,-0.0015271631,-0.08512576,0.25803593,9.806236,2,1683969820.7467837
-0.007927292,0.02646496,0.9974972,-0.0012217305,0.00290161,-0.0015271631,-0.08512576,0.25803593,9.806236,2,1683969820.7877574
-0.007927292,0.02646496,0.9974972,-0.0012217305,0.00290161,-0.0015271631,-0.08508118,0.25804415,9.806237,2,1683969820.7928867
-0.007927292,0.02646496,0.9974972,-0.0012217305,0.0016798794,0.0009162979,-0.08508118,0.25804415,9.806237,2,1683969820.797983
-0.007927292,0.02646496,0.9974972,0.0,-0.001985312,-0.0015271631,-0.08508118,0.25804415,9.806237,2,1683969820.8184144
-0.0070126047,0.02646496,1.0003633,0.0,-0.001985312,-0.0015271631,-0.08508118,0.25804415,9.806237,2,1683969820.8235505
-0.0070126047,0.02646496,1.0003633,0.0,-0.001985312,-0.0015271631,-0.08500006,0.25806695,9.806237,2,1683969820.8286822
-0.0070126047,0.02646496,1.0003633,-0.002443461,0.00045814895,0.0009162979,-0.08500006,0.25806695,9.806237,2,1683969820.8491611
-0.007927292,0.02646496,0.9988997,-0.002443461,0.00045814895,0.0009162979,-0.08500006,0.25806695,9.806237,2,1683969820.8645344
-0.007927292,0.02646496,0.9988997,-0.002443461,0.00045814895,0.0009162979,-0.08486992,0.25798753,9.80624,2,1683969820.8696537
-0.008415125,0.024513626,0.997985,-0.002443461,0.00045814895,0.0009162979,-0.08486992,0.25798753,9.80624,2,1683969820.8747835
-0.008415125,0.024513626,0.997985,-0.002443461,0.00045814895,0.0009162979,-0.08483932,0.25784364,9.806244,2,1683969820.9002821
-0.008415125,0.024513626,0.997985,0.0,-0.00076358154,-0.00030543262,-0.08483932,0.25784364,9.806244,2,1683969820.9053748
-0.009878625,0.025977125,0.9984119,0.0,-0.00076358154,-0.00030543262,-0.08483932,0.25784364,9.806244,2,1683969820.9206882
-0.009878625,0.025977125,0.9984119,0.0,-0.00076358154,-0.00030543262,-0.0846402,0.25789,9.806245,2,1683969820.9360504
-0.009878625,0.025977125,0.9984119,0.0012217305,-0.001985312,-0.00030543262,-0.0846402,0.25789,9.806245,2,1683969820.9411824
-0.009878625,0.025977125,0.9984119,0.0,0.0016798794,-0.0027488936,-0.0846402,0.25789,9.806245,2,1683969820.9668078
-0.009878625,0.025977125,0.9984119,0.0,0.0016798794,-0.0027488936,-0.084705144,0.25793636,9.806243,2,1683969820.9719393
-0.009390792,0.025001459,0.99938756,0.0,0.0016798794,-0.0027488936,-0.084705144,0.25793636,9.806243,2,1683969820.977073
-0.009390792,0.025001459,0.99938756,-0.002443461,-0.0033597588,-0.0015271631,-0.084705144,0.25793636,9.806243,2,1683969820.9872928
-0.009878625,0.02695279,0.9988997,-0.002443461,-0.0033597588,-0.0015271631,-0.084705144,0.25793636,9.806243,2,1683969820.9975147
-0.009878625,0.02695279,0.9988997,-0.002443461,-0.0033597588,-0.0015271631,-0.08321018,0.25782374,9.806259,2,1683969821.00772
-0.008415125,0.025489293,0.99987537,-0.002443461,-0.0033597588,-0.0015271631,-0.08321018,0.25782374,9.806259,2,1683969821.0229883
-0.008415125,0.025489293,0.99987537,-0.002443461,-0.0033597588,-0.0015271631,-0.08318038,0.2576596,9.806264,2,1683969821.0281193
-0.008415125,0.025489293,0.99987537,0.0012217305,-0.00076358154,0.0009162979,-0.08318038,0.2576596,9.806264,2,1683969821.0434923
-0.008415125,0.02695279,0.99938756,0.0012217305,-0.00076358154,0.0009162979,-0.08318038,0.2576596,9.806264,2,1683969821.053753
-0.008415125,0.02695279,0.99938756,0.0012217305,0.0016798794,0.0021380284,-0.08318038,0.2576596,9.806264,2,1683969821.0588844
-0.008415125,0.02695279,0.99938756,0.0012217305,0.0016798794,0.0021380284,-0.08295902,0.257683,9.806265,2,1683969821.0640118
-0.009390792,0.02646496,0.9965216,0.0012217305,0.0016798794,0.0021380284,-0.08295902,0.257683,9.806265,2,1683969821.0998466
-0.009390792,0.02646496,0.9965216,-0.0012217305,0.0053450707,0.0009162979,-0.08295902,0.257683,9.806265,2,1683969821.110052
-0.009390792,0.02646496,0.9965216,-0.0012217305,0.0053450707,0.0009162979,-0.083158925,0.25765228,9.806264,2,1683969821.1151707
-0.009939604,0.025489293,1.0003633,-0.0012217305,0.0053450707,0.0009162979,-0.083158925,0.25765228,9.806264,2,1683969821.1356628
-0.009939604,0.025489293,1.0003633,-0.0012217305,0.0053450707,0.0009162979,-0.08343881,0.25768405,9.80626,2,1683969821.140787
-0.009939604,0.025489293,1.0003633,0.002443461,0.00290161,-0.0015271631,-0.08343881,0.25768405,9.80626,2,1683969821.1459217
-0.009939604,0.025001459,1.0018268,0.002443461,0.00290161,-0.0015271631,-0.08343881,0.25768405,9.80626,2,1683969821.1664643
-0.009939604,0.025001459,1.0018268,0.002443461,0.00290161,-0.0015271631,-0.083499774,0.257679,9.80626,2,1683969821.1767232
-0.009939604,0.025001459,1.0018268,-0.0012217305,0.0016798794,0.0009162979,-0.083499774,0.257679,9.80626,2,1683969821.1818573
-0.0074394583,0.025489293,0.9989607,-0.0012217305,0.0016798794,0.0009162979,-0.083499774,0.257679,9.80626,2,1683969821.2075143
-0.0074394583,0.025489293,0.9989607,-0.0012217305,0.0016798794,0.0009162979,-0.08342982,0.25766283,9.806261,2,1683969821.2176745
-0.0074394583,0.025489293,0.9989607,0.0,0.00045814895,-0.0015271631,-0.08342982,0.25766283,9.806261,2,1683969821.2227507
-0.008415125,0.02646496,0.9988997,0.0,0.00045814895,-0.0015271631,-0.08342982,0.25766283,9.806261,2,1683969821.2329576
-0.008415125,0.02646496,0.9988997,0.0036651916,0.00290161,-0.0015271631,-0.08342982,0.25766283,9.806261,2,1683969821.2380867
-0.008415125,0.02646496,0.9988997,0.0036651916,0.00290161,-0.0015271631,-0.08333383,0.25772506,9.80626,2,1683969821.2483122
-0.0074394583,0.02646496,0.997985,0.0036651916,0.00290161,-0.0015271631,-0.08333383,0.25772506,9.80626,2,1683969821.2688327
-0.0074394583,0.02646496,0.997985,0.0036651916,-0.00076358154,-0.00030543262,-0.08333383,0.25772506,9.80626,2,1683969821.273964
-0.0074394583,0.02646496,0.997985,0.0036651916,-0.00076358154,-0.00030543262,-0.08218676,0.25778064,9.806269,2,1683969821.279106
-0.0074394583,0.02646496,0.997985,-0.0012217305,-0.0033597588,0.0009162979,-0.08218676,0.25778064,9.806269,2,1683969821.304681
-0.0074394583,0.02646496,0.997985,-0.0012217305,-0.0033597588,0.0009162979,-0.082180284,0.25781983,9.806268,2,1683969821.3149428
-0.008902958,0.025977125,0.9974972,-0.0012217305,-0.0033597588,0.0009162979,-0.082180284,0.25781983,9.806268,2,1683969821.3200786
-0.009390792,0.025977125,0.9988997,-0.0012217305,-0.0033597588,0.0009162979,-0.082180284,0.25781983,9.806268,2,1683969821.32521
-0.009390792,0.025977125,0.9988997,0.0,-0.0032070426,-0.00030543262,-0.082180284,0.25781983,9.806268,2,1683969821.3405957
-0.009390792,0.025977125,0.9988997,0.0,-0.0032070426,-0.00030543262,-0.08186573,0.25786358,9.806269,2,1683969821.350859
-0.007927292,0.02646496,0.99847287,0.0,-0.0032070426,-0.00030543262,-0.08186573,0.25786358,9.806269,2,1683969821.3713462
-0.007927292,0.02646496,0.99847287,0.0,-0.0032070426,-0.00030543262,-0.08170104,0.2578009,9.8062725,2,1683969821.3867354
-0.007927292,0.02646496,0.99847287,0.0,-0.001985312,0.0009162979,-0.08170104,0.2578009,9.8062725,2,1683969821.3918667
-0.007927292,0.02646496,0.99847287,0.0012217305,-0.00580322,-0.00030543262,-0.08170104,0.2578009,9.8062725,2,1683969821.4071906
-0.007927292,0.02646496,0.99847287,0.0012217305,-0.00580322,-0.00030543262,-0.081639186,0.25776836,9.806273,2,1683969821.4174123
-0.008415125,0.027440626,0.997985,0.0012217305,-0.00580322,-0.00030543262,-0.081639186,0.25776836,9.806273,2,1683969821.4225428
-0.009878625,0.02786748,0.9984119,-0.0012217305,-0.00076358154,-0.00030543262,-0.081471056,0.25785875,9.8062725,2,1683969821.432863
-0.0074394583,0.02646496,0.997985,-0.002443461,-0.0009162979,-0.0015271631,-0.08140138,0.25779992,9.806274,2,1683969821.438026
-0.008415125,0.02646496,0.9988997,-0.0012217305,-0.00076358154,-0.00030543262,-0.08115098,0.25787574,9.806275,2,1683969821.4432116
-0.007927292,0.02646496,0.9988997,0.0,-0.00076358154,-0.00030543262,-0.081105195,0.25755203,9.806283,2,1683969821.4483728
-0.009939604,0.02792846,1.0003633,0.0,-0.00076358154,-0.00030543262,-0.081105195,0.25755203,9.806283,2,1683969821.4637263
-0.009939604,0.02792846,1.0003633,0.0,-0.00076358154,-0.00030543262,-0.08125227,0.25752008,9.806283,2,1683969821.4688494
-0.009939604,0.02792846,1.0003633,0.0,0.0053450707,0.0009162979,-0.08125227,0.25752008,9.806283,2,1683969821.4791179
-0.007927292,0.027440626,0.9988997,0.0,0.0053450707,0.0009162979,-0.08125227,0.25752008,9.806283,2,1683969821.4842553
-0.007927292,0.027440626,0.9988997,-0.0012217305,0.0041233404,-0.00030543262,-0.08125227,0.25752008,9.806283,2,1683969821.4893885
-0.007927292,0.027440626,0.9988997,-0.0012217305,0.0041233404,-0.00030543262,-0.08130977,0.25756255,9.806282,2,1683969821.499648
-0.007927292,0.027440626,0.9988997,0.002443461,0.00045814895,-0.00030543262,-0.08130977,0.25756255,9.806282,2,1683969821.5252867
-0.008415125,0.027440626,0.99938756,0.002443461,0.00045814895,-0.00030543262,-0.08130977,0.25756255,9.806282,2,1683969821.5355456
-0.008415125,0.027440626,0.99938756,0.002443461,0.00045814895,-0.00030543262,-0.08141409,0.25751716,9.806282,2,1683969821.545803
-0.008415125,0.025977125,0.99987537,0.002443461,0.00045814895,-0.00030543262,-0.08141409,0.25751716,9.806282,2,1683969821.5663216
-0.008415125,0.025977125,0.99987537,0.002443461,0.00045814895,-0.00030543262,-0.08149842,0.25750834,9.806282,2,1683969821.5714495
-0.008415125,0.025977125,0.99987537,0.0,0.00290161,-0.0015271631,-0.08149842,0.25750834,9.806282,2,1683969821.5765784
-0.008415125,0.025977125,0.99987537,0.0,0.00290161,-0.0015271631,-0.0817676,0.2575385,9.806278,2,1683969821.6124353
-0.0059759584,0.02646496,0.99847287,0.0,0.00290161,-0.0015271631,-0.0817676,0.2575385,9.806278,2,1683969821.6175742
-0.0059759584,0.02646496,0.99847287,0.0012217305,0.0016798794,0.0009162979,-0.0817676,0.2575385,9.806278,2,1683969821.6226966
-0.009390792,0.025977125,0.99987537,0.0012217305,0.0016798794,0.0009162979,-0.0817676,0.2575385,9.806278,2,1683969821.643201
-0.009390792,0.025977125,0.99987537,0.002443461,0.00045814895,0.0009162979,-0.0817676,0.2575385,9.806278,2,1683969821.648287
-0.009390792,0.025977125,0.99987537,0.002443461,0.00045814895,0.0009162979,-0.08177657,0.25756434,9.806277,2,1683969821.653377
-0.009390792,0.025977125,0.99987537,0.002443461,0.00045814895,0.0009162979,-0.08171594,0.25759146,9.806277,2,1683969821.6739
-0.009390792,0.025977125,0.99987537,-0.0012217305,0.00045814895,0.0009162979,-0.08171594,0.25759146,9.806277,2,1683969821.6790297
-0.008902958,0.025001459,0.99987537,-0.0012217305,0.00045814895,0.0009162979,-0.08171594,0.25759146,9.806277,2,1683969821.6841607
-0.009390792,0.025489293,0.99847287,-0.0012217305,0.00045814895,0.0009162979,-0.08171594,0.25759146,9.806277,2,1683969821.704647
-0.009390792,0.025489293,0.99847287,-0.0012217305,0.00045814895,0.0009162979,-0.081414476,0.25657842,9.806306,2,1683969821.7097764
-0.009390792,0.025489293,0.99847287,0.0012217305,0.00045814895,0.0009162979,-0.081414476,0.25657842,9.806306,2,1683969821.7200332
-0.009390792,0.025489293,0.99847287,0.0,0.00045814895,0.0021380284,-0.081414476,0.25657842,9.806306,2,1683969821.7251625
-0.009390792,0.025489293,0.99847287,0.0,0.00045814895,0.0021380284,-0.08139512,0.25658917,9.806307,2,1683969821.7405405
-0.010366458,0.02646496,0.9974972,0.0,0.00045814895,0.0021380284,-0.08139512,0.25658917,9.806307,2,1683969821.7559261
-0.010366458,0.02646496,0.9974972,0.0,0.00045814895,0.0021380284,-0.081438854,0.25666252,9.806304,2,1683969821.7763977
-0.010366458,0.02646496,0.9974972,0.0,-0.001985312,-0.00030543262,-0.081438854,0.25666252,9.806304,2,1683969821.7815325
-0.00798827,0.02646496,1.0003633,0.0,-0.001985312,-0.00030543262,-0.081438854,0.25666252,9.806304,2,1683969821.786665
-0.00798827,0.02646496,1.0003633,0.0012217305,-0.001985312,0.0009162979,-0.081438854,0.25666252,9.806304,2,1683969821.796922
-0.00798827,0.02646496,1.0003633,0.0012217305,-0.001985312,0.0009162979,-0.08129333,0.2566563,9.806306,2,1683969821.8071449
-0.009390792,0.027379647,0.997985,0.0012217305,-0.001985312,0.0009162979,-0.08129333,0.2566563,9.806306,2,1683969821.827597
-0.007927292,0.027440626,0.9989607,0.0012217305,-0.001985312,0.0009162979,-0.08129333,0.2566563,9.806306,2,1683969821.8378782
-0.007927292,0.027440626,0.9989607,0.0012217305,-0.001985312,0.0009162979,-0.08122008,0.25667977,9.806306,2,1683969821.8481421
-0.007927292,0.027440626,0.9989607,-0.0012217305,-0.0021380284,-0.0027488936,-0.08122008,0.25667977,9.806306,2,1683969821.8584058
-0.007927292,0.027440626,0.9989607,0.0,-0.004581489,-0.00030543262,-0.08122008,0.25667977,9.806306,2,1683969821.8686526
-0.009451771,0.028904125,1.001339,0.0,-0.004581489,-0.00030543262,-0.08122008,0.25667977,9.806306,2,1683969821.8890908
-0.009451771,0.028904125,1.001339,0.0,-0.004581489,-0.00030543262,-0.08128633,0.25686654,9.8063,2,1683969821.89931
-0.009451771,0.028904125,1.001339,-0.0012217305,0.00045814895,-0.00030543262,-0.08128633,0.25686654,9.8063,2,1683969821.9044437
-0.009878625,0.025977125,0.99987537,-0.0012217305,0.00045814895,-0.00030543262,-0.08128633,0.25686654,9.8063,2,1683969821.9249573
-0.009878625,0.025977125,0.99987537,-0.0012217305,0.00045814895,-0.00030543262,-0.08126876,0.25693324,9.806298,2,1683969821.930084
-0.0074394583,0.02646496,0.9999364,-0.0012217305,0.00045814895,-0.00030543262,-0.08126876,0.25693324,9.806298,2,1683969821.940311
-0.0074394583,0.02646496,0.9999364,0.0,-0.00076358154,0.0021380284,-0.08126876,0.25693324,9.806298,2,1683969821.945442
-0.0074394583,0.02646496,0.9999364,0.0,-0.00076358154,0.0021380284,-0.08126996,0.2568713,9.8063,2,1683969821.960833
-0.0074394583,0.02646496,0.9999364,-0.0012217305,-0.0033597588,-0.0015271631,-0.08126996,0.2568713,9.8063,2,1683969821.9762337
-0.0075004376,0.02695279,1.0004243,-0.0012217305,-0.0033597588,-0.0015271631,-0.08126996,0.2568713,9.8063,2,1683969821.9864955
-0.0075004376,0.02695279,1.0004243,-0.0012217305,-0.0033597588,-0.0015271631,-0.08026349,0.25682756,9.80631,2,1683969821.9916286
-0.0075004376,0.02695279,1.0004243,-0.0012217305,0.00045814895,0.0009162979,-0.08026349,0.25682756,9.80631,2,1683969822.0121367
-0.0075004376,0.02695279,1.0004243,-0.0012217305,0.00045814895,0.0009162979,-0.08017255,0.25679412,9.806312,2,1683969822.0172656
-0.008963938,0.027440626,1.0003633,-0.0012217305,0.00045814895,0.0009162979,-0.08017255,0.25679412,9.806312,2,1683969822.0223956
-0.008415125,0.02646496,0.9989607,-0.0012217305,0.00045814895,0.0009162979,-0.08017255,0.25679412,9.806312,2,1683969822.0428052
-0.008415125,0.02646496,0.9989607,0.0,0.0041233404,-0.00030543262,-0.08017255,0.25679412,9.806312,2,1683969822.0479362
-0.008415125,0.02646496,0.9989607,0.0,0.0041233404,-0.00030543262,-0.080201894,0.25685453,9.80631,2,1683969822.0530672
-0.008415125,0.02646496,0.9989607,-0.0012217305,-0.0021380284,-0.0027488936,-0.080201894,0.25685453,9.80631,2,1683969822.0837948
-0.0064637917,0.02646496,0.9970094,-0.0012217305,-0.0021380284,-0.0027488936,-0.080201894,0.25685453,9.80631,2,1683969822.0940332
-0.0064637917,0.02646496,0.9970094,-0.0012217305,-0.0021380284,-0.0027488936,-0.08040172,0.25687793,9.806308,2,1683969822.104299
-0.009878625,0.025489293,0.99847287,-0.0012217305,-0.0021380284,-0.0027488936,-0.08040172,0.25687793,9.806308,2,1683969822.114556
-0.009878625,0.025489293,0.99847287,-0.0012217305,-0.0021380284,-0.0027488936,-0.080336854,0.25676104,9.806311,2,1683969822.1299694
-0.009878625,0.025489293,0.99847287,-0.0012217305,0.00045814895,0.0009162979,-0.080336854,0.25676104,9.806311,2,1683969822.1350577
-0.008415125,0.025001459,0.99847287,-0.0012217305,0.00045814895,0.0009162979,-0.080336854,0.25676104,9.806311,2,1683969822.1555474
-0.008415125,0.025001459,0.99847287,-0.002443461,-0.0033597588,0.0009162979,-0.080336854,0.25676104,9.806311,2,1683969822.165769
-0.008415125,0.025001459,0.99847287,-0.002443461,-0.0033597588,0.0009162979,-0.08034179,0.2566694,9.806313,2,1683969822.1708977
-0.008415125,0.025001459,0.99847287,-0.002443461,-0.0033597588,0.0009162979,-0.08013531,0.2565986,9.806316,2,1683969822.1965637
-0.007927292,0.025489293,0.9999364,-0.002443461,-0.0033597588,0.0009162979,-0.08013531,0.2565986,9.806316,2,1683969822.2017198
-0.007927292,0.025489293,0.9999364,-0.0012217305,-0.00076358154,0.0009162979,-0.08013531,0.2565986,9.806316,2,1683969822.2068563
-0.00798827,0.02646496,1.0008512,-0.0012217305,-0.00076358154,0.0009162979,-0.08013531,0.2565986,9.806316,2,1683969822.2273622
-0.00798827,0.02646496,1.0008512,-0.0012217305,-0.00076358154,0.0009162979,-0.08022498,0.25656438,9.806316,2,1683969822.2324855
-0.00798827,0.02646496,1.0008512,-0.0012217305,0.00045814895,0.0009162979,-0.08022498,0.25656438,9.806316,2,1683969822.242762
-0.00798827,0.02646496,1.0008512,-0.0012217305,0.00045814895,0.0009162979,-0.08010493,0.25636855,9.806322,2,1683969822.2581265
-0.008902958,0.025489293,0.99938756,-0.0012217305,0.00045814895,0.0009162979,-0.08010493,0.25636855,9.806322,2,1683969822.263206
-0.008902958,0.025489293,0.99938756,0.0012217305,0.0016798794,0.0021380284,-0.08010493,0.25636855,9.806322,2,1683969822.2939568
-0.008415125,0.02646496,0.99847287,0.0012217305,0.0016798794,0.0021380284,-0.08010493,0.25636855,9.806322,2,1683969822.2990534
-0.008415125,0.02646496,0.99847287,0.0012217305,0.0016798794,0.0021380284,-0.08024268,0.25627926,9.806324,2,1683969822.3041942
-0.008415125,0.025977125,0.99938756,0.0012217305,0.0016798794,0.0021380284,-0.08024268,0.25627926,9.806324,2,1683969822.314451
-0.008415125,0.025977125,0.99938756,0.0012217305,0.0016798794,0.0021380284,-0.080265455,0.25644547,9.806319,2,1683969822.32471
-0.008415125,0.025977125,0.99938756,-0.0012217305,0.00290161,-0.00030543262,-0.080265455,0.25644547,9.806319,2,1683969822.329841
-0.008415125,0.02695279,0.9989607,-0.0012217305,0.00290161,-0.00030543262,-0.080265455,0.25644547,9.806319,2,1683969822.3604255
-0.008415125,0.02695279,0.9989607,-0.0012217305,0.00290161,-0.00030543262,-0.08027822,0.2564574,9.806319,2,1683969822.370723
-0.008415125,0.02695279,0.9989607,-0.0012217305,-0.0033597588,-0.00030543262,-0.08027822,0.2564574,9.806319,2,1683969822.3758557
-0.007927292,0.02786748,0.9974972,-0.0012217305,-0.0033597588,-0.00030543262,-0.08027822,0.2564574,9.806319,2,1683969822.396319
-0.007927292,0.02786748,0.9974972,-0.0012217305,-0.0033597588,-0.00030543262,-0.080186985,0.25654632,9.806318,2,1683969822.4116793
-0.007927292,0.02786748,0.9974972,-0.0010690142,-0.00030543262,-0.00030543262,-0.080186985,0.25654632,9.806318,2,1683969822.416811
-0.007927292,0.02841629,0.9988997,-0.0010690142,-0.00030543262,-0.00030543262,-0.080186985,0.25654632,9.806318,2,1683969822.427075
-0.007927292,0.02841629,0.9988997,0.00015271631,-0.0027488936,-0.00030543262,-0.080186985,0.25654632,9.806318,2,1683969822.4322066
-0.007927292,0.02841629,0.9988997,0.00015271631,-0.0027488936,-0.00030543262,-0.07993864,0.25643188,9.806322,2,1683969822.4373412
-0.007927292,0.02841629,0.9988997,0.00015271631,-0.0027488936,-0.00030543262,-0.08002742,0.2563931,9.806322,2,1683969822.468122
-0.007927292,0.02841629,0.9988997,-0.0022907446,-0.0016798794,-0.0015271631,-0.08002742,0.2563931,9.806322,2,1683969822.478392
-0.009390792,0.02695279,0.9988997,-0.0022907446,-0.0016798794,-0.0015271631,-0.08002742,0.2563931,9.806322,2,1683969822.488683
-0.009390792,0.02695279,0.9988997,0.0013744468,0.0021380284,-0.0015271631,-0.08002742,0.2563931,9.806322,2,1683969822.4989357
-0.009390792,0.02695279,0.9988997,0.0013744468,0.0021380284,-0.0015271631,-0.0800444,0.2563543,9.806324,2,1683969822.5143456
-0.009390792,0.02786748,0.997985,0.0013744468,0.0021380284,-0.0015271631,-0.0800444,0.2563543,9.806324,2,1683969822.5246103
-0.009390792,0.02786748,0.997985,0.00015271631,0.004581489,-0.00030543262,-0.0800444,0.2563543,9.806324,2,1683969822.5348673
-0.009390792,0.02786748,0.997985,0.00015271631,0.004581489,-0.00030543262,-0.08148234,0.25661394,9.806305,2,1683969822.545124
-0.008902958,0.02646496,0.9989607,0.00015271631,0.004581489,-0.00030543262,-0.08148234,0.25661394,9.806305,2,1683969822.5553324
-0.008902958,0.02646496,0.9989607,-0.0010690142,0.0009162979,-0.0015271631,-0.08148234,0.25661394,9.806305,2,1683969822.5604682
-0.008902958,0.02646496,0.9989607,-0.0010690142,0.0009162979,-0.0015271631,-0.08154792,0.25677827,9.8063,2,1683969822.5707252
-0.008902958,0.02646496,0.9989607,-0.0010690142,0.0009162979,-0.0015271631,-0.08157584,0.2567615,9.8063,2,1683969822.5963256
-0.009390792,0.027379647,0.9965216,-0.0010690142,0.0009162979,-0.0015271631,-0.08157584,0.2567615,9.8063,2,1683969822.6065488
-0.009390792,0.027379647,0.9965216,-0.0035124752,0.001985312,-0.00030543262,-0.08157584,0.2567615,9.8063,2,1683969822.6218953
-0.008476105,0.024025792,1.0008512,-0.0035124752,0.001985312,-0.00030543262,-0.08157584,0.2567615,9.8063,2,1683969822.6321526
-0.008476105,0.024025792,1.0008512,-0.0035124752,0.001985312,-0.00030543262,-0.0817193,0.2565592,9.806304,2,1683969822.647497
-0.008476105,0.024025792,1.0008512,0.00015271631,-0.00030543262,-0.00030543262,-0.0817193,0.2565592,9.806304,2,1683969822.6577191
-0.0074394583,0.02695279,0.9988997,0.00015271631,-0.00030543262,-0.00030543262,-0.0817193,0.2565592,9.806304,2,1683969822.6731339
-0.0074394583,0.02695279,0.9988997,-0.0022907446,-0.0041233404,-0.0015271631,-0.0817193,0.2565592,9.806304,2,1683969822.6782668
-0.0074394583,0.02695279,0.9988997,-0.0022907446,-0.0041233404,-0.0015271631,-0.08171849,0.25652474,9.806306,2,1683969822.683358
-0.0074394583,0.02695279,0.9988997,0.00015271631,-0.0015271631,0.0009162979,-0.08171849,0.25652474,9.806306,2,1683969822.703826
-0.008902958,0.027440626,0.9974363,0.00015271631,-0.0015271631,0.0009162979,-0.08171849,0.25652474,9.806306,2,1683969822.708952
-0.008902958,0.027440626,0.9974363,0.00015271631,-0.0015271631,0.0009162979,-0.0816757,0.25641048,9.806309,2,1683969822.7243135
-0.009878625,0.02646496,0.9979241,0.00015271631,-0.0015271631,0.0009162979,-0.0816757,0.25641048,9.806309,2,1683969822.7397072
-0.009878625,0.02646496,0.9979241,0.0013744468,0.0009162979,0.0021380284,-0.0816757,0.25641048,9.806309,2,1683969822.7602105
-0.009878625,0.02646496,0.9979241,0.0013744468,0.0009162979,0.0021380284,-0.08175374,0.25645992,9.806307,2,1683969822.765341
-0.009878625,0.02646496,0.9979241,0.0013744468,0.0009162979,0.0021380284,-0.08173223,0.25655028,9.806304,2,1683969822.7704759
-0.006524771,0.02695279,1.001339,0.0013744468,0.0009162979,0.0021380284,-0.08173223,0.25655028,9.806304,2,1683969822.7807307
-0.010854292,0.025977125,0.9984119,0.0013744468,0.0009162979,0.0021380284,-0.08173223,0.25655028,9.806304,2,1683969822.811505
-0.010854292,0.025977125,0.9984119,-0.0010690142,-0.00030543262,0.0009162979,-0.08173223,0.25655028,9.806304,2,1683969822.8217683
-0.010854292,0.025977125,0.9984119,-0.0010690142,-0.00030543262,0.0009162979,-0.082375616,0.25662988,9.806297,2,1683969822.826897
-0.0064637917,0.02695279,0.9994486,-0.0010690142,-0.00030543262,0.0009162979,-0.082375616,0.25662988,9.806297,2,1683969822.842241
-0.0064637917,0.02695279,0.9994486,-0.0010690142,-0.00030543262,0.0009162979,-0.08230834,0.25654584,9.8063,2,1683969822.8473341
-0.0064637917,0.02695279,0.9994486,-0.0022907446,0.0033597588,-0.00030543262,-0.08230834,0.25654584,9.8063,2,1683969822.8524544
-0.007927292,0.02695279,0.9974972,-0.0022907446,0.0033597588,-0.00030543262,-0.08230834,0.25654584,9.8063,2,1683969822.8832028
-0.007927292,0.02695279,0.9974972,-0.0022907446,0.0033597588,-0.00030543262,-0.08240079,0.25643924,9.806302,2,1683969822.893457
-0.007927292,0.02695279,0.9974972,0.00015271631,-0.0016798794,-0.0027488936,-0.08240079,0.25643924,9.806302,2,1683969822.8985872
-0.0064637917,0.025489293,0.9960337,0.00015271631,-0.0016798794,-0.0027488936,-0.08240079,0.25643924,9.806302,2,1683969822.913961
-0.0064637917,0.025489293,0.9960337,0.00015271631,-0.0016798794,-0.0027488936,-0.08226369,0.25648302,9.806302,2,1683969822.919095
-0.0064637917,0.025489293,0.9960337,-0.0010690142,-0.00030543262,0.0009162979,-0.08226369,0.25648302,9.806302,2,1683969822.9242275
-0.009451771,0.02695279,1.0003633,-0.0010690142,-0.00030543262,0.0009162979,-0.08226369,0.25648302,9.806302,2,1683969822.9550016
-0.009451771,0.02695279,1.0003633,-0.0010690142,-0.00030543262,0.0009162979,-0.08229612,0.25642347,9.806303,2,1683969822.9652648
-0.009451771,0.02695279,1.0003633,0.0025961774,0.0021380284,-0.0027488936,-0.08229612,0.25642347,9.806303,2,1683969822.9755192
-0.008476105,0.02695279,1.0008512,0.0025961774,0.0021380284,-0.0027488936,-0.08229612,0.25642347,9.806303,2,1683969822.9806542
-0.008476105,0.02695279,1.0008512,-0.0010690142,-0.0041233404,-0.00030543262,-0.08229612,0.25642347,9.806303,2,1683969823.0011733
-0.008476105,0.02695279,1.0008512,-0.0010690142,-0.0041233404,-0.00030543262,-0.082238525,0.25634837,9.806306,2,1683969823.006303
-0.009390792,0.025489293,0.9974972,-0.0010690142,-0.0041233404,-0.00030543262,-0.082238525,0.25634837,9.806306,2,1683969823.0216854
-0.009390792,0.025489293,0.9974972,-0.0010690142,-0.00045814895,-0.0015271631,-0.082238525,0.25634837,9.806306,2,1683969823.0319495
-0.009390792,0.025489293,0.9974972,-0.0010690142,-0.00045814895,-0.0015271631,-0.08207245,0.25629768,9.806308,2,1683969823.04221
-0.009390792,0.025489293,0.9974972,0.00015271631,0.0009162979,-0.00030543262,-0.08207245,0.25629768,9.806308,2,1683969823.0678213
-0.009390792,0.025489293,0.9974972,0.00015271631,0.0009162979,-0.00030543262,-0.08203962,0.25618517,9.806312,2,1683969823.0729518
-0.008415125,0.02695279,0.9988997,0.00015271631,0.0009162979,-0.00030543262,-0.08203962,0.25618517,9.806312,2,1683969823.0780847
-0.0074394583,0.02695279,0.9994486,0.00015271631,0.0009162979,-0.00030543262,-0.08203962,0.25618517,9.806312,2,1683969823.0831957
-0.008902958,0.025977125,0.99847287,0.00015271631,0.0009162979,-0.00030543262,-0.08203962,0.25618517,9.806312,2,1683969823.0985878
-0.008902958,0.025977125,0.99847287,0.0013744468,-0.00030543262,0.0021380284,-0.08203962,0.25618517,9.806312,2,1683969823.1037169
-0.008902958,0.025977125,0.99847287,0.0013744468,-0.00030543262,0.0021380284,-0.08231124,0.2565595,9.8063,2,1683969823.1088505
-0.007927292,0.02646496,0.997985,0.0013744468,-0.00030543262,0.0021380284,-0.08231124,0.2565595,9.8063,2,1683969823.124241
-0.007927292,0.02646496,0.997985,0.0013744468,-0.00030543262,0.0021380284,-0.082289055,0.25658575,9.806298,2,1683969823.134495
-0.007927292,0.02646496,0.997985,0.00015271631,-0.0015271631,-0.00030543262,-0.082289055,0.25658575,9.806298,2,1683969823.1498861
-0.0064637917,0.025977125,0.997985,0.00015271631,-0.0015271631,-0.00030543262,-0.082289055,0.25658575,9.806298,2,1683969823.1703126
-0.0064637917,0.025977125,0.997985,-0.0022907446,-0.00290161,-0.0015271631,-0.082289055,0.25658575,9.806298,2,1683969823.1805048
-0.0064637917,0.025977125,0.997985,-0.0022907446,-0.00290161,-0.0015271631,-0.08231255,0.25655878,9.8063,2,1683969823.1856303
-0.00798827,0.02695279,1.0009121,-0.0022907446,-0.00290161,-0.0015271631,-0.08231255,0.25655878,9.8063,2,1683969823.195889
-0.00798827,0.02695279,1.0009121,0.00015271631,0.008246681,-0.00030543262,-0.08231255,0.25655878,9.8063,2,1683969823.2111862
-0.00798827,0.02695279,1.0009121,0.00015271631,0.008246681,-0.00030543262,-0.08233521,0.25661215,9.806298,2,1683969823.2214441
-0.00798827,0.02695279,1.0009121,0.00015271631,0.008246681,-0.00030543262,-0.082706735,0.25669396,9.806293,2,1683969823.2470875
-0.00798827,0.02695279,1.0009121,0.0013744468,-0.00030543262,-0.0027488936,-0.082706735,0.25669396,9.806293,2,1683969823.2521808
-0.007927292,0.02786748,0.99847287,0.0013744468,-0.00030543262,-0.0027488936,-0.082706735,0.25669396,9.806293,2,1683969823.257272
-0.0074394583,0.024025792,0.99847287,0.0013744468,-0.00030543262,-0.0027488936,-0.082706735,0.25669396,9.806293,2,1683969823.267479
-0.0074394583,0.024025792,0.99847287,0.0013744468,-0.00030543262,-0.0027488936,-0.0827071,0.25682083,9.806289,2,1683969823.2931094
-0.0074394583,0.024025792,0.99847287,0.0013744468,0.0009162979,0.0009162979,-0.0827071,0.25682083,9.806289,2,1683969823.2982404
-0.0074394583,0.024025792,0.99847287,0.00015271631,0.0033597588,0.0009162979,-0.0827071,0.25682083,9.806289,2,1683969823.3135948
-0.010366458,0.025977125,0.9989607,0.00015271631,0.0033597588,0.0009162979,-0.0827071,0.25682083,9.806289,2,1683969823.3238487
-0.010366458,0.025977125,0.9989607,0.00015271631,0.0033597588,0.0009162979,-0.08278117,0.25683805,9.806288,2,1683969823.33411
-0.010366458,0.025977125,0.9989607,0.00015271631,0.0033597588,0.0009162979,-0.08301656,0.25681046,9.806287,2,1683969823.3494482
-0.008415125,0.025001459,0.9994486,0.00015271631,0.0033597588,0.0009162979,-0.08301656,0.25681046,9.806287,2,1683969823.3648417
-0.008415125,0.025001459,0.9994486,-0.0010690142,0.0009162979,-0.00030543262,-0.08301656,0.25681046,9.806287,2,1683969823.3699672
-0.008415125,0.025001459,0.9994486,-0.0010690142,0.0009162979,-0.00030543262,-0.0836572,0.25691262,9.806278,2,1683969823.3802357
-0.008415125,0.025001459,0.9994486,-0.0035124752,-0.00045814895,0.0009162979,-0.0836572,0.25691262,9.806278,2,1683969823.395593
-0.008902958,0.02646496,0.9970094,-0.0035124752,-0.00045814895,0.0009162979,-0.0836572,0.25691262,9.806278,2,1683969823.421241
-0.008902958,0.02646496,0.9970094,-0.0035124752,-0.00045814895,0.0009162979,-0.0839254,0.25686738,9.806277,2,1683969823.4263716
-0.008902958,0.02646496,0.9970094,-0.0035124752,-0.00045814895,0.0009162979,-0.08402831,0.25683385,9.806278,2,1683969823.4468787
-0.008902958,0.02646496,0.9970094,-0.0010690142,-0.00290161,-0.0015271631,-0.08402831,0.25683385,9.806278,2,1683969823.4520104
-0.009390792,0.02695279,0.997985,-0.0010690142,-0.00290161,-0.0015271631,-0.08402831,0.25683385,9.806278,2,1683969823.457137
-0.009390792,0.02695279,0.997985,-0.0010690142,-0.00290161,-0.0015271631,-0.08383616,0.25691134,9.806277,2,1683969823.4776144
-0.009390792,0.02695279,0.997985,0.00015271631,-0.00290161,-0.00030543262,-0.08383616,0.25691134,9.806277,2,1683969823.4878361
-0.008902958,0.025977125,0.997985,0.00015271631,-0.00290161,-0.00030543262,-0.08383616,0.25691134,9.806277,2,1683969823.4980912
-0.008902958,0.025977125,0.997985,-0.0022907446,0.0021380284,-0.00030543262,-0.08383616,0.25691134,9.806277,2,1683969823.513463
-0.008902958,0.025977125,0.997985,-0.0022907446,0.0021380284,-0.00030543262,-0.08380473,0.25690097,9.806277,2,1683969823.5185947
-0.008476105,0.02695279,1.001339,-0.0022907446,0.0021380284,-0.00030543262,-0.08380473,0.25690097,9.806277,2,1683969823.5237262
-0.008476105,0.02695279,1.001339,-0.0010690142,-0.0016798794,-0.00030543262,-0.08380473,0.25690097,9.806277,2,1683969823.5442455
-0.0074394583,0.025489293,0.9974972,-0.0010690142,-0.0016798794,-0.00030543262,-0.08380473,0.25690097,9.806277,2,1683969823.5544806
-0.0074394583,0.025489293,0.9974972,-0.0010690142,-0.0016798794,-0.00030543262,-0.08386101,0.25680164,9.80628,2,1683969823.569892
-0.0074394583,0.025489293,0.9974972,0.00015271631,-0.0015271631,-0.00030543262,-0.08386101,0.25680164,9.80628,2,1683969823.590413
-0.0074394583,0.025489293,0.9974972,0.00015271631,-0.0015271631,-0.00030543262,-0.08375466,0.25684008,9.80628,2,1683969823.5955286
-0.008902958,0.025977125,0.99847287,0.00015271631,-0.0015271631,-0.00030543262,-0.08375466,0.25684008,9.80628,2,1683969823.6057882
-0.008902958,0.025977125,0.99847287,0.0013744468,0.004581489,-0.0027488936,-0.08375466,0.25684008,9.80628,2,1683969823.6262963
-0.008902958,0.025977125,0.99847287,0.0013744468,0.004581489,-0.0027488936,-0.083547436,0.25692496,9.806279,2,1683969823.6365154
-0.008902958,0.025977125,0.99847287,-0.0010690142,0.0009162979,-0.00030543262,-0.083547436,0.25692496,9.806279,2,1683969823.6416059
-0.008902958,0.025489293,0.99847287,-0.0010690142,0.0009162979,-0.00030543262,-0.083547436,0.25692496,9.806279,2,1683969823.6570122
-0.008902958,0.025489293,0.99847287,-0.0010690142,0.0009162979,-0.00030543262,-0.08464674,0.25777555,9.806248,2,1683969823.6672063
-0.008902958,0.025489293,0.99847287,-0.0010690142,0.0009162979,-0.00030543262,-0.08473276,0.2577782,9.806247,2,1683969823.6877253
-0.008902958,0.025489293,0.99847287,0.00015271631,0.0021380284,-0.00030543262,-0.08473276,0.2577782,9.806247,2,1683969823.692817
-0.009451771,0.02646496,1.0008512,0.00015271631,0.0021380284,-0.00030543262,-0.08473276,0.2577782,9.806247,2,1683969823.6979415
-0.009451771,0.02646496,1.0008512,0.0025961774,0.0009162979,-0.00030543262,-0.08473276,0.2577782,9.806247,2,1683969823.7184258
-0.008415125,0.025489293,0.9994486,0.0025961774,0.0009162979,-0.00030543262,-0.08473276,0.2577782,9.806247,2,1683969823.7286875
-0.008415125,0.025489293,0.9994486,0.0025961774,0.0009162979,-0.00030543262,-0.08496996,0.2578541,9.806243,2,1683969823.7338178
-0.008415125,0.02695279,0.9974972,0.0025961774,0.0009162979,-0.00030543262,-0.08496996,0.2578541,9.806243,2,1683969823.7594683
-0.008415125,0.02695279,0.9974972,-0.0010690142,0.0021380284,0.0009162979,-0.08496996,0.2578541,9.806243,2,1683969823.7646008
-0.008415125,0.02695279,0.9974972,-0.0010690142,0.0021380284,0.0009162979,-0.08509106,0.25799742,9.806238,2,1683969823.7697248
-0.008415125,0.02695279,0.9974972,-0.0010690142,0.0021380284,0.0009162979,-0.085257545,0.25804317,9.806236,2,1683969823.7799828
-0.008415125,0.02646496,0.99847287,-0.0010690142,0.0021380284,0.0009162979,-0.085257545,0.25804317,9.806236,2,1683969823.805623
-0.008415125,0.02646496,0.99847287,-0.0022907446,0.0033597588,0.0009162979,-0.085257545,0.25804317,9.806236,2,1683969823.8107715
-0.008415125,0.026891813,0.9970094,-0.0022907446,0.0033597588,0.0009162979,-0.085257545,0.25804317,9.806236,2,1683969823.821041
-0.008415125,0.026891813,0.9970094,0.0013744468,-0.0015271631,0.0009162979,-0.085257545,0.25804317,9.806236,2,1683969823.8312674
-0.008415125,0.026891813,0.9970094,0.0013744468,-0.0015271631,0.0009162979,-0.08544251,0.25790665,9.806237,2,1683969823.8363967
-0.008415125,0.026891813,0.9970094,0.0013744468,-0.0015271631,0.0009162979,-0.08536358,0.2579975,9.806235,2,1683969823.8620143
-0.008415125,0.026891813,0.9970094,-0.0010690142,-0.00290161,-0.00030543262,-0.08536358,0.2579975,9.806235,2,1683969823.8671467
-0.008415125,0.02646496,0.9974972,-0.0010690142,-0.00290161,-0.00030543262,-0.08536358,0.2579975,9.806235,2,1683969823.872239
-0.0069516255,0.02646496,0.9994486,-0.0010690142,-0.00290161,-0.00030543262,-0.08536358,0.2579975,9.806235,2,1683969823.8978808
-0.0069516255,0.02646496,0.9994486,-0.0022907446,-0.0016798794,0.0009162979,-0.08536358,0.2579975,9.806235,2,1683969823.9132621
-0.0069516255,0.02646496,0.9994486,0.00015271631,-0.00030543262,-0.0015271631,-0.08536358,0.2579975,9.806235,2,1683969823.9184027
-0.0069516255,0.02646496,0.9994486,0.00015271631,-0.00030543262,-0.0015271631,-0.08491933,0.25779653,9.806246,2,1683969823.9235363
-0.008902958,0.02786748,0.99847287,0.00015271631,-0.00030543262,-0.0015271631,-0.08491933,0.25779653,9.806246,2,1683969823.949188
-0.008902958,0.02786748,0.99847287,0.0013744468,0.0021380284,0.0021380284,-0.08491933,0.25779653,9.806246,2,1683969823.9543252
-0.008902958,0.02786748,0.99847287,0.0013744468,0.0021380284,0.0021380284,-0.08471799,0.25786638,9.806245,2,1683969823.9645748
-0.008902958,0.02786748,0.99847287,0.0013744468,0.0021380284,0.0021380284,-0.084815875,0.25793236,9.806242,2,1683969823.990228
-0.009390792,0.02646496,0.99938756,0.0013744468,0.0021380284,0.0021380284,-0.084815875,0.25793236,9.806242,2,1683969823.9953158
-0.009390792,0.02646496,0.99938756,-0.0010690142,0.0009162979,0.0009162979,-0.084815875,0.25793236,9.806242,2,1683969824.0055764
-0.0074394583,0.027440626,0.9999364,-0.0010690142,0.0009162979,0.0009162979,-0.084815875,0.25793236,9.806242,2,1683969824.0107064
-0.0074394583,0.027440626,0.9999364,-0.0010690142,0.0009162979,0.0009162979,-0.084932804,0.25791246,9.806242,2,1683969824.0209618
-0.0074394583,0.027440626,0.9999364,-0.0010690142,-0.0015271631,0.0009162979,-0.084932804,0.25791246,9.806242,2,1683969824.0414412
-0.009878625,0.02646496,0.9988997,-0.0010690142,-0.0015271631,0.0009162979,-0.084932804,0.25791246,9.806242,2,1683969824.051701
-0.009878625,0.02646496,0.9988997,-0.0022907446,0.0021380284,-0.00030543262,-0.084932804,0.25791246,9.806242,2,1683969824.0619612
-0.009878625,0.02646496,0.9988997,-0.0022907446,0.0021380284,-0.00030543262,-0.08497843,0.25786433,9.806243,2,1683969824.0670965
-0.009878625,0.02646496,0.9988997,-0.0010690142,0.0033597588,0.0033597588,-0.08497843,0.25786433,9.806243,2,1683969824.0876205
-0.009878625,0.02646496,0.9988997,-0.0010690142,0.0033597588,0.0033597588,-0.08536759,0.2578908,9.806238,2,1683969824.0978796
-0.007927292,0.025977125,0.9994486,-0.0010690142,0.0033597588,0.0033597588,-0.08536759,0.2578908,9.806238,2,1683969824.102966
-0.009878625,0.02695279,0.997985,-0.0010690142,0.0033597588,0.0033597588,-0.08536759,0.2578908,9.806238,2,1683969824.12861
-0.009878625,0.02695279,0.997985,-0.0022907446,-0.00045814895,-0.00030543262,-0.08536759,0.2578908,9.806238,2,1683969824.133743
-0.009878625,0.02695279,0.997985,-0.0022907446,-0.00045814895,-0.00030543262,-0.08547868,0.25789922,9.806238,2,1683969824.149089
-0.009878625,0.02695279,0.997985,-0.0022907446,-0.00045814895,-0.00030543262,-0.0855078,0.25777623,9.80624,2,1683969824.1747038
-0.008415125,0.025001459,0.9989607,-0.0022907446,-0.00045814895,-0.00030543262,-0.0855078,0.25777623,9.80624,2,1683969824.1797986
-0.008415125,0.025001459,0.9989607,0.0013744468,0.0009162979,0.0009162979,-0.0855078,0.25777623,9.80624,2,1683969824.1849337
-0.008415125,0.025001459,0.9989607,0.0013744468,-0.0015271631,-0.00030543262,-0.0855078,0.25777623,9.80624,2,1683969824.1951697
-0.008415125,0.025001459,0.9989607,0.00015271631,-0.0030543262,-0.00030543262,-0.0855078,0.25777623,9.80624,2,1683969824.2157016
-0.0070126047,0.02841629,0.99987537,0.00015271631,-0.0030543262,-0.00030543262,-0.0855078,0.25777623,9.80624,2,1683969824.2207963
-0.0070126047,0.02841629,0.99987537,0.00015271631,-0.0030543262,-0.00030543262,-0.08452366,0.25739276,9.806259,2,1683969824.2259269
-0.0074394583,0.02792846,0.99938756,0.00015271631,-0.0030543262,-0.00030543262,-0.08452366,0.25739276,9.806259,2,1683969824.2361963
-0.0074394583,0.02792846,0.99938756,0.00015271631,-0.0030543262,-0.00030543262,-0.08453496,0.2573812,9.806259,2,1683969824.2567232
-0.0074394583,0.02792846,0.99938756,0.00015271631,0.00061086525,0.0009162979,-0.08453496,0.2573812,9.806259,2,1683969824.2618597
-0.0074394583,0.02792846,0.99938756,0.00015271631,0.00061086525,0.0009162979,-0.084432,0.25736344,9.80626,2,1683969824.2823877
-0.0074394583,0.02792846,0.99938756,0.00015271631,0.0030543262,0.0021380284,-0.084432,0.25736344,9.80626,2,1683969824.2875159
-0.009390792,0.025001459,0.9984119,0.00015271631,0.0030543262,0.0021380284,-0.084432,0.25736344,9.80626,2,1683969824.2977767
-0.009390792,0.025001459,0.9984119,0.00015271631,0.0030543262,0.0021380284,-0.08449892,0.25734115,9.80626,2,1683969824.3131702
-0.010854292,0.02646496,0.9988997,0.00015271631,0.0030543262,0.0021380284,-0.08449892,0.25734115,9.80626,2,1683969824.318302
-0.010854292,0.02646496,0.9988997,0.0013744468,0.00061086525,0.0021380284,-0.08449892,0.25734115,9.80626,2,1683969824.3285515
-0.010427438,0.02695279,1.0008512,0.0013744468,0.00061086525,0.0021380284,-0.08449892,0.25734115,9.80626,2,1683969824.3490677
-0.010427438,0.02695279,1.0008512,-0.0022907446,0.0030543262,0.0009162979,-0.08449892,0.25734115,9.80626,2,1683969824.3541996
-0.010427438,0.02695279,1.0008512,-0.0022907446,0.0030543262,0.0009162979,-0.084455356,0.25734848,9.80626,2,1683969824.359289
-0.010427438,0.02695279,1.0008512,0.00015271631,0.0018325958,-0.0015271631,-0.084455356,0.25734848,9.80626,2,1683969824.3746428
-0.010427438,0.02695279,1.0008512,0.00015271631,0.0018325958,-0.0015271631,-0.08435539,0.2572952,9.806263,2,1683969824.384898
-0.009939604,0.025489293,1.001339,0.00015271631,0.0018325958,-0.0015271631,-0.08435539,0.2572952,9.806263,2,1683969824.3951554
-0.009939604,0.025489293,1.001339,-0.0010690142,0.00061086525,0.0009162979,-0.08435539,0.2572952,9.806263,2,1683969824.4259107
-0.009939604,0.025489293,1.001339,-0.0010690142,0.00061086525,0.0009162979,-0.08451156,0.2573695,9.80626,2,1683969824.4361725
-0.009390792,0.025489293,0.9970094,-0.0010690142,0.00061086525,0.0009162979,-0.08451156,0.2573695,9.80626,2,1683969824.4413035
-0.008415125,0.02646496,0.9970094,-0.0010690142,0.00061086525,0.0009162979,-0.08451156,0.2573695,9.80626,2,1683969824.46694
-0.008415125,0.02646496,0.9970094,-0.0010690142,0.00061086525,0.0009162979,-0.084529124,0.25733668,9.80626,2,1683969824.4720714
-0.008415125,0.02646496,0.9970094,0.0013744468,-0.00061086525,-0.00030543262,-0.084529124,0.25733668,9.80626,2,1683969824.477212
-0.0069516255,0.02646496,0.9994486,0.0013744468,-0.00061086525,-0.00030543262,-0.084529124,0.25733668,9.80626,2,1683969824.4874601
-0.0069516255,0.02646496,0.9994486,0.0013744468,-0.0030543262,-0.00030543262,-0.084529124,0.25733668,9.80626,2,1683969824.4925854
-0.0069516255,0.02646496,0.9994486,0.0013744468,-0.0030543262,-0.00030543262,-0.08444214,0.2582114,9.806238,2,1683969824.4977133
-0.008902958,0.025489293,0.99987537,0.0013744468,-0.0030543262,-0.00030543262,-0.08444214,0.2582114,9.806238,2,1683969824.5386992
-0.008902958,0.025489293,0.99987537,0.0013744468,-0.0030543262,-0.00030543262,-0.08425679,0.25827357,9.806238,2,1683969824.5437891
-0.008902958,0.025489293,0.99987537,0.00015271631,0.00061086525,-0.00030543262,-0.08425679,0.25827357,9.806238,2,1683969824.5489244
-0.008415125,0.02646496,0.99938756,0.00015271631,0.00061086525,-0.00030543262,-0.08425679,0.25827357,9.806238,2,1683969824.5694585
-0.008415125,0.02646496,0.99938756,0.00015271631,0.00061086525,-0.00030543262,-0.08418753,0.2582973,9.806238,2,1683969824.5745883
-0.008415125,0.02646496,0.99938756,0.00015271631,-0.0018325958,0.0009162979,-0.08418753,0.2582973,9.806238,2,1683969824.5797217
-0.0064637917,0.02841629,0.9999364,0.00015271631,-0.0018325958,0.0009162979,-0.08418753,0.2582973,9.806238,2,1683969824.6053731
-0.0064637917,0.02841629,0.9999364,-0.0022907446,0.00045814895,-0.00030543262,-0.08418753,0.2582973,9.806238,2,1683969824.6104975
-0.0064637917,0.02841629,0.9999364,-0.0022907446,0.00045814895,-0.00030543262,-0.08416616,0.25835454,9.806236,2,1683969824.6156278
-0.0064637917,0.02841629,0.9999364,0.0013744468,-0.0030543262,0.0009162979,-0.08416616,0.25835454,9.806236,2,1683969824.625847
-0.0064637917,0.02841629,0.9999364,0.0013744468,-0.0030543262,0.0009162979,-0.08410361,0.2582732,9.806239,2,1683969824.6463614
-0.008415125,0.02695279,0.9984119,0.0013744468,-0.0030543262,0.0009162979,-0.08410361,0.2582732,9.806239,2,1683969824.6514878
-0.008415125,0.02695279,0.9984119,0.00015271631,0.0018325958,-0.0027488936,-0.08410361,0.2582732,9.806239,2,1683969824.671999
-0.008415125,0.02695279,0.9984119,0.00015271631,0.0018325958,-0.0027488936,-0.084067956,0.25835815,9.806238,2,1683969824.6771326
-0.008415125,0.025489293,0.997985,0.00015271631,0.0018325958,-0.0027488936,-0.084067956,0.25835815,9.806238,2,1683969824.6822643
-0.0064637917,0.02695279,0.99938756,0.00015271631,0.0018325958,-0.0027488936,-0.084067956,0.25835815,9.806238,2,1683969824.7027051
-0.0064637917,0.02695279,0.99938756,0.00015271631,0.0018325958,-0.0027488936,-0.084206484,0.25836244,9.806236,2,1683969824.7129521
-0.0064637917,0.02695279,0.99938756,0.0013744468,0.0018325958,-0.00030543262,-0.084206484,0.25836244,9.806236,2,1683969824.7283328
-0.009878625,0.025001459,0.99938756,0.0013744468,0.0018325958,-0.00030543262,-0.084206484,0.25836244,9.806236,2,1683969824.743702
-0.009817646,0.026403978,0.9858502,0.0013744468,0.0018325958,-0.00030543262,-0.084206484,0.25836244,9.806236,2,1683969824.764216
-0.009817646,0.026403978,0.9858502,0.01740966,-0.01282817,-0.0013744468,-0.084206484,0.25836244,9.806236,2,1683969824.779592
-0.009817646,0.026403978,0.9858502,0.01740966,-0.01282817,-0.0013744468,-0.084006235,0.25893256,9.806223,2,1683969824.7847278
-0.011829958,0.023537958,0.9988997,0.01740966,-0.01282817,-0.0013744468,-0.084006235,0.25893256,9.806223,2,1683969824.7949467
