acc_x,acc_y,acc_z,gyr_x,gyr_y,gyr_z,grav_x,grav_y,grav_z,label,timestamp
-0.043297395,0.0008341004,0.98181206,-0.0014686584,-0.0004005432,0.0004005432,-0.4328119,-0.008045702,9.7970915,2,1683900742.7585971
-0.043297395,0.0008341004,0.98181206,-0.0004005432,-0.0004005432,-0.000667572,-0.4328119,-0.008045702,9.7970915,2,1683900742.7709768
-0.04184151,0.00010615824,0.9788851,-0.0014686584,-0.0014686584,-0.000667572,-0.43282717,-0.007892025,9.797091,2,1683900742.7764747
-0.042326804,-0.00063694944,0.980341,-0.0014686584,-0.0014686584,-0.000667572,-0.43282717,-0.007892025,9.797091,2,1683900742.8099716
-0.042326804,-0.00063694944,0.980341,-0.0014686584,-0.0014686584,-0.000667572,-0.43244243,-0.007965845,9.797108,2,1683900742.8150976
-0.04672479,-0.002335481,0.9837684,-0.0014686584,-0.0014686584,-0.0017356873,-0.43244243,-0.007965845,9.797108,2,1683900742.8253746
-0.04672479,-0.002335481,0.9837684,-0.0014686584,-0.0014686584,-0.0017356873,-0.43275124,-0.008213929,9.797094,2,1683900742.840754
-0.04672479,-0.002335481,0.9837684,-0.0014686584,-0.0004005432,-0.000667572,-0.43275124,-0.008213929,9.797094,2,1683900742.8458877
-0.04672479,-0.002335481,0.9837684,-0.0014686584,-0.0004005432,-0.000667572,-0.43279615,-0.00862751,9.797091,2,1683900742.8612714
-0.04672479,-0.002335481,0.9837684,-0.0025367737,-0.0014686584,-0.000667572,-0.43279615,-0.00862751,9.797091,2,1683900742.866399
-0.044768445,-0.004291826,0.9820547,-0.0025367737,-0.0014686584,-0.000667572,-0.43279615,-0.00862751,9.797091,2,1683900742.876654
-0.043540042,-0.0018501864,0.97912776,-0.0025367737,-0.0014686584,-0.000667572,-0.43272623,-0.008878757,9.797093,2,1683900742.8920631
-0.043540042,-0.0018501864,0.97912776,-0.0004005432,-0.0014686584,-0.0017356873,-0.43272623,-0.008878757,9.797093,2,1683900742.8971932
-0.043540042,-0.0018501864,0.97912776,-0.0004005432,-0.0004005432,0.0014686584,-0.43272623,-0.008878757,9.797093,2,1683900742.9227695
-0.042326804,-0.000394302,0.98352575,-0.0004005432,-0.0004005432,0.0014686584,-0.43272623,-0.008878757,9.797093,2,1683900742.9381585
-0.042326804,-0.000394302,0.98352575,-0.0004005432,-0.0004005432,0.0014686584,-0.43241966,-0.008794667,9.797108,2,1683900742.943249
-0.042326804,-0.000394302,0.98352575,-0.0004005432,-0.0004005432,0.0014686584,-0.43205363,-0.008804179,9.797125,2,1683900742.9637568
-0.04134105,0.0022899848,0.9810841,-0.0004005432,-0.0004005432,0.0014686584,-0.43205363,-0.008804179,9.797125,2,1683900742.9688904
-0.04134105,0.0022899848,0.9810841,-0.0004005432,-0.0014686584,-0.000667572,-0.43205363,-0.008804179,9.797125,2,1683900742.9740238
-0.04134105,0.0022899848,0.9810841,-0.0004005432,-0.0014686584,-0.000667572,-0.43153992,-0.008712077,9.797145,2,1683900742.9894028
-0.041598864,0.00059145305,0.98401105,-0.0004005432,-0.0014686584,-0.000667572,-0.43153992,-0.008712077,9.797145,2,1683900742.999667
-0.041598864,0.00059145305,0.98401105,-0.0025367737,-0.0004005432,-0.0017356873,-0.43153992,-0.008712077,9.797145,2,1683900743.0048068
-0.041598864,0.00059145305,0.98401105,-0.0025367737,-0.0014686584,-0.000667572,-0.43153992,-0.008712077,9.797145,2,1683900743.0150325
-0.044768445,0.0013193953,0.9815694,-0.0025367737,-0.0014686584,-0.000667572,-0.43153992,-0.008712077,9.797145,2,1683900743.0303721
-0.044768445,0.0013193953,0.9815694,-0.0025367737,-0.0014686584,-0.000667572,-0.43159634,-0.008655718,9.797145,2,1683900743.0457683
-0.045981683,-0.00013648917,0.9820547,-0.0025367737,-0.0014686584,-0.000667572,-0.43159634,-0.008655718,9.797145,2,1683900743.076545
-0.045981683,-0.00013648917,0.9820547,-0.0025367737,-0.0014686584,-0.000667572,-0.43173635,-0.00868964,9.797138,2,1683900743.091926
-0.045981683,-0.00013648917,0.9820547,-0.003604889,-0.0014686584,0.0004005432,-0.43173635,-0.00868964,9.797138,2,1683900743.0970607
-0.045981683,-0.00013648917,0.9820547,-0.003604889,-0.0014686584,0.0004005432,-0.4315872,-0.008991982,9.797145,2,1683900743.1073167
-0.044768445,-0.0025781286,0.9827826,-0.003604889,-0.0014686584,0.0004005432,-0.4315872,-0.008991982,9.797145,2,1683900743.1277616
-0.044768445,-0.0025781286,0.9827826,-0.003604889,-0.0014686584,-0.000667572,-0.4315872,-0.008991982,9.797145,2,1683900743.132893
-0.044768445,-0.0025781286,0.9827826,-0.0004005432,-0.0014686584,-0.000667572,-0.4315872,-0.008991982,9.797145,2,1683900743.163644
-0.04378269,-0.0011222442,0.9842537,-0.0004005432,-0.0014686584,-0.000667572,-0.4315872,-0.008991982,9.797145,2,1683900743.168776
-0.04378269,-0.0011222442,0.9842537,-0.0004005432,-0.0014686584,-0.000667572,-0.43115175,-0.009746409,9.797164,2,1683900743.1739087
-0.04378269,-0.0011222442,0.9842537,-0.0004005432,-0.0014686584,-0.000667572,-0.43106166,-0.009751244,9.797167,2,1683900743.179038
-0.043540042,-0.00013648917,0.9805988,-0.0004005432,-0.0014686584,-0.000667572,-0.43106166,-0.009751244,9.797167,2,1683900743.1841326
-0.043540042,-0.00013648917,0.9805988,-0.0014686584,-0.0025367737,-0.000667572,-0.43106166,-0.009751244,9.797167,2,1683900743.1892605
-0.044768445,-0.0035638837,0.9810841,-0.0014686584,-0.0025367737,-0.000667572,-0.43106166,-0.009751244,9.797167,2,1683900743.2251444
-0.044768445,-0.0035638837,0.9810841,-0.0014686584,-0.0025367737,-0.000667572,-0.4306748,-0.010751209,9.797183,2,1683900743.2404387
-0.044768445,-0.0035638837,0.9810841,-0.0025367737,-0.003604889,-0.0017356873,-0.4306748,-0.010751209,9.797183,2,1683900743.2506535
-0.045011092,-0.0025781286,0.9832831,-0.0025367737,-0.003604889,-0.0017356873,-0.4306748,-0.010751209,9.797183,2,1683900743.2557974
-0.045011092,-0.0025781286,0.9832831,-0.0025367737,-0.0014686584,-0.000667572,-0.4306748,-0.010751209,9.797183,2,1683900743.2609286
-0.045011092,-0.0025781286,0.9832831,-0.0025367737,-0.0014686584,-0.000667572,-0.43071982,-0.011268632,9.79718,2,1683900743.2711911
-0.045011092,-0.0025781286,0.9832831,-0.0014686584,-0.0004005432,0.0004005432,-0.43071982,-0.011268632,9.79718,2,1683900743.2968564
-0.045011092,-0.0025781286,0.9832831,-0.0014686584,-0.0004005432,0.0004005432,-0.43092123,-0.011535163,9.797172,2,1683900743.3019786
-0.04622433,-0.0011222442,0.98254,-0.0014686584,-0.0004005432,0.0004005432,-0.43092123,-0.011535163,9.797172,2,1683900743.322467
-0.040613107,-0.0008795968,0.9827826,-0.0014686584,-0.0004005432,0.0004005432,-0.43092123,-0.011535163,9.797172,2,1683900743.3890805
-0.040613107,-0.0008795968,0.9827826,-0.0014686584,-0.0004005432,0.0004005432,-0.43021402,-0.011987722,9.797201,2,1683900743.4044352
-0.040613107,-0.0008795968,0.9827826,-0.003604889,-0.0014686584,-0.000667572,-0.43021402,-0.011987722,9.797201,2,1683900743.430063
-0.04305475,-0.0025781286,0.9810841,-0.003604889,-0.0014686584,-0.000667572,-0.43021402,-0.011987722,9.797201,2,1683900743.440286
-0.04402534,-0.0025781286,0.9810841,-0.0004005432,-0.0014686584,0.0004005432,-0.43023503,-0.012269586,9.7972,2,1683900743.4454398
-0.04402534,-0.0025781286,0.9810841,-0.0004005432,-0.0014686584,0.0004005432,-0.43017423,-0.0125470655,9.797203,2,1683900743.4762058
-0.04402534,-0.0025781286,0.9810841,-0.0004005432,-0.0014686584,0.0004005432,-0.42991158,-0.012852232,9.7972145,2,1683900743.5069396
-0.041598864,-0.0033212362,0.97912776,-0.0004005432,-0.0014686584,0.0004005432,-0.42991158,-0.012852232,9.7972145,2,1683900743.5120368
-0.04184151,-0.003078589,0.9810841,-0.0004005432,-0.0014686584,0.0004005432,-0.42991158,-0.012852232,9.7972145,2,1683900743.5325038
-0.042326804,-0.00063694944,0.98401105,-0.0004005432,-0.0014686584,0.0004005432,-0.42991158,-0.012852232,9.7972145,2,1683900743.558157
-0.042326804,-0.00063694944,0.98401105,0.0017356873,0.000667572,0.0004005432,-0.42991158,-0.012852232,9.7972145,2,1683900743.5683746
-0.042326804,-0.00063694944,0.98401105,0.0017356873,0.000667572,0.0004005432,-0.42957783,-0.0132257715,9.797228,2,1683900743.5735013
-0.042326804,-0.00063694944,0.98401105,0.000667572,-0.0004005432,-0.000667572,-0.42957783,-0.0132257715,9.797228,2,1683900743.5990767
-0.042326804,-0.00063694944,0.98401105,0.000667572,-0.0004005432,-0.000667572,-0.4292222,-0.0134022385,9.797243,2,1683900743.6093342
-0.0428121,-0.000394302,0.9832831,0.000667572,-0.0004005432,-0.000667572,-0.4292222,-0.0134022385,9.797243,2,1683900743.6196017
-0.0428121,-0.000394302,0.9832831,-0.0004005432,-0.0014686584,0.0004005432,-0.4292222,-0.0134022385,9.797243,2,1683900743.634948
-0.04622433,0.00059145305,0.9815694,-0.0004005432,-0.0014686584,0.0004005432,-0.4292222,-0.0134022385,9.797243,2,1683900743.640072
-0.04622433,0.00059145305,0.9815694,-0.0004005432,-0.0014686584,0.0004005432,-0.42937848,-0.013153199,9.797236,2,1683900743.6452012
-0.04622433,0.00059145305,0.9815694,-0.0004005432,-0.0014686584,0.0004005432,-0.4296334,-0.013276658,9.797225,2,1683900743.6656976
-0.045981683,-0.002820776,0.9815694,-0.0004005432,-0.0014686584,0.0004005432,-0.4296334,-0.013276658,9.797225,2,1683900743.6708217
-0.045981683,-0.002820776,0.9815694,-0.0004005432,-0.0014686584,0.0004005432,-0.42939687,-0.013342169,9.797236,2,1683900743.6862226
-0.04037046,-0.0018501864,0.980341,-0.0004005432,-0.0014686584,0.0004005432,-0.42939687,-0.013342169,9.797236,2,1683900743.6862295
-0.04037046,-0.0018501864,0.980341,-0.0004005432,-0.0014686584,0.0004005432,-0.42922473,-0.013705455,9.797243,2,1683900743.7169478
-0.04402534,-0.002820776,0.9810841,-0.0004005432,-0.0014686584,0.0004005432,-0.42922473,-0.013705455,9.797243,2,1683900743.7220767
-0.04402534,-0.002820776,0.9810841,-0.0004005432,0.000667572,-0.000667572,-0.42922473,-0.013705455,9.797243,2,1683900743.7272015
-0.04402534,-0.00013648917,0.98229736,-0.0004005432,0.000667572,-0.000667572,-0.42922473,-0.013705455,9.797243,2,1683900743.7528481
-0.04402534,-0.00013648917,0.98229736,-0.0004005432,0.000667572,-0.000667572,-0.4291235,-0.013974667,9.797247,2,1683900743.7579792
-0.04402534,-0.00013648917,0.98229736,-0.0004005432,0.000667572,0.0004005432,-0.4291235,-0.013974667,9.797247,2,1683900743.7631128
-0.04402534,-0.00013648917,0.98229736,-0.0004005432,-0.0004005432,0.0004005432,-0.4291235,-0.013974667,9.797247,2,1683900743.7836182
-0.04402534,-0.00013648917,0.98229736,-0.0004005432,-0.0004005432,0.0004005432,-0.42912614,-0.014255144,9.797246,2,1683900743.7989686
-0.043297395,-0.004534473,0.98254,-0.0004005432,-0.0004005432,0.0004005432,-0.42912614,-0.014255144,9.797246,2,1683900743.8041136
-0.043297395,-0.004534473,0.98254,-0.0004005432,-0.0004005432,0.0004005432,-0.42909223,-0.0144987395,9.797247,2,1683900743.8245838
-0.04305475,-0.0011222442,0.9810841,-0.0004005432,-0.0004005432,0.0004005432,-0.42909223,-0.0144987395,9.797247,2,1683900743.8348424
-0.04305475,-0.0011222442,0.9810841,-0.0004005432,0.000667572,0.0004005432,-0.42909223,-0.0144987395,9.797247,2,1683900743.8399699
-0.042326804,-0.0025781286,0.9832831,-0.0004005432,0.000667572,0.0004005432,-0.42909223,-0.0144987395,9.797247,2,1683900743.845095
-0.042326804,-0.0025781286,0.9832831,-0.0004005432,-0.0004005432,0.0004005432,-0.42909223,-0.0144987395,9.797247,2,1683900743.8655777
-0.042326804,-0.0025781286,0.9832831,-0.0004005432,-0.0004005432,0.0004005432,-0.42897645,-0.014409699,9.797253,2,1683900743.8707073
-0.042326804,-0.0025781286,0.9832831,-0.0004005432,-0.0004005432,0.0004005432,-0.42892694,-0.014373733,9.797255,2,1683900743.8860877
-0.042326804,-0.0025781286,0.9832831,0.000667572,0.0017356873,0.0014686584,-0.42892694,-0.014373733,9.797255,2,1683900743.891181
-0.043297395,-0.0011222442,0.9827826,0.000667572,0.0017356873,0.0014686584,-0.42892694,-0.014373733,9.797255,2,1683900743.9117105
-0.043297395,-0.0011222442,0.9827826,-0.0004005432,0.000667572,0.0004005432,-0.42892694,-0.014373733,9.797255,2,1683900743.9373348
-0.040855754,-0.0011222442,0.9815694,-0.0004005432,0.000667572,0.0004005432,-0.42892694,-0.014373733,9.797255,2,1683900743.9424636
-0.040855754,-0.0011222442,0.9815694,-0.0004005432,0.000667572,0.0004005432,-0.42882597,-0.01425745,9.797259,2,1683900743.9475925
-0.040855754,-0.0011222442,0.9815694,0.0017356873,0.000667572,0.0014686584,-0.42882597,-0.01425745,9.797259,2,1683900743.9681108
-0.040855754,-0.0011222442,0.9815694,0.0017356873,0.000667572,0.0014686584,-0.42889354,-0.01408837,9.797256,2,1683900743.9732404
-0.041098405,-0.001607539,0.9842537,0.0017356873,0.000667572,0.0014686584,-0.42889354,-0.01408837,9.797256,2,1683900743.9783714
-0.04769538,0.0010767478,0.98132676,0.0017356873,0.000667572,0.0014686584,-0.42889354,-0.01408837,9.797256,2,1683900743.9937537
-0.04769538,0.0010767478,0.98132676,0.000667572,0.000667572,-0.000667572,-0.42889354,-0.01408837,9.797256,2,1683900743.998879
-0.04769538,0.0010767478,0.98132676,0.000667572,0.000667572,-0.000667572,-0.42944297,-0.014001647,9.797233,2,1683900744.0193582
-0.04769538,0.0010767478,0.98132676,0.000667572,0.000667572,-0.000667572,-0.42916638,-0.015556279,9.797243,2,1683900744.0501175
-0.04402534,-0.0040491787,0.9832831,0.000667572,0.000667572,-0.000667572,-0.42916638,-0.015556279,9.797243,2,1683900744.0552163
-0.04402534,-0.0040491787,0.9832831,0.000667572,0.000667572,-0.000667572,-0.428825,-0.015557104,9.797257,2,1683900744.0706096
-0.04402534,-0.0040491787,0.9832831,0.0017356873,0.000667572,0.0004005432,-0.428825,-0.015557104,9.797257,2,1683900744.0757387
-0.042569455,0.0013193953,0.98084146,0.0017356873,0.000667572,0.0004005432,-0.428825,-0.015557104,9.797257,2,1683900744.0808656
-0.042569455,0.0013193953,0.98084146,0.000667572,-0.0004005432,0.0004005432,-0.428825,-0.015557104,9.797257,2,1683900744.1167724
-0.044768445,-0.002335481,0.98254,0.000667572,-0.0004005432,0.0004005432,-0.428825,-0.015557104,9.797257,2,1683900744.1270318
-0.044768445,-0.002335481,0.98254,0.000667572,-0.0004005432,0.0004005432,-0.42868194,-0.01526254,9.797264,2,1683900744.1475286
-0.044768445,-0.002335481,0.98254,-0.0004005432,-0.0004005432,0.0004005432,-0.42868194,-0.01526254,9.797264,2,1683900744.1526508
-0.045981683,0.00010615824,0.9837684,-0.0004005432,-0.0004005432,0.0004005432,-0.42868194,-0.01526254,9.797264,2,1683900744.1577814
-0.045981683,0.00010615824,0.9837684,-0.0004005432,-0.0004005432,0.0004005432,-0.42890656,-0.015146706,9.7972555,2,1683900744.168043
-0.045981683,0.00010615824,0.9837684,-0.0004005432,-0.0004005432,0.0004005432,-0.42895347,-0.015141979,9.797252,2,1683900744.1988077
-0.04134105,-0.002820776,0.98132676,-0.0004005432,-0.0004005432,0.0004005432,-0.42895347,-0.015141979,9.797252,2,1683900744.209067
-0.04134105,-0.002820776,0.98132676,-0.0004005432,0.000667572,0.0004005432,-0.42895347,-0.015141979,9.797252,2,1683900744.2141917
-0.04134105,-0.002820776,0.98132676,-0.0014686584,0.000667572,-0.000667572,-0.42895347,-0.015141979,9.797252,2,1683900744.2243762
-0.04134105,-0.002820776,0.98132676,-0.0014686584,0.000667572,-0.000667572,-0.42908674,-0.014898348,9.797247,2,1683900744.23973
-0.041598864,-0.002820776,0.98181206,-0.0014686584,0.000667572,-0.000667572,-0.42908674,-0.014898348,9.797247,2,1683900744.244854
-0.041598864,-0.002820776,0.98181206,-0.0014686584,0.000667572,-0.000667572,-0.42900243,-0.015082857,9.797252,2,1683900744.265376
-0.041598864,-0.002820776,0.98181206,0.000667572,0.000667572,-0.000667572,-0.42900243,-0.015082857,9.797252,2,1683900744.2909899
-0.041598864,-0.002820776,0.98181206,0.000667572,0.000667572,-0.000667572,-0.4303179,-0.013937283,9.7971945,2,1683900744.301247
-0.04305475,-0.002335481,0.98229736,0.000667572,0.000667572,-0.000667572,-0.4303179,-0.013937283,9.7971945,2,1683900744.316645
-0.04305475,-0.002335481,0.98229736,-0.0004005432,-0.0004005432,-0.000667572,-0.4303179,-0.013937283,9.7971945,2,1683900744.3269076
-0.04305475,-0.002335481,0.98229736,-0.0004005432,-0.0004005432,-0.000667572,-0.4307116,-0.013012496,9.797179,2,1683900744.347348
-0.04305475,-0.002335481,0.98229736,0.0017356873,0.0038719177,0.0004005432,-0.4307116,-0.013012496,9.797179,2,1683900744.3524776
-0.04525374,0.0010767478,0.98449636,0.0017356873,0.0038719177,0.0004005432,-0.4307116,-0.013012496,9.797179,2,1683900744.3627377
-0.04525374,0.0010767478,0.98449636,0.0017356873,0.0038719177,0.0004005432,-0.43156955,-0.012138267,9.797143,2,1683900744.378162
-0.045739036,0.0025477977,0.9820547,0.0017356873,0.0038719177,0.0004005432,-0.43156955,-0.012138267,9.797143,2,1683900744.388381
-0.045739036,0.0025477977,0.9820547,0.0017356873,0.0017356873,-0.000667572,-0.43156955,-0.012138267,9.797143,2,1683900744.3986459
-0.045739036,0.0025477977,0.9820547,0.000667572,-0.0014686584,0.0004005432,-0.43156955,-0.012138267,9.797143,2,1683900744.4140315
-0.039157223,-0.0011222442,0.98132676,0.000667572,-0.0014686584,0.0004005432,-0.43156955,-0.012138267,9.797143,2,1683900744.4242961
-0.039157223,-0.0011222442,0.98132676,0.000667572,-0.0014686584,0.0004005432,-0.43116137,-0.0120984,9.79716,2,1683900744.4294283
-0.039157223,-0.0011222442,0.98132676,0.000667572,0.0017356873,0.0004005432,-0.43116137,-0.0120984,9.79716,2,1683900744.439676
-0.042569455,-0.004777121,0.9805988,0.000667572,0.0017356873,0.0004005432,-0.43116137,-0.0120984,9.79716,2,1683900744.4550583
-0.042569455,-0.004777121,0.9805988,0.000667572,0.0017356873,0.0004005432,-0.43105355,-0.012463672,9.797164,2,1683900744.4653146
-0.042569455,-0.004777121,0.9805988,0.0017356873,0.0028038025,0.0004005432,-0.43105355,-0.012463672,9.797164,2,1683900744.4704468
-0.042569455,-0.004777121,0.9805988,0.0017356873,0.0028038025,0.0004005432,-0.43114144,-0.012673864,9.797159,2,1683900744.4909432
-0.0445258,-0.002820776,0.97864246,0.0017356873,0.0028038025,0.0004005432,-0.43114144,-0.012673864,9.797159,2,1683900744.5216415
-0.0445258,-0.002820776,0.97864246,0.0017356873,0.0028038025,0.0004005432,-0.43152195,-0.0139461085,9.797141,2,1683900744.5267308
-0.0445258,-0.002820776,0.97864246,0.0017356873,0.000667572,-0.000667572,-0.43152195,-0.0139461085,9.797141,2,1683900744.5318556
-0.043297395,-0.004534473,0.9798557,0.0017356873,0.000667572,-0.000667572,-0.43152195,-0.0139461085,9.797141,2,1683900744.5522938
-0.043297395,-0.004534473,0.9798557,0.004940033,0.0017356873,-0.000667572,-0.43152195,-0.0139461085,9.797141,2,1683900744.5625527
-0.043297395,-0.004534473,0.9798557,0.004940033,0.0017356873,-0.000667572,-0.43134198,-0.013833552,9.79715,2,1683900744.56768
-0.04428315,-0.00063694944,0.98254,0.004940033,0.0017356873,-0.000667572,-0.43134198,-0.013833552,9.79715,2,1683900744.5933204
-0.041598864,0.002790445,0.9837684,0.004940033,0.0017356873,-0.000667572,-0.43134198,-0.013833552,9.79715,2,1683900744.6035903
-0.041598864,0.002790445,0.9837684,-0.0004005432,0.0017356873,0.0004005432,-0.43134198,-0.013833552,9.79715,2,1683900744.6240852
-0.041598864,0.002790445,0.9837684,-0.0004005432,0.0017356873,0.0004005432,-0.43394142,-0.009392651,9.79704,2,1683900744.629219
-0.041598864,0.002790445,0.9837684,0.000667572,0.000667572,0.0004005432,-0.43394142,-0.009392651,9.79704,2,1683900744.6446056
-0.041598864,0.002790445,0.9837684,0.000667572,0.000667572,0.0004005432,-0.43394685,-0.008392778,9.79704,2,1683900744.6548297
-0.04525374,0.00059145305,0.9820547,0.000667572,0.000667572,0.0004005432,-0.43394685,-0.008392778,9.79704,2,1683900744.6599667
-0.04525374,0.00059145305,0.9820547,0.000667572,0.000667572,0.0004005432,-0.4337444,-0.008300026,9.7970495,2,1683900744.6804862
-0.040855754,-0.00013648917,0.9864527,0.000667572,0.000667572,0.0004005432,-0.4337444,-0.008300026,9.7970495,2,1683900744.690778
-0.040855754,-0.00013648917,0.9864527,0.000667572,0.000667572,0.0014686584,-0.4337444,-0.008300026,9.7970495,2,1683900744.6959388
-0.040855754,-0.00013648917,0.9864527,0.000667572,0.000667572,0.0014686584,-0.43382758,-0.008672915,9.797046,2,1683900744.7165725
-0.042326804,-0.004534473,0.9820547,0.000667572,0.000667572,0.0014686584,-0.43382758,-0.008672915,9.797046,2,1683900744.7217221
-0.042326804,-0.004534473,0.9820547,-0.0004005432,-0.0004005432,-0.000667572,-0.43382758,-0.008672915,9.797046,2,1683900744.7269046
-0.042326804,-0.004534473,0.9820547,-0.0004005432,-0.0004005432,-0.000667572,-0.43400323,-0.008501789,9.797038,2,1683900744.7526855
-0.042326804,-0.004534473,0.9820547,0.000667572,-0.0004005432,-0.000667572,-0.43400323,-0.008501789,9.797038,2,1683900744.763
-0.045739036,0.0008341004,0.9798557,0.000667572,-0.0004005432,-0.000667572,-0.43400323,-0.008501789,9.797038,2,1683900744.7681448
-0.045739036,0.0008341004,0.9798557,0.000667572,0.000667572,0.0014686584,-0.43400323,-0.008501789,9.797038,2,1683900744.7733302
-0.040613107,0.0015620426,0.98181206,0.000667572,0.000667572,0.0014686584,-0.43400323,-0.008501789,9.797038,2,1683900744.788796
-0.040613107,0.0015620426,0.98181206,0.000667572,0.000667572,0.0014686584,-0.43372825,-0.0082592815,9.79705,2,1683900744.7991045
-0.0445258,-0.00063694944,0.98229736,0.000667572,0.000667572,0.0014686584,-0.43372825,-0.0082592815,9.79705,2,1683900744.8197193
-0.0445258,-0.00063694944,0.98229736,0.000667572,0.000667572,0.0014686584,-0.43416065,-0.007758434,9.797031,2,1683900744.830029
-0.0445258,-0.00063694944,0.98229736,0.000667572,-0.0004005432,0.0004005432,-0.43416065,-0.007758434,9.797031,2,1683900744.8351898
-0.0445258,-0.00063694944,0.98229736,-0.0004005432,-0.0004005432,-0.000667572,-0.43416065,-0.007758434,9.797031,2,1683900744.8506532
-0.047938026,0.00059145305,0.98132676,-0.0004005432,-0.0004005432,-0.000667572,-0.43416065,-0.007758434,9.797031,2,1683900744.855814
-0.047938026,0.00059145305,0.98132676,-0.0004005432,-0.0004005432,-0.000667572,-0.43522903,-0.008068433,9.796985,2,1683900744.871259
-0.047938026,0.00059145305,0.98132676,0.0028038025,-0.0014686584,0.0004005432,-0.43522903,-0.008068433,9.796985,2,1683900744.8867662
-0.047938026,0.00059145305,0.98132676,0.0028038025,-0.0014686584,0.0004005432,-0.4352447,-0.008065481,9.796984,2,1683900744.89707
-0.047938026,0.00059145305,0.98132676,0.0017356873,0.000667572,0.0004005432,-0.4352447,-0.008065481,9.796984,2,1683900744.9073596
-0.04428315,-0.0020928339,0.9827826,0.0017356873,0.000667572,0.0004005432,-0.4352447,-0.008065481,9.796984,2,1683900744.9176223
-0.04428315,-0.0020928339,0.9827826,0.0017356873,0.000667572,0.0004005432,-0.43538123,-0.008108765,9.796977,2,1683900744.927909
-0.04428315,-0.002335481,0.98254,0.0017356873,0.000667572,0.0004005432,-0.43538123,-0.008108765,9.796977,2,1683900744.9535272
-0.04428315,-0.002335481,0.98254,0.0017356873,0.0017356873,0.0004005432,-0.43538123,-0.008108765,9.796977,2,1683900744.9586785
-0.04428315,-0.002335481,0.98254,-0.0014686584,0.0017356873,-0.000667572,-0.43538123,-0.008108765,9.796977,2,1683900744.9741635
-0.04428315,-0.002335481,0.98254,-0.0014686584,0.0017356873,-0.000667572,-0.43616506,-0.007819002,9.796943,2,1683900744.9792926
-0.046466976,-0.000394302,0.98254,-0.0014686584,0.0017356873,-0.000667572,-0.43616506,-0.007819002,9.796943,2,1683900744.989621
-0.046967436,-0.0035638837,0.9810841,-0.0014686584,0.0017356873,-0.000667572,-0.43616506,-0.007819002,9.796943,2,1683900744.9999099
-0.046967436,-0.0035638837,0.9810841,-0.0014686584,-0.0004005432,-0.0017356873,-0.43616506,-0.007819002,9.796943,2,1683900745.0103166
-0.046967436,-0.0035638837,0.9810841,-0.0014686584,-0.0004005432,-0.0017356873,-0.43641824,-0.00812572,9.796931,2,1683900745.0206156
-0.042569455,-0.00013648917,0.9827826,-0.0014686584,-0.0004005432,-0.0017356873,-0.43641824,-0.00812572,9.796931,2,1683900745.0309384
-0.042569455,-0.00013648917,0.9827826,-0.0004005432,0.000667572,0.0004005432,-0.43641824,-0.00812572,9.796931,2,1683900745.0412638
-0.042569455,-0.00013648917,0.9827826,-0.0004005432,0.000667572,0.0004005432,-0.43667373,-0.008192961,9.79692,2,1683900745.056668
-0.042569455,-0.00013648917,0.9827826,-0.0004005432,0.000667572,0.0004005432,-0.4367868,-0.008447277,9.796915,2,1683900745.0669353
-0.042569455,-0.00013648917,0.9827826,-0.0004005432,0.000667572,-0.000667572,-0.4367868,-0.008447277,9.796915,2,1683900745.0720754
-0.04378269,-0.0013648917,0.9827826,-0.0004005432,0.000667572,-0.000667572,-0.4367868,-0.008447277,9.796915,2,1683900745.082327
-0.04378269,-0.0013648917,0.9827826,0.000667572,0.000667572,0.0004005432,-0.4367868,-0.008447277,9.796915,2,1683900745.1028306
-0.042569455,-0.0035638837,0.98132676,0.000667572,0.000667572,0.0004005432,-0.4367868,-0.008447277,9.796915,2,1683900745.118221
-0.042569455,-0.0035638837,0.98132676,0.000667572,0.000667572,0.0004005432,-0.43582255,-0.0082413135,9.796957,2,1683900745.1387634
-0.046466976,-0.0020928339,0.9842537,0.000667572,0.000667572,0.0004005432,-0.43582255,-0.0082413135,9.796957,2,1683900745.1438916
-0.046466976,-0.0020928339,0.9842537,0.000667572,-0.0004005432,0.0004005432,-0.43582255,-0.0082413135,9.796957,2,1683900745.1490202
-0.042569455,0.00034880562,0.98352575,0.000667572,-0.0004005432,0.0004005432,-0.43582255,-0.0082413135,9.796957,2,1683900745.159238
-0.042569455,0.00034880562,0.98352575,-0.0004005432,0.000667572,0.0004005432,-0.43582255,-0.0082413135,9.796957,2,1683900745.1796865
-0.042569455,0.00034880562,0.98352575,-0.0004005432,0.000667572,0.0004005432,-0.4357179,-0.0082147345,9.796963,2,1683900745.1848147
-0.042569455,0.00034880562,0.98352575,0.000667572,0.000667572,0.0004005432,-0.4357179,-0.0082147345,9.796963,2,1683900745.2411091
-0.042084157,-0.002820776,0.9837684,0.000667572,0.000667572,0.0004005432,-0.4357179,-0.0082147345,9.796963,2,1683900745.2462435
-0.042084157,-0.002820776,0.9837684,0.000667572,0.000667572,0.0004005432,-0.43531734,-0.008796591,9.796979,2,1683900745.2769878
-0.041098405,-0.001607539,0.9820547,0.000667572,0.000667572,0.0004005432,-0.43531734,-0.008796591,9.796979,2,1683900745.328162
-0.041098405,-0.001607539,0.9820547,0.000667572,0.000667572,0.0004005432,-0.4347982,-0.008696806,9.797003,2,1683900745.3588872
-0.03964252,-0.0025781286,0.98229736,0.000667572,0.000667572,0.0004005432,-0.4347982,-0.008696806,9.797003,2,1683900745.3691473
-0.03964252,-0.0025781286,0.98229736,0.000667572,0.000667572,0.0004005432,-0.43427902,-0.008836147,9.797027,2,1683900745.3742795
-0.03964252,-0.0025781286,0.98229736,-0.0004005432,-0.0004005432,-0.000667572,-0.43427902,-0.008836147,9.797027,2,1683900745.3998606
-0.04378269,-0.00063694944,0.98132676,-0.0004005432,-0.0004005432,-0.000667572,-0.43427902,-0.008836147,9.797027,2,1683900745.4151907
-0.04378269,-0.00063694944,0.98132676,-0.0004005432,-0.0004005432,-0.000667572,-0.4337936,-0.008708096,9.797047,2,1683900745.4305809
-0.042084157,-0.001607539,0.9837684,-0.0004005432,-0.0004005432,-0.000667572,-0.4337936,-0.008708096,9.797047,2,1683900745.4408386
-0.042084157,-0.001607539,0.9837684,-0.0004005432,0.000667572,0.0004005432,-0.4337936,-0.008708096,9.797047,2,1683900745.4561937
-0.042084157,-0.001607539,0.9837684,-0.0004005432,0.000667572,0.0004005432,-0.4337094,-0.008650041,9.79705,2,1683900745.4613233
-0.042084157,-0.001607539,0.9837684,0.000667572,0.000667572,-0.000667572,-0.4337094,-0.008650041,9.79705,2,1683900745.48696
-0.045011092,0.0025477977,0.98254,0.000667572,0.000667572,-0.000667572,-0.4337094,-0.008650041,9.79705,2,1683900745.497212
-0.045011092,0.0025477977,0.98254,0.000667572,0.000667572,-0.000667572,-0.43386754,-0.008336841,9.797044,2,1683900745.5023074
-0.045011092,0.0025477977,0.98254,0.000667572,0.000667572,-0.000667572,-0.43394795,-0.008445737,9.79704,2,1683900745.512557
-0.045011092,0.0025477977,0.98254,0.000667572,-0.0004005432,0.0004005432,-0.43394795,-0.008445737,9.79704,2,1683900745.5176952
-0.046466976,-0.002335481,0.9815694,0.000667572,-0.0004005432,0.0004005432,-0.43394795,-0.008445737,9.79704,2,1683900745.5381758
-0.046466976,-0.002335481,0.9815694,0.000667572,-0.0004005432,0.0004005432,-0.43393606,-0.00817268,9.797041,2,1683900745.548396
-0.043540042,-0.0013648917,0.98132676,0.000667572,-0.0004005432,0.0004005432,-0.43393606,-0.00817268,9.797041,2,1683900745.5894442
-0.043540042,-0.0013648917,0.98132676,-0.0004005432,-0.0004005432,0.0004005432,-0.43393606,-0.00817268,9.797041,2,1683900745.6047928
-0.043540042,-0.0013648917,0.98132676,-0.0004005432,-0.0004005432,0.0004005432,-0.4342844,-0.00846801,9.797026,2,1683900745.6099234
-0.043540042,-0.0013648917,0.98132676,0.0017356873,-0.0004005432,-0.000667572,-0.4342844,-0.00846801,9.797026,2,1683900745.61507
-0.046466976,-0.0018501864,0.98401105,0.0017356873,-0.0004005432,-0.000667572,-0.4342844,-0.00846801,9.797026,2,1683900745.6253197
-0.046466976,-0.0018501864,0.98401105,0.0017356873,-0.0004005432,-0.000667572,-0.43448585,-0.008593953,9.797018,2,1683900745.6457837
-0.046466976,-0.0018501864,0.98401105,0.0017356873,-0.0004005432,0.0004005432,-0.43448585,-0.008593953,9.797018,2,1683900745.6509182
-0.046466976,-0.0018501864,0.98401105,0.0017356873,-0.0004005432,0.0004005432,-0.4344236,-0.0088158855,9.797019,2,1683900745.6611414
-0.04305475,-0.004534473,0.98254,0.0017356873,-0.0004005432,0.0004005432,-0.4344236,-0.0088158855,9.797019,2,1683900745.676491
-0.042569455,-0.0033212362,0.9810841,0.0017356873,-0.0004005432,0.0004005432,-0.4344236,-0.0088158855,9.797019,2,1683900745.6816208
-0.042569455,-0.0033212362,0.9810841,-0.0004005432,-0.0004005432,-0.000667572,-0.4344236,-0.0088158855,9.797019,2,1683900745.6969962
-0.042569455,-0.0033212362,0.9810841,-0.0004005432,-0.0004005432,-0.000667572,-0.43330437,-0.008495111,9.797069,2,1683900745.7071998
-0.042569455,-0.0033212362,0.9810841,-0.0004005432,-0.0004005432,-0.000667572,-0.4338163,-0.008572523,9.797046,2,1683900745.7175179
-0.042569455,-0.0033212362,0.9810841,0.000667572,-0.0004005432,0.0004005432,-0.4338163,-0.008572523,9.797046,2,1683900745.722677
-0.042326804,0.00034880562,0.98254,0.000667572,-0.0004005432,0.0004005432,-0.4338163,-0.008572523,9.797046,2,1683900745.722688
-0.04402534,-0.0011222442,0.9810841,0.000667572,-0.0004005432,0.0004005432,-0.43363142,-0.008490622,9.797054,2,1683900745.727857
-0.04402534,-0.0011222442,0.9810841,-0.0004005432,0.000667572,0.0004005432,-0.43363142,-0.008490622,9.797054,2,1683900745.7381039
-0.04402534,-0.0011222442,0.9810841,-0.0004005432,0.000667572,0.0004005432,-0.43363184,-0.008431465,9.797054,2,1683900745.7483168
-0.04305475,0.00010615824,0.9815694,-0.0004005432,0.000667572,0.0004005432,-0.43363184,-0.008431465,9.797054,2,1683900745.7534416
-0.043297395,0.0010767478,0.9832831,-0.0004005432,0.000667572,0.0004005432,-0.43363184,-0.008431465,9.797054,2,1683900745.7585728
-0.043297395,0.0010767478,0.9832831,-0.0004005432,0.000667572,0.0004005432,-0.43348908,-0.008486586,9.797061,2,1683900745.7790775
-0.043297395,0.0010767478,0.9832831,-0.0004005432,-0.0004005432,-0.000667572,-0.43348908,-0.008486586,9.797061,2,1683900745.7892966
-0.043297395,0.0010767478,0.9832831,-0.0004005432,-0.0004005432,0.0004005432,-0.43348908,-0.008486586,9.797061,2,1683900745.7995574
-0.043297395,0.0010767478,0.9832831,-0.0004005432,-0.0004005432,0.0004005432,-0.43341672,-0.008386714,9.797064,2,1683900745.8046494
-0.0428121,0.00059145305,0.9820547,-0.0004005432,-0.0004005432,0.0004005432,-0.43341672,-0.008386714,9.797064,2,1683900745.8200653
-0.042084157,-0.004777121,0.9832831,-0.0004005432,-0.0004005432,0.0004005432,-0.43341672,-0.008386714,9.797064,2,1683900745.8507054
-0.042084157,-0.004777121,0.9832831,-0.0004005432,-0.0004005432,0.0004005432,-0.43295354,-0.008640083,9.797085,2,1683900745.8558335
-0.0445258,-0.004291826,0.9827826,-0.0004005432,-0.0004005432,0.0004005432,-0.43295354,-0.008640083,9.797085,2,1683900745.8660629
-0.0445258,-0.004291826,0.9827826,0.000667572,0.000667572,0.0004005432,-0.43295354,-0.008640083,9.797085,2,1683900745.8763099
-0.0445258,-0.004291826,0.9827826,0.000667572,0.000667572,0.0004005432,-0.43315607,-0.008882139,9.797075,2,1683900745.8916202
-0.0445258,-0.004291826,0.9827826,0.000667572,0.000667572,0.0004005432,-0.4333958,-0.008493981,9.797065,2,1683900745.8967116
-0.0445258,-0.004291826,0.9827826,0.000667572,0.000667572,0.0004005432,-0.43434155,-0.008565871,9.797023,2,1683900745.9018378
-0.042569455,-0.00063694944,0.9837684,0.000667572,0.000667572,0.0004005432,-0.43434155,-0.008565871,9.797023,2,1683900745.9069395
-0.042326804,0.00010615824,0.9820547,0.000667572,0.000667572,0.0004005432,-0.43434155,-0.008565871,9.797023,2,1683900745.9273791
-0.042326804,0.00010615824,0.9820547,0.000667572,-0.0004005432,-0.0017356873,-0.43434155,-0.008565871,9.797023,2,1683900745.9631877
-0.042326804,0.00010615824,0.9820547,-0.0004005432,0.000667572,0.0004005432,-0.43434155,-0.008565871,9.797023,2,1683900745.9734528
-0.042326804,0.00010615824,0.9820547,-0.0004005432,0.000667572,0.0004005432,-0.43330306,-0.008669158,9.79707,2,1683900745.999074
-0.042326804,0.00010615824,0.9820547,0.000667572,-0.0004005432,-0.000667572,-0.43330306,-0.008669158,9.79707,2,1683900746.004201
-0.042569455,-0.0033212362,0.98229736,0.000667572,-0.0004005432,-0.000667572,-0.43330306,-0.008669158,9.79707,2,1683900746.0093312
-0.042569455,-0.0033212362,0.98229736,0.000667572,0.000667572,-0.0017356873,-0.43330306,-0.008669158,9.79707,2,1683900746.0298452
-0.042569455,-0.0033212362,0.98229736,0.000667572,0.000667572,-0.0017356873,-0.43317375,-0.009003471,9.797074,2,1683900746.0349765
-0.042084157,-0.00063694944,0.9810841,0.000667572,0.000667572,-0.0017356873,-0.43317375,-0.009003471,9.797074,2,1683900746.0401082
-0.0428121,-0.000394302,0.98304045,0.000667572,0.000667572,-0.0017356873,-0.43317375,-0.009003471,9.797074,2,1683900746.0760193
-0.045739036,-0.0013648917,0.9827826,0.000667572,0.000667572,-0.0017356873,-0.43317375,-0.009003471,9.797074,2,1683900746.101633
-0.045739036,-0.0013648917,0.9827826,0.000667572,-0.0004005432,-0.000667572,-0.43317375,-0.009003471,9.797074,2,1683900746.1118584
-0.045739036,-0.0013648917,0.9827826,0.000667572,-0.0004005432,-0.000667572,-0.43366858,-0.009162875,9.797051,2,1683900746.116942
-0.04549639,0.0013193953,0.9798557,0.000667572,-0.0004005432,-0.000667572,-0.43379787,-0.00919622,9.797047,2,1683900746.1272206
-0.040855754,-0.0025781286,0.980341,-0.0004005432,-0.0014686584,0.0004005432,-0.43379787,-0.00919622,9.797047,2,1683900746.1323562
-0.04402534,-0.0018501864,0.9810841,0.000667572,-0.0014686584,-0.000667572,-0.43361956,-0.007585489,9.797056,2,1683900746.137531
-0.042326804,-0.002335481,0.9815694,0.000667572,0.000667572,-0.000667572,-0.43338516,-0.007666984,9.797067,2,1683900746.142706
-0.042326804,-0.002335481,0.9815694,0.000667572,0.000667572,-0.000667572,-0.43326136,-0.007707082,9.797072,2,1683900746.1477947
-0.043297395,-0.00063694944,0.9820547,0.000667572,0.000667572,-0.000667572,-0.43326136,-0.007707082,9.797072,2,1683900746.1580582
-0.043297395,-0.00063694944,0.9820547,-0.0014686584,0.000667572,-0.0017356873,-0.43326136,-0.007707082,9.797072,2,1683900746.1631925
-0.043297395,-0.00063694944,0.9820547,-0.0014686584,0.000667572,-0.0017356873,-0.43337023,-0.007726179,9.797068,2,1683900746.1734598
-0.043297395,-0.00063694944,0.9820547,0.000667572,0.000667572,-0.000667572,-0.43337023,-0.007726179,9.797068,2,1683900746.1888168
-0.04305475,-0.0025781286,0.98229736,0.000667572,0.000667572,-0.000667572,-0.43337023,-0.007726179,9.797068,2,1683900746.199082
-0.04305475,-0.0025781286,0.98229736,0.000667572,0.000667572,-0.000667572,-0.43337002,-0.007846828,9.797067,2,1683900746.2093256
-0.043540042,-0.0018501864,0.9805988,0.000667572,0.000667572,-0.000667572,-0.43337002,-0.007846828,9.797067,2,1683900746.2298472
-0.043540042,-0.0018501864,0.9805988,0.000667572,0.000667572,-0.000667572,-0.43356174,-0.0078003253,9.797058,2,1683900746.26572
-0.043540042,-0.0018501864,0.9805988,0.000667572,-0.0014686584,-0.000667572,-0.43356174,-0.0078003253,9.797058,2,1683900746.275984
-0.043540042,-0.0018501864,0.9805988,-0.0004005432,-0.0004005432,0.0004005432,-0.43356174,-0.0078003253,9.797058,2,1683900746.2811136
-0.042569455,-0.0033212362,0.9832831,-0.0004005432,-0.0004005432,0.0004005432,-0.43356174,-0.0078003253,9.797058,2,1683900746.2862408
-0.042569455,-0.0033212362,0.9832831,-0.0004005432,-0.0004005432,0.0004005432,-0.4333443,-0.007934861,9.797068,2,1683900746.2913337
-0.042569455,-0.0033212362,0.9832831,-0.0004005432,-0.0004005432,0.0004005432,-0.43306494,-0.0080497,9.79708,2,1683900746.306724
-0.04184151,-0.0018501864,0.98572475,-0.0004005432,-0.0004005432,0.0004005432,-0.43306494,-0.0080497,9.79708,2,1683900746.316991
-0.04184151,-0.0018501864,0.98572475,-0.0004005432,-0.0004005432,0.0004005432,-0.434073,-0.009318647,9.797034,2,1683900746.3272035
-0.04184151,-0.0018501864,0.98572475,-0.0014686584,-0.0014686584,0.0004005432,-0.434073,-0.009318647,9.797034,2,1683900746.3477159
-0.045981683,0.00180469,0.9815694,-0.0014686584,-0.0014686584,0.0004005432,-0.434073,-0.009318647,9.797034,2,1683900746.3579826
-0.045981683,0.00180469,0.9815694,0.000667572,-0.0004005432,-0.0017356873,-0.434073,-0.009318647,9.797034,2,1683900746.3630748
-0.045981683,0.00180469,0.9815694,0.000667572,-0.0004005432,-0.0017356873,-0.4341956,-0.009166351,9.7970295,2,1683900746.3886814
-0.045981683,0.00180469,0.9815694,-0.0004005432,0.000667572,0.0004005432,-0.4341956,-0.009166351,9.7970295,2,1683900746.4040203
-0.045981683,0.00180469,0.9815694,-0.0004005432,0.000667572,0.0004005432,-0.43410623,-0.009288147,9.797033,2,1683900746.4194002
-0.04378269,-0.0008795968,0.98304045,-0.0004005432,0.000667572,0.0004005432,-0.43410623,-0.009288147,9.797033,2,1683900746.4245324
-0.040613107,-0.0018501864,0.98304045,-0.0004005432,0.000667572,0.0004005432,-0.43410623,-0.009288147,9.797033,2,1683900746.4398823
-0.040613107,-0.0018501864,0.98304045,-0.0004005432,-0.0004005432,0.0004005432,-0.43410623,-0.009288147,9.797033,2,1683900746.4551992
-0.040613107,-0.0018501864,0.98304045,-0.0004005432,-0.0004005432,0.0004005432,-0.43384296,-0.009384373,9.797045,2,1683900746.46033
-0.040613107,-0.0018501864,0.98304045,0.000667572,-0.0004005432,0.0004005432,-0.43384296,-0.009384373,9.797045,2,1683900746.4757087
-0.041598864,-0.0025781286,0.98254,0.000667572,-0.0004005432,0.0004005432,-0.43384296,-0.009384373,9.797045,2,1683900746.480843
-0.041598864,-0.0025781286,0.98254,0.000667572,-0.0004005432,0.0004005432,-0.4335409,-0.009014962,9.797058,2,1683900746.4962344
-0.041598864,-0.0025781286,0.98254,-0.0004005432,-0.0004005432,0.0004005432,-0.4335409,-0.009014962,9.797058,2,1683900746.5065138
-0.041598864,-0.0025781286,0.98254,-0.0004005432,-0.0004005432,0.0004005432,-0.4336311,-0.009052652,9.797054,2,1683900746.5270643
-0.04305475,-0.00013648917,0.9805988,-0.0004005432,-0.0004005432,0.0004005432,-0.4336311,-0.009052652,9.797054,2,1683900746.552673
-0.04305475,-0.00013648917,0.9805988,-0.0004005432,-0.0004005432,0.0004005432,-0.43341437,-0.009147447,9.797065,2,1683900746.568115
-0.04305475,-0.00013648917,0.9805988,-0.0004005432,-0.0014686584,-0.000667572,-0.43341437,-0.009147447,9.797065,2,1683900746.5732648
-0.04037046,0.0008341004,0.9815694,-0.0004005432,-0.0014686584,-0.000667572,-0.43341437,-0.009147447,9.797065,2,1683900746.583543
-0.04037046,0.0008341004,0.9815694,-0.0004005432,-0.0014686584,-0.000667572,-0.43326336,-0.008850334,9.7970705,2,1683900746.588714
-0.041598864,0.00034880562,0.98084146,-0.0004005432,-0.0014686584,-0.000667572,-0.43326336,-0.008850334,9.7970705,2,1683900746.6143818
-0.041598864,0.00034880562,0.98084146,-0.0004005432,-0.0014686584,-0.000667572,-0.43322656,-0.009423109,9.797071,2,1683900746.6398752
-0.041598864,0.00034880562,0.98084146,-0.0004005432,0.000667572,-0.000667572,-0.43322656,-0.009423109,9.797071,2,1683900746.644993
-0.041598864,0.00034880562,0.98084146,0.000667572,-0.0004005432,-0.0017356873,-0.43322656,-0.009423109,9.797071,2,1683900746.6501234
-0.041598864,0.00034880562,0.98084146,0.000667572,-0.0004005432,-0.0017356873,-0.43330052,-0.009322645,9.79707,2,1683900746.6552448
-0.0445258,0.00010615824,0.9832831,0.000667572,-0.0004005432,-0.0017356873,-0.43330052,-0.009322645,9.79707,2,1683900746.665537
-0.0445258,-0.0025781286,0.98229736,0.000667572,-0.0004005432,-0.0017356873,-0.43330052,-0.009322645,9.79707,2,1683900746.6757803
-0.0445258,-0.0025781286,0.98229736,0.000667572,-0.0004005432,-0.0017356873,-0.43342224,-0.009481779,9.797063,2,1683900746.6860285
-0.0445258,-0.0025781286,0.98229736,-0.0004005432,0.000667572,-0.000667572,-0.43342224,-0.009481779,9.797063,2,1683900746.6963239
-0.0445258,-0.0025781286,0.98229736,-0.0014686584,0.000667572,-0.000667572,-0.43342224,-0.009481779,9.797063,2,1683900746.701429
-0.0445258,-0.0008795968,0.98181206,-0.0014686584,0.000667572,-0.000667572,-0.43342224,-0.009481779,9.797063,2,1683900746.7065768
-0.0445258,-0.0008795968,0.98181206,-0.0014686584,0.000667572,-0.000667572,-0.4336795,-0.009926451,9.797051,2,1683900746.7270696
-0.0445258,-0.0008795968,0.98181206,-0.0014686584,0.000667572,-0.000667572,-0.4336018,-0.00958154,9.797055,2,1683900746.7424293
-0.042569455,-0.0011222442,0.9820547,-0.0014686584,0.000667572,-0.000667572,-0.4336018,-0.00958154,9.797055,2,1683900746.7475548
-0.042569455,-0.0011222442,0.9820547,0.000667572,0.000667572,0.0004005432,-0.4336294,-0.00983055,9.797054,2,1683900746.76299
-0.042569455,-0.0011222442,0.9820547,-0.0014686584,0.000667572,0.0004005432,-0.4336294,-0.00983055,9.797054,2,1683900746.7732594
-0.04378269,-0.0008795968,0.98304045,-0.0014686584,0.000667572,0.0004005432,-0.4336294,-0.00983055,9.797054,2,1683900746.7783859
-0.040855754,-0.0008795968,0.98254,-0.0014686584,0.000667572,0.0004005432,-0.4336294,-0.00983055,9.797054,2,1683900746.8040018
-0.040855754,-0.0008795968,0.98254,-0.0004005432,-0.0004005432,0.0004005432,-0.4336294,-0.00983055,9.797054,2,1683900746.8091328
-0.040855754,-0.0008795968,0.98254,-0.0004005432,-0.0004005432,0.0004005432,-0.4335797,-0.009798122,9.797056,2,1683900746.8194027
-0.042326804,0.00010615824,0.9798557,-0.0004005432,-0.0004005432,0.0004005432,-0.4335797,-0.009798122,9.797056,2,1683900746.8398771
-0.042326804,0.00010615824,0.9798557,-0.0004005432,-0.0004005432,0.0004005432,-0.43295762,-0.010233747,9.797083,2,1683900746.8756402
-0.042326804,0.00010615824,0.9798557,-0.0004005432,0.000667572,-0.000667572,-0.43295762,-0.010233747,9.797083,2,1683900746.8859076
-0.0428121,-0.0011222442,0.9837684,-0.0004005432,0.000667572,-0.000667572,-0.43295762,-0.010233747,9.797083,2,1683900746.8910398
-0.0428121,-0.0011222442,0.9837684,-0.0004005432,-0.0014686584,-0.000667572,-0.43295762,-0.010233747,9.797083,2,1683900746.9115145
-0.04184151,0.00059145305,0.9837684,-0.0004005432,-0.0014686584,-0.000667572,-0.43295762,-0.010233747,9.797083,2,1683900746.9217713
-0.04184151,0.00059145305,0.9837684,-0.0004005432,-0.0014686584,-0.000667572,-0.43244562,-0.0104848435,9.797105,2,1683900746.9319918
-0.04428315,-0.0020928339,0.98229736,-0.0004005432,-0.0014686584,-0.000667572,-0.43244562,-0.0104848435,9.797105,2,1683900746.9575531
-0.04428315,-0.0020928339,0.98229736,-0.0004005432,-0.0014686584,-0.000667572,-0.4324628,-0.010228225,9.797105,2,1683900746.967816
-0.04428315,-0.0020928339,0.98229736,0.000667572,0.000667572,0.0004005432,-0.4324628,-0.010228225,9.797105,2,1683900746.9780126
-0.04428315,-0.0020928339,0.98229736,0.000667572,0.000667572,0.0004005432,-0.4325713,-0.010285335,9.7971,2,1683900747.0138307
-0.045011092,-0.002820776,0.9798557,0.000667572,0.000667572,0.0004005432,-0.4325713,-0.010285335,9.7971,2,1683900747.0342712
-0.045011092,-0.002820776,0.9798557,0.000667572,0.000667572,0.0004005432,-0.4328304,-0.010117992,9.797089,2,1683900747.0393639
-0.045011092,-0.002820776,0.9798557,-0.0004005432,0.000667572,-0.000667572,-0.4328304,-0.010117992,9.797089,2,1683900747.0495677
-0.04428315,-0.0038065312,0.9827826,-0.0004005432,0.000667572,-0.000667572,-0.4328304,-0.010117992,9.797089,2,1683900747.0649157
-0.04428315,-0.0038065312,0.9827826,-0.0004005432,0.000667572,-0.000667572,-0.43270195,-0.009782185,9.797094,2,1683900747.0751483
-0.04428315,-0.0038065312,0.9827826,0.000667572,-0.0014686584,0.0014686584,-0.43270195,-0.009782185,9.797094,2,1683900747.0802758
-0.04428315,-0.0038065312,0.9827826,-0.0004005432,-0.0004005432,0.0014686584,-0.43270195,-0.009782185,9.797094,2,1683900747.0905392
-0.044768445,-0.0008795968,0.9827826,-0.0004005432,-0.0004005432,0.0014686584,-0.43270195,-0.009782185,9.797094,2,1683900747.1007998
-0.044768445,-0.0008795968,0.9827826,-0.0004005432,-0.0004005432,0.0014686584,-0.43292275,-0.010123939,9.797085,2,1683900747.1213446
-0.044768445,-0.0008795968,0.9827826,-0.0004005432,-0.0004005432,-0.000667572,-0.43292275,-0.010123939,9.797085,2,1683900747.1367517
-0.044768445,-0.0008795968,0.9827826,-0.0004005432,-0.0004005432,-0.000667572,-0.43242466,-0.010371216,9.797106,2,1683900747.147003
-0.042326804,-0.002335481,0.98009837,-0.0004005432,-0.0004005432,-0.000667572,-0.43242466,-0.010371216,9.797106,2,1683900747.1520946
-0.042326804,-0.002335481,0.98009837,0.000667572,-0.0004005432,0.0004005432,-0.43242466,-0.010371216,9.797106,2,1683900747.1880102
-0.040855754,-0.0035638837,0.9859674,0.000667572,-0.0004005432,0.0004005432,-0.43242466,-0.010371216,9.797106,2,1683900747.193166
-0.040855754,-0.0035638837,0.9859674,0.000667572,-0.0004005432,0.0004005432,-0.43180454,-0.010343191,9.797133,2,1683900747.2086756
-0.04428315,-0.0011222442,0.9820547,0.000667572,-0.0004005432,0.0004005432,-0.43180454,-0.010343191,9.797133,2,1683900747.224209
-0.04428315,-0.0011222442,0.9820547,0.000667572,0.000667572,-0.000667572,-0.43180454,-0.010343191,9.797133,2,1683900747.2294154
-0.04428315,-0.0011222442,0.9820547,0.000667572,0.000667572,-0.000667572,-0.43175656,-0.010647908,9.797135,2,1683900747.2346342
-0.04428315,-0.0011222442,0.9820547,0.000667572,0.000667572,0.0004005432,-0.43175656,-0.010647908,9.797135,2,1683900747.2500076
-0.04378269,-0.003078589,0.98009837,0.000667572,0.000667572,0.0004005432,-0.43175656,-0.010647908,9.797135,2,1683900747.2602677
-0.042084157,-0.001607539,0.97864246,0.000667572,0.000667572,0.0004005432,-0.43175656,-0.010647908,9.797135,2,1683900747.2909713
-0.042084157,-0.001607539,0.97864246,0.000667572,0.000667572,-0.000667572,-0.43175656,-0.010647908,9.797135,2,1683900747.296106
-0.042084157,-0.001607539,0.97864246,0.000667572,0.000667572,-0.000667572,-0.43170223,-0.010663331,9.797138,2,1683900747.3012395
-0.042084157,-0.001607539,0.97864246,0.000667572,0.000667572,-0.000667572,-0.43150774,-0.010184082,9.797146,2,1683900747.3063676
-0.042084157,-0.001607539,0.97864246,0.0017356873,-0.0004005432,0.0014686584,-0.43150774,-0.010184082,9.797146,2,1683900747.3166354
-0.040855754,0.0008341004,0.98621005,0.0017356873,-0.0004005432,0.0014686584,-0.43150774,-0.010184082,9.797146,2,1683900747.3268657
-0.04549639,0.0022899848,0.98084146,0.0017356873,-0.0004005432,0.0014686584,-0.43150774,-0.010184082,9.797146,2,1683900747.3883014
-0.04549639,0.0022899848,0.98084146,0.000667572,0.000667572,0.0004005432,-0.43150774,-0.010184082,9.797146,2,1683900747.3934283
-0.04549639,0.0022899848,0.98084146,0.000667572,0.000667572,0.0004005432,-0.43217653,-0.009855679,9.797118,2,1683900747.3985538
-0.04549639,0.0022899848,0.98084146,0.000667572,-0.0004005432,-0.000667572,-0.43217653,-0.009855679,9.797118,2,1683900747.4139354
-0.04549639,0.0022899848,0.98084146,0.000667572,-0.0004005432,-0.000667572,-0.4318871,-0.010275841,9.79713,2,1683900747.4241662
-0.040855754,-0.0013648917,0.9815694,0.000667572,-0.0004005432,-0.000667572,-0.4318871,-0.010275841,9.79713,2,1683900747.4344304
-0.040855754,-0.0013648917,0.9815694,-0.0004005432,-0.0004005432,0.0004005432,-0.4318871,-0.010275841,9.79713,2,1683900747.4446945
-0.040855754,-0.0013648917,0.9815694,-0.0004005432,-0.0004005432,0.0004005432,-0.4321804,-0.009785098,9.797118,2,1683900747.4602468
-0.043540042,0.00010615824,0.98084146,-0.0004005432,-0.0004005432,0.0004005432,-0.4321804,-0.009785098,9.797118,2,1683900747.4705863
-0.043540042,0.00010615824,0.98084146,0.000667572,0.000667572,0.0004005432,-0.4321804,-0.009785098,9.797118,2,1683900747.491429
-0.04378269,-0.0020928339,0.9815694,0.000667572,0.000667572,0.0004005432,-0.43257,-0.009585385,9.7971,2,1683900747.4971051
-0.04378269,-0.0020928339,0.9815694,0.000667572,0.000667572,0.0004005432,-0.43314862,-0.010262896,9.797074,2,1683900747.5198324
-0.042326804,-0.004534473,0.97912776,0.000667572,0.000667572,0.0004005432,-0.43314862,-0.010262896,9.797074,2,1683900747.5198529
-0.047452733,-0.0018501864,0.98009837,0.000667572,0.000667572,0.0004005432,-0.43314862,-0.010262896,9.797074,2,1683900747.5302017
-0.047452733,-0.0018501864,0.98009837,0.000667572,0.0017356873,0.0004005432,-0.43314862,-0.010262896,9.797074,2,1683900747.5427637
-0.047452733,-0.0018501864,0.98009837,-0.0004005432,0.000667572,0.0004005432,-0.43314862,-0.010262896,9.797074,2,1683900747.5478966
-0.047452733,-0.0018501864,0.98009837,-0.0004005432,0.000667572,0.0004005432,-0.43331861,-0.01061938,9.797067,2,1683900747.553063
-0.04402534,-0.0035638837,0.9832831,-0.0004005432,0.000667572,0.0004005432,-0.43331861,-0.01061938,9.797067,2,1683900747.5685716
-0.04402534,-0.0035638837,0.9832831,0.000667572,0.0017356873,-0.000667572,-0.43331861,-0.01061938,9.797067,2,1683900747.589144
-0.04402534,-0.0035638837,0.9832831,0.000667572,0.0017356873,-0.000667572,-0.43344826,-0.010796889,9.797061,2,1683900747.5942783
-0.04134105,-0.0013648917,0.98449636,0.000667572,0.0017356873,-0.000667572,-0.43344826,-0.010796889,9.797061,2,1683900747.6097171
-0.04134105,-0.0013648917,0.98449636,0.0017356873,-0.0004005432,-0.0017356873,-0.43344826,-0.010796889,9.797061,2,1683900747.6252055
-0.04134105,-0.0013648917,0.98449636,0.0017356873,-0.0004005432,-0.0017356873,-0.4333778,-0.01099273,9.797063,2,1683900747.630417
-0.04402534,-0.0008795968,0.9815694,0.0017356873,-0.0004005432,-0.0017356873,-0.4333778,-0.01099273,9.797063,2,1683900747.6407974
-0.04402534,-0.0008795968,0.9815694,0.0017356873,-0.0004005432,-0.0017356873,-0.43346316,-0.0106647005,9.79706,2,1683900747.645933
-0.04402534,-0.0008795968,0.9815694,0.0017356873,-0.0004005432,0.0004005432,-0.43346316,-0.0106647005,9.79706,2,1683900747.651039
-0.04402534,-0.0008795968,0.9815694,0.0017356873,-0.0004005432,0.0004005432,-0.43356442,-0.010772027,9.797055,2,1683900747.6613
-0.04402534,-0.0008795968,0.9815694,-0.0004005432,-0.0014686584,0.0004005432,-0.43356442,-0.010772027,9.797055,2,1683900747.6663938
-0.042569455,-0.0008795968,0.98352575,-0.0004005432,-0.0014686584,0.0004005432,-0.43356442,-0.010772027,9.797055,2,1683900747.6767547
-0.042569455,-0.0008795968,0.98352575,-0.0004005432,-0.0014686584,0.0004005432,-0.43373257,-0.010612865,9.797048,2,1683900747.7434347
-0.042569455,-0.0008795968,0.98352575,-0.0004005432,0.000667572,0.0004005432,-0.43373257,-0.010612865,9.797048,2,1683900747.748567
-0.04378269,-0.0011222442,0.9837684,-0.0004005432,0.000667572,0.0004005432,-0.43373257,-0.010612865,9.797048,2,1683900747.7588372
-0.04378269,-0.0011222442,0.9837684,0.000667572,0.000667572,0.0004005432,-0.43373257,-0.010612865,9.797048,2,1683900747.7690794
-0.04378269,-0.0011222442,0.9837684,0.000667572,0.000667572,0.0004005432,-0.43346566,-0.010411474,9.79706,2,1683900747.7793634
-0.041098405,-0.002335481,0.98254,0.000667572,0.000667572,0.0004005432,-0.43346566,-0.010411474,9.79706,2,1683900747.7844756
-0.041098405,-0.002335481,0.98254,0.0014686584,0.000667572,-0.000667572,-0.43346566,-0.010411474,9.79706,2,1683900747.8051093
-0.04305475,-0.003078589,0.980341,0.0014686584,0.000667572,-0.000667572,-0.43346566,-0.010411474,9.79706,2,1683900747.836024
-0.04305475,-0.003078589,0.980341,0.0004005432,-0.0014686584,0.0014686584,-0.43346566,-0.010411474,9.79706,2,1683900747.8927243
-0.04305475,-0.003078589,0.980341,0.0004005432,0.000667572,0.0004005432,-0.43346566,-0.010411474,9.79706,2,1683900747.9082117
-0.045739036,0.0010767478,0.98254,0.0004005432,0.000667572,0.0004005432,-0.43346566,-0.010411474,9.79706,2,1683900747.9288578
-0.045739036,0.0010767478,0.98254,0.0004005432,0.000667572,0.0004005432,-0.43297893,-0.009425954,9.797083,2,1683900747.934011
-0.0445258,-0.002820776,0.98181206,0.0004005432,0.000667572,0.0004005432,-0.43297893,-0.009425954,9.797083,2,1683900747.9442954
-0.0445258,-0.002820776,0.98181206,-0.000667572,-0.0004005432,-0.000667572,-0.43297893,-0.009425954,9.797083,2,1683900747.9598002
-0.0445258,-0.002820776,0.98181206,-0.000667572,-0.0004005432,-0.000667572,-0.43280876,-0.009872163,9.797091,2,1683900747.9649518
-0.04378269,-0.000394302,0.9815694,-0.000667572,-0.0004005432,-0.000667572,-0.43280876,-0.009872163,9.797091,2,1683900747.985472
-0.04378269,-0.000394302,0.9815694,-0.000667572,-0.0004005432,-0.000667572,-0.4328227,-0.009850727,9.797089,2,1683900747.9906263
-0.04378269,-0.000394302,0.9815694,-0.000667572,-0.0004005432,0.0004005432,-0.4328227,-0.009850727,9.797089,2,1683900748.0060098
-0.0445258,-0.0020928339,0.980341,-0.000667572,-0.0004005432,0.0004005432,-0.4328227,-0.009850727,9.797089,2,1683900748.0316653
-0.0445258,-0.0020928339,0.980341,-0.000667572,-0.0004005432,-0.0017356873,-0.4328227,-0.009850727,9.797089,2,1683900748.0368497
-0.0445258,-0.0020928339,0.980341,-0.000667572,-0.0004005432,-0.0017356873,-0.4327741,-0.009873625,9.7970915,2,1683900748.042013
-0.0445258,-0.0020928339,0.980341,-0.000667572,-0.0004005432,-0.000667572,-0.4327741,-0.009873625,9.7970915,2,1683900748.0677352
-0.045739036,0.00010615824,0.98449636,-0.000667572,-0.0004005432,-0.000667572,-0.4327741,-0.009873625,9.7970915,2,1683900748.0729122
-0.045739036,0.00010615824,0.98449636,-0.000667572,-0.0004005432,-0.000667572,-0.4328331,-0.009712758,9.797089,2,1683900748.0780647
-0.045739036,0.00010615824,0.98449636,-0.000667572,-0.0004005432,-0.000667572,-0.43295655,-0.009768415,9.797084,2,1683900748.0934868
-0.042569455,-0.0025781286,0.98254,-0.000667572,-0.0004005432,-0.000667572,-0.43295655,-0.009768415,9.797084,2,1683900748.10371
-0.04378269,-0.0020928339,0.980341,-0.000667572,-0.0004005432,-0.000667572,-0.43295655,-0.009768415,9.797084,2,1683900748.1191092
-0.04378269,-0.0020928339,0.980341,-0.000667572,-0.0004005432,-0.000667572,-0.43312168,-0.01007526,9.797075,2,1683900748.1293647
-0.04378269,-0.0020928339,0.980341,0.0004005432,-0.0004005432,0.0004005432,-0.43312168,-0.01007526,9.797075,2,1683900748.160094
-0.04378269,-0.0020928339,0.980341,0.0004005432,-0.0004005432,0.0004005432,-0.43325168,-0.010040899,9.7970705,2,1683900748.1652274
-0.04525374,-0.0008795968,0.98229736,0.0004005432,-0.0004005432,0.0004005432,-0.43325168,-0.010040899,9.7970705,2,1683900748.175442
-0.04378269,-0.000394302,0.97961307,0.0004005432,-0.0004005432,0.0004005432,-0.43325168,-0.010040899,9.7970705,2,1683900748.1856592
-0.04378269,-0.000394302,0.97961307,0.0004005432,-0.0004005432,0.0004005432,-0.43407243,-0.011177259,9.797033,2,1683900748.190795
-0.04378269,-0.000394302,0.97961307,-0.000667572,-0.0004005432,0.0014686584,-0.43407243,-0.011177259,9.797033,2,1683900748.20612
-0.04525374,-0.000394302,0.98181206,-0.000667572,-0.0004005432,0.0014686584,-0.43407243,-0.011177259,9.797033,2,1683900748.2163253
-0.04525374,-0.000394302,0.98181206,0.0014686584,-0.0004005432,-0.000667572,-0.43407243,-0.011177259,9.797033,2,1683900748.2419744
-0.04525374,-0.000394302,0.98181206,0.0014686584,-0.0004005432,-0.000667572,-0.4342143,-0.011233223,9.797026,2,1683900748.2470634
-0.04525374,-0.000394302,0.98181206,0.0004005432,-0.0004005432,-0.000667572,-0.4342143,-0.011233223,9.797026,2,1683900748.2624414
-0.04525374,-0.000394302,0.98181206,0.0004005432,-0.0004005432,-0.000667572,-0.43425784,-0.010867053,9.797025,2,1683900748.277838
-0.04428315,0.0030330925,0.98132676,0.0004005432,-0.0004005432,-0.000667572,-0.43425784,-0.010867053,9.797025,2,1683900748.2829366
-0.04428315,0.0030330925,0.98132676,0.0004005432,-0.0004005432,-0.000667572,-0.43438134,-0.011290443,9.797018,2,1683900748.29333
-0.0428121,-0.0011222442,0.9815694,0.0004005432,-0.0004005432,-0.000667572,-0.43438134,-0.011290443,9.797018,2,1683900748.324056
-0.0428121,-0.0011222442,0.9815694,-0.000667572,-0.0004005432,-0.000667572,-0.43438134,-0.011290443,9.797018,2,1683900748.380439
-0.0428121,-0.0011222442,0.9815694,-0.000667572,-0.0004005432,-0.000667572,-0.43446282,-0.010592528,9.797015,2,1683900748.390726
-0.04402534,0.0022899848,0.9832831,-0.000667572,-0.0004005432,-0.000667572,-0.43446282,-0.010592528,9.797015,2,1683900748.395897
-0.04402534,0.0022899848,0.9832831,0.0014686584,0.000667572,0.0004005432,-0.43446282,-0.010592528,9.797015,2,1683900748.4010699
-0.04134105,-0.0025781286,0.9827826,0.0014686584,0.000667572,0.0004005432,-0.43446282,-0.010592528,9.797015,2,1683900748.4062407
-0.04134105,-0.0025781286,0.9827826,0.0014686584,0.000667572,0.0004005432,-0.43442294,-0.01072893,9.797017,2,1683900748.4217045
-0.04134105,-0.0025781286,0.9827826,-0.000667572,-0.0014686584,-0.000667572,-0.43442294,-0.01072893,9.797017,2,1683900748.4269416
-0.045011092,0.0015620426,0.98304045,-0.000667572,-0.0014686584,-0.000667572,-0.43442294,-0.01072893,9.797017,2,1683900748.4320698
-0.045011092,0.0015620426,0.98304045,-0.000667572,-0.0014686584,-0.000667572,-0.43446836,-0.010540213,9.797015,2,1683900748.4372168
-0.045011092,0.0015620426,0.98304045,-0.000667572,-0.0014686584,-0.000667572,-0.43430918,-0.009713032,9.797024,2,1683900748.4474623
-0.042569455,-0.0062481705,0.98181206,-0.000667572,-0.0014686584,-0.000667572,-0.43430918,-0.009713032,9.797024,2,1683900748.4577153
-0.042569455,-0.0062481705,0.98181206,-0.000667572,-0.0004005432,-0.000667572,-0.43430918,-0.009713032,9.797024,2,1683900748.4680262
-0.042084157,-0.0033212362,0.98181206,-0.000667572,-0.0004005432,-0.000667572,-0.43430918,-0.009713032,9.797024,2,1683900748.493622
-0.042084157,-0.0033212362,0.98181206,-0.000667572,-0.0004005432,-0.000667572,-0.43410987,-0.01006946,9.797031,2,1683900748.498757
-0.042084157,-0.0033212362,0.98181206,0.0004005432,-0.0004005432,-0.000667572,-0.43410987,-0.01006946,9.797031,2,1683900748.5039058
-0.042084157,-0.0033212362,0.98181206,-0.000667572,-0.0014686584,0.0004005432,-0.43410987,-0.01006946,9.797031,2,1683900748.524469
-0.04378269,-0.00013648917,0.9820547,-0.000667572,-0.0014686584,0.0004005432,-0.43410987,-0.01006946,9.797031,2,1683900748.539891
-0.04378269,-0.00013648917,0.9820547,-0.000667572,-0.0014686584,0.0004005432,-0.4339071,-0.010264721,9.797041,2,1683900748.5450134
-0.04428315,-0.000394302,0.98304045,-0.000667572,-0.0014686584,0.0004005432,-0.4339071,-0.010264721,9.797041,2,1683900748.5501654
-0.04428315,-0.000394302,0.98304045,-0.000667572,-0.0014686584,0.0004005432,-0.434066,-0.0102065075,9.797034,2,1683900748.5707827
-0.04428315,-0.000394302,0.98304045,0.0004005432,-0.0004005432,0.0004005432,-0.434066,-0.0102065075,9.797034,2,1683900748.5810254
-0.04428315,-0.000394302,0.98304045,0.0004005432,-0.0004005432,0.0014686584,-0.434066,-0.0102065075,9.797034,2,1683900748.6066177
-0.043540042,0.0022899848,0.9837684,0.0004005432,-0.0004005432,0.0014686584,-0.434066,-0.0102065075,9.797034,2,1683900748.6117728
-0.043540042,0.0022899848,0.9837684,0.0004005432,-0.0004005432,0.0014686584,-0.43425035,-0.009787159,9.797026,2,1683900748.6169093
-0.043540042,0.0022899848,0.9837684,-0.0017356873,-0.0014686584,0.0004005432,-0.43425035,-0.009787159,9.797026,2,1683900748.6271665
-0.043540042,0.0022899848,0.9837684,-0.0017356873,-0.0014686584,0.0004005432,-0.43418524,-0.009818647,9.797028,2,1683900748.6374323
-0.043540042,-0.000394302,0.980341,-0.0017356873,-0.0014686584,0.0004005432,-0.43418524,-0.009818647,9.797028,2,1683900748.6529076
-0.043540042,-0.000394302,0.980341,-0.0017356873,-0.0014686584,0.0004005432,-0.43381217,-0.009767927,9.797046,2,1683900748.658025
-0.04378269,-0.000394302,0.9815694,-0.0017356873,-0.0014686584,0.0004005432,-0.43381217,-0.009767927,9.797046,2,1683900748.6632042
-0.04378269,-0.000394302,0.9815694,-0.000667572,-0.0014686584,0.0004005432,-0.43381217,-0.009767927,9.797046,2,1683900748.6786938
-0.04378269,-0.000394302,0.9815694,0.0004005432,-0.0014686584,0.0004005432,-0.43381217,-0.009767927,9.797046,2,1683900748.6941254
-0.042084157,0.0022899848,0.9864527,-0.000667572,-0.0014686584,0.0004005432,-0.43389177,-0.0095548965,9.797043,2,1683900748.7045643
-0.042084157,0.0022899848,0.9864527,-0.000667572,-0.0014686584,0.0004005432,-0.4336832,-0.009393877,9.797051,2,1683900748.7096825
-0.042084157,0.0022899848,0.9864527,-0.000667572,-0.0014686584,-0.000667572,-0.4336832,-0.009393877,9.797051,2,1683900748.7199428
-0.043297395,0.00010615824,0.9837684,-0.000667572,-0.0014686584,-0.000667572,-0.4336832,-0.009393877,9.797051,2,1683900748.730224
-0.043297395,0.00010615824,0.9837684,-0.000667572,-0.0014686584,-0.000667572,-0.43362594,-0.009363181,9.797054,2,1683900748.745561
-0.043297395,0.00010615824,0.9837684,-0.000667572,-0.0014686584,0.0004005432,-0.43362594,-0.009363181,9.797054,2,1683900748.7609725
-0.043540042,-0.001607539,0.9793704,-0.000667572,-0.0014686584,0.0004005432,-0.43362594,-0.009363181,9.797054,2,1683900748.7661102
-0.043540042,-0.001607539,0.9793704,-0.000667572,-0.0014686584,0.0004005432,-0.43356994,-0.0094476435,9.797056,2,1683900748.7865496
-0.04305475,0.0008341004,0.98304045,-0.000667572,-0.0014686584,0.0004005432,-0.43356994,-0.0094476435,9.797056,2,1683900748.8070328
-0.04305475,0.0008341004,0.98304045,0.0004005432,0.000667572,0.0004005432,-0.43356994,-0.0094476435,9.797056,2,1683900748.8172672
-0.04305475,0.0008341004,0.98304045,0.0004005432,0.000667572,0.0004005432,-0.43358484,-0.009052341,9.797056,2,1683900748.8223922
-0.04305475,0.0008341004,0.98304045,0.0004005432,-0.0014686584,0.0004005432,-0.43358484,-0.009052341,9.797056,2,1683900748.8275316
-0.04305475,0.0008341004,0.98304045,0.0004005432,-0.0014686584,0.0004005432,-0.43371335,-0.009127836,9.79705,2,1683900748.8326283
-0.045981683,-0.0020928339,0.9842537,0.0004005432,-0.0014686584,0.0004005432,-0.43371335,-0.009127836,9.79705,2,1683900748.842892
-0.045981683,-0.0020928339,0.9842537,0.0004005432,-0.0004005432,0.0004005432,-0.43371335,-0.009127836,9.79705,2,1683900748.8684998
-0.04305475,-0.00063694944,0.9820547,0.0004005432,-0.0004005432,0.0004005432,-0.43371335,-0.009127836,9.79705,2,1683900748.8787603
-0.04305475,-0.00063694944,0.9820547,0.0004005432,-0.0004005432,0.0004005432,-0.43357405,-0.009092596,9.797056,2,1683900748.8890197
-0.04305475,-0.00063694944,0.9820547,0.0004005432,-0.0004005432,0.0004005432,-0.43361133,-0.0092426045,9.797055,2,1683900748.9043741
-0.04305475,-0.00063694944,0.9820547,-0.000667572,-0.0014686584,-0.000667572,-0.43361133,-0.0092426045,9.797055,2,1683900748.9095101
-0.04525374,0.0015620426,0.98304045,-0.000667572,-0.0014686584,-0.000667572,-0.43361133,-0.0092426045,9.797055,2,1683900748.919772
-0.04525374,0.0015620426,0.98304045,0.0004005432,-0.0004005432,-0.000667572,-0.43361133,-0.0092426045,9.797055,2,1683900748.9351523
-0.042569455,0.00010615824,0.98254,0.0004005432,-0.0004005432,-0.000667572,-0.43361133,-0.0092426045,9.797055,2,1683900748.9454167
-0.042569455,0.00010615824,0.98254,0.0004005432,-0.0004005432,-0.000667572,-0.43351352,-0.00913638,9.797059,2,1683900748.9556396
-0.042569455,0.00010615824,0.98254,0.0004005432,-0.0004005432,-0.000667572,-0.43319392,-0.010599057,9.797071,2,1683900748.9658644
-0.046466976,-0.0025781286,0.9788851,0.0004005432,-0.0004005432,-0.000667572,-0.43319392,-0.010599057,9.797071,2,1683900748.9863486
-0.046466976,-0.0025781286,0.9788851,0.0004005432,-0.0004005432,0.0004005432,-0.43319392,-0.010599057,9.797071,2,1683900748.9916043
-0.043297395,-0.00063694944,0.9793704,0.0004005432,-0.0004005432,0.0004005432,-0.43319392,-0.010599057,9.797071,2,1683900749.0071597
-0.043297395,-0.00063694944,0.9793704,0.0004005432,-0.0004005432,0.0004005432,-0.43332055,-0.010510239,9.797067,2,1683900749.0279455
-0.043297395,-0.00063694944,0.9793704,-0.000667572,-0.0004005432,-0.000667572,-0.43332055,-0.010510239,9.797067,2,1683900749.0382402
-0.04184151,-0.005019768,0.9810841,-0.000667572,-0.0004005432,-0.000667572,-0.43332055,-0.010510239,9.797067,2,1683900749.0434349
-0.04402534,-0.0011222442,0.98229736,-0.000667572,-0.0004005432,-0.000667572,-0.43332055,-0.010510239,9.797067,2,1683900749.0537884
-0.04402534,-0.0011222442,0.98229736,0.0014686584,0.000667572,0.0004005432,-0.43332055,-0.010510239,9.797067,2,1683900749.058974
-0.04402534,-0.0011222442,0.98229736,0.0014686584,0.000667572,0.0004005432,-0.43351614,-0.0105756335,9.797058,2,1683900749.0744648
-0.040855754,-0.001607539,0.98473895,0.0014686584,0.000667572,0.0004005432,-0.43351614,-0.0105756335,9.797058,2,1683900749.0847204
-0.040855754,-0.001607539,0.98473895,-0.000667572,0.000667572,-0.000667572,-0.43351614,-0.0105756335,9.797058,2,1683900749.0950034
-0.040855754,-0.001607539,0.98473895,-0.000667572,0.000667572,-0.000667572,-0.43332136,-0.010651992,9.797067,2,1683900749.1052074
-0.042569455,-0.0038065312,0.98449636,-0.000667572,0.000667572,-0.000667572,-0.43332136,-0.010651992,9.797067,2,1683900749.1204665
-0.042569455,-0.0038065312,0.98449636,0.0014686584,-0.0004005432,0.0004005432,-0.43332136,-0.010651992,9.797067,2,1683900749.1408274
-0.042569455,-0.0038065312,0.98449636,0.0014686584,-0.0004005432,0.0004005432,-0.43316475,-0.010918411,9.797073,2,1683900749.1459563
-0.042569455,-0.0038065312,0.98449636,0.0014686584,-0.0004005432,0.0014686584,-0.43316475,-0.010918411,9.797073,2,1683900749.1612732
-0.042569455,-0.0038065312,0.98449636,0.0014686584,-0.0004005432,0.0014686584,-0.4330105,-0.010825683,9.79708,2,1683900749.176554
-0.04549639,-0.0025781286,0.98254,0.0014686584,-0.0004005432,0.0014686584,-0.4330105,-0.010825683,9.79708,2,1683900749.1868172
-0.043297395,-0.000394302,0.98254,0.0014686584,-0.0004005432,0.0014686584,-0.4330105,-0.010825683,9.79708,2,1683900749.1919436
-0.043297395,-0.000394302,0.98254,-0.000667572,-0.0004005432,-0.0017356873,-0.4330105,-0.010825683,9.79708,2,1683900749.1970613
-0.045011092,0.00034880562,0.98132676,-0.000667572,-0.0004005432,-0.0017356873,-0.4330105,-0.010825683,9.79708,2,1683900749.2329757
-0.045011092,0.00034880562,0.98132676,-0.000667572,-0.0004005432,-0.0017356873,-0.43273434,-0.011102327,9.797092,2,1683900749.24835
-0.045011092,0.00034880562,0.98132676,0.0004005432,-0.0014686584,0.0004005432,-0.43273434,-0.011102327,9.797092,2,1683900749.2534745
-0.04305475,-0.0033212362,0.9820547,0.0004005432,-0.0014686584,0.0004005432,-0.43273434,-0.011102327,9.797092,2,1683900749.2689164
-0.04305475,-0.0033212362,0.9820547,0.0004005432,-0.0014686584,0.0004005432,-0.4326276,-0.010991805,9.797096,2,1683900749.2843897
-0.04305475,-0.0033212362,0.9820547,-0.000667572,-0.0014686584,-0.000667572,-0.4326276,-0.010991805,9.797096,2,1683900749.2895496
-0.044768445,-0.000394302,0.9820547,-0.000667572,-0.0014686584,-0.000667572,-0.4326276,-0.010991805,9.797096,2,1683900749.2946885
-0.044768445,-0.000394302,0.9820547,-0.000667572,-0.0014686584,-0.000667572,-0.43262187,-0.01098656,9.797096,2,1683900749.3049493
-0.044768445,-0.000394302,0.9820547,-0.000667572,-0.0004005432,-0.000667572,-0.43262187,-0.01098656,9.797096,2,1683900749.3203173
-0.044768445,-0.000394302,0.9820547,0.0004005432,-0.0014686584,-0.000667572,-0.43262187,-0.01098656,9.797096,2,1683900749.3459353
-0.0445258,-0.0035638837,0.9815694,0.0004005432,-0.0014686584,-0.000667572,-0.43262187,-0.01098656,9.797096,2,1683900749.3510652
-0.0445258,-0.0035638837,0.9815694,0.0004005432,-0.0014686584,-0.000667572,-0.43239647,-0.010929533,9.797107,2,1683900749.3561938
-0.0445258,-0.0035638837,0.9815694,0.0014686584,-0.0004005432,-0.000667572,-0.43239647,-0.010929533,9.797107,2,1683900749.3715417
-0.0428121,-0.000394302,0.9805988,0.0014686584,-0.0004005432,-0.000667572,-0.43239647,-0.010929533,9.797107,2,1683900749.3869488
-0.0428121,-0.000394302,0.9805988,0.0014686584,-0.0004005432,-0.000667572,-0.4323363,-0.010798396,9.79711,2,1683900749.3972914
-0.0428121,-0.000394302,0.9805988,0.0014686584,-0.0004005432,-0.000667572,-0.43243247,-0.01108034,9.797105,2,1683900749.412774
-0.045739036,-0.0025781286,0.98401105,0.0014686584,-0.0004005432,-0.000667572,-0.43243247,-0.01108034,9.797105,2,1683900749.4231358
-0.045739036,-0.0025781286,0.98401105,0.0004005432,0.000667572,0.0004005432,-0.43243247,-0.01108034,9.797105,2,1683900749.4282885
-0.0428121,-0.002335481,0.9837684,0.0004005432,0.000667572,0.0004005432,-0.43243247,-0.01108034,9.797105,2,1683900749.438563
-0.0428121,-0.002335481,0.9837684,0.0004005432,0.000667572,0.0004005432,-0.43258572,-0.011112562,9.797098,2,1683900749.464323
-0.0428121,-0.002335481,0.9837684,0.0004005432,-0.0004005432,-0.0017356873,-0.43258572,-0.011112562,9.797098,2,1683900749.4694388
-0.0428121,-0.002335481,0.9837684,0.0004005432,-0.0004005432,-0.0017356873,-0.4328072,-0.011049155,9.797089,2,1683900749.4900172
-0.0428121,-0.002335481,0.9837684,-0.000667572,-0.0004005432,0.0004005432,-0.4328072,-0.011049155,9.797089,2,1683900749.500355
-0.0428121,-0.002335481,0.9837684,0.0004005432,0.0017356873,-0.000667572,-0.4328072,-0.011049155,9.797089,2,1683900749.5054853
-0.045011092,0.0010767478,0.9827826,0.0004005432,0.0017356873,-0.000667572,-0.4328072,-0.011049155,9.797089,2,1683900749.5157604
-0.045011092,0.0010767478,0.9827826,0.0004005432,0.0017356873,-0.000667572,-0.4324704,-0.011885825,9.797103,2,1683900749.520858
-0.04305475,-0.0025781286,0.98132676,0.0004005432,0.0017356873,-0.000667572,-0.4324704,-0.011885825,9.797103,2,1683900749.5621445
-0.04305475,-0.0025781286,0.98132676,0.0004005432,0.000667572,0.0004005432,-0.4324704,-0.011885825,9.797103,2,1683900749.567274
-0.04305475,-0.0025781286,0.98132676,0.0004005432,0.000667572,0.0004005432,-0.43239596,-0.012275781,9.797106,2,1683900749.5724542
-0.04305475,-0.0025781286,0.98132676,-0.000667572,0.000667572,0.0004005432,-0.43239596,-0.012275781,9.797106,2,1683900749.5983403
-0.04549639,0.0049894373,0.98132676,-0.000667572,0.000667572,0.0004005432,-0.43239596,-0.012275781,9.797106,2,1683900749.6138124
-0.04428315,0.0013193953,0.9815694,-0.000667572,0.000667572,0.0004005432,-0.43239596,-0.012275781,9.797106,2,1683900749.6446826
-0.04428315,0.0013193953,0.9815694,0.0004005432,-0.0004005432,0.0004005432,-0.43239596,-0.012275781,9.797106,2,1683900749.649853
-0.04428315,0.0013193953,0.9815694,0.0004005432,-0.0004005432,0.0004005432,-0.4332137,-0.011178961,9.7970705,2,1683900749.6652653
-0.04428315,0.00034880562,0.9827826,0.0004005432,-0.0004005432,0.0004005432,-0.4332137,-0.011178961,9.7970705,2,1683900749.6857395
-0.04428315,0.00034880562,0.9827826,0.0004005432,-0.0004005432,0.0004005432,-0.4332603,-0.011034157,9.797069,2,1683900749.6959205
-0.04428315,0.00034880562,0.9827826,0.0004005432,-0.0004005432,0.0004005432,-0.433434,-0.011049147,9.797061,2,1683900749.7162943
-0.04378269,-0.0011222442,0.98181206,0.0004005432,-0.0004005432,0.0004005432,-0.433434,-0.011049147,9.797061,2,1683900749.726533
-0.044768445,-0.00013648917,0.980341,0.0004005432,-0.0004005432,0.0004005432,-0.433434,-0.011049147,9.797061,2,1683900749.7470307
-0.044768445,-0.00013648917,0.980341,0.0004005432,-0.0004005432,0.0004005432,-0.4336273,-0.011283219,9.797052,2,1683900749.7624488
-0.044768445,-0.00013648917,0.980341,0.0004005432,0.0017356873,-0.000667572,-0.4336273,-0.011283219,9.797052,2,1683900749.7676
-0.04305475,-0.001607539,0.98304045,0.0004005432,0.0017356873,-0.000667572,-0.4336273,-0.011283219,9.797052,2,1683900749.8035047
-0.04305475,-0.001607539,0.98304045,0.0014686584,0.000667572,-0.000667572,-0.4336273,-0.011283219,9.797052,2,1683900749.8086498
-0.04305475,-0.001607539,0.98304045,0.0014686584,0.000667572,-0.000667572,-0.43332648,-0.011058587,9.797066,2,1683900749.8138125
-0.04305475,-0.001607539,0.98304045,-0.0017356873,-0.0004005432,0.0004005432,-0.43332648,-0.011058587,9.797066,2,1683900749.8394408
-0.0428121,-0.00013648917,0.98473895,-0.0017356873,-0.0004005432,0.0004005432,-0.43332648,-0.011058587,9.797066,2,1683900749.8496227
-0.0428121,-0.00013648917,0.98473895,-0.0017356873,-0.0004005432,0.0004005432,-0.43333262,-0.011050175,9.797065,2,1683900749.8547156
-0.0428121,-0.00013648917,0.98473895,-0.0017356873,-0.0004005432,0.0004005432,-0.43336418,-0.011206152,9.797064,2,1683900749.87508
-0.04402534,-0.0025781286,0.9810841,-0.0017356873,-0.0004005432,0.0004005432,-0.43336418,-0.011206152,9.797064,2,1683900749.880172
-0.04402534,-0.0025781286,0.9810841,-0.000667572,-0.0004005432,-0.0017356873,-0.43336418,-0.011206152,9.797064,2,1683900749.9157522
-0.04402534,-0.0025781286,0.9810841,-0.000667572,-0.0004005432,-0.0017356873,-0.43372226,-0.011300289,9.797048,2,1683900749.941209
-0.04402534,-0.0025781286,0.9810841,-0.000667572,-0.0014686584,-0.0017356873,-0.43372226,-0.011300289,9.797048,2,1683900749.956492
-0.041598864,-0.001607539,0.97961307,-0.000667572,-0.0014686584,-0.0017356873,-0.43372226,-0.011300289,9.797048,2,1683900749.9615924
-0.041598864,-0.001607539,0.97961307,-0.000667572,-0.0014686584,-0.0017356873,-0.43350217,-0.011373374,9.797057,2,1683900749.9819741
-0.041598864,-0.001607539,0.97961307,-0.000667572,-0.0014686584,-0.0017356873,-0.4336167,-0.011416934,9.797053,2,1683900750.0024745
-0.04525374,-0.00013648917,0.9793704,-0.000667572,-0.0014686584,-0.0017356873,-0.4336167,-0.011416934,9.797053,2,1683900750.0076118
-0.04525374,-0.00013648917,0.9793704,0.0004005432,0.0017356873,0.0004005432,-0.4336167,-0.011416934,9.797053,2,1683900750.0128672
-0.04525374,-0.00013648917,0.9793704,-0.000667572,-0.0004005432,-0.000667572,-0.43362212,-0.011562763,9.797052,2,1683900750.0284903
-0.043297395,-0.0038065312,0.98522425,-0.000667572,-0.0004005432,-0.000667572,-0.43362212,-0.011562763,9.797052,2,1683900750.0388167
-0.040855754,-0.0013648917,0.98229736,-0.000667572,-0.0004005432,-0.000667572,-0.43362212,-0.011562763,9.797052,2,1683900750.064579
-0.04428315,-0.0020928339,0.97815716,-0.000667572,-0.0004005432,-0.000667572,-0.43362212,-0.011562763,9.797052,2,1683900750.0698295
-0.04428315,-0.0020928339,0.97815716,-0.0017356873,-0.0004005432,0.0004005432,-0.43362212,-0.011562763,9.797052,2,1683900750.0749826
-0.04428315,-0.0020928339,0.97815716,-0.0017356873,-0.0004005432,0.0004005432,-0.43186313,-0.010751713,9.797131,2,1683900750.0801294
-0.04428315,-0.0020928339,0.97815716,-0.000667572,-0.0004005432,-0.000667572,-0.4321887,-0.0109413555,9.797116,2,1683900750.0955687
-0.04672479,-0.001607539,0.9827826,0.0004005432,-0.0004005432,0.0004005432,-0.43236044,-0.010978416,9.797109,2,1683900750.106076
-0.042084157,-0.0011222442,0.98254,0.0004005432,-0.0004005432,0.0004005432,-0.43236044,-0.010978416,9.797109,2,1683900750.1163783
-0.042084157,-0.0011222442,0.98254,0.0004005432,-0.0004005432,0.0004005432,-0.43184045,-0.010797237,9.797132,2,1683900750.1214812
-0.042084157,-0.0011222442,0.98254,0.0004005432,0.0017356873,0.0004005432,-0.43184045,-0.010797237,9.797132,2,1683900750.1266174
-0.042084157,-0.0011222442,0.98254,0.0004005432,0.0017356873,0.0004005432,-0.43149254,-0.010619494,9.797147,2,1683900750.1419828
-0.042084157,-0.0011222442,0.98254,0.0004005432,-0.0004005432,0.0004005432,-0.43149254,-0.010619494,9.797147,2,1683900750.1522617
-0.04184151,-0.0020928339,0.98132676,0.0004005432,-0.0004005432,0.0004005432,-0.43149254,-0.010619494,9.797147,2,1683900750.1574001
-0.04184151,-0.0020928339,0.98132676,0.0004005432,-0.0004005432,0.0004005432,-0.4313822,-0.010646026,9.797152,2,1683900750.1830423
-0.04184151,-0.0020928339,0.98132676,-0.000667572,-0.0004005432,0.0004005432,-0.4313822,-0.010646026,9.797152,2,1683900750.188175
-0.04402534,-0.0013648917,0.980341,-0.000667572,-0.0004005432,0.0004005432,-0.4313822,-0.010646026,9.797152,2,1683900750.19331
-0.04525374,0.00010615824,0.98401105,-0.000667572,-0.0004005432,0.0004005432,-0.4313822,-0.010646026,9.797152,2,1683900750.1984644
-0.04525374,0.00010615824,0.98401105,-0.000667572,-0.0004005432,0.0004005432,-0.4314801,-0.010573838,9.797147,2,1683900750.2036443
-0.04525374,0.00010615824,0.98401105,-0.000667572,0.000667572,-0.000667572,-0.4314801,-0.010573838,9.797147,2,1683900750.2088153
-0.04525374,0.00010615824,0.98401105,-0.000667572,0.000667572,-0.000667572,-0.43089846,-0.011154389,9.797173,2,1683900750.2190778
-0.04525374,0.00010615824,0.98401105,-0.000667572,-0.0004005432,-0.000667572,-0.43089846,-0.011154389,9.797173,2,1683900750.2345161
-0.040613107,-0.003078589,0.98084146,-0.000667572,-0.0004005432,-0.000667572,-0.43089846,-0.011154389,9.797173,2,1683900750.2448807
-0.040613107,-0.003078589,0.98084146,0.0014686584,0.000667572,0.0004005432,-0.43089846,-0.011154389,9.797173,2,1683900750.260385
-0.04428315,-0.001607539,0.9810841,0.0014686584,0.000667572,0.0004005432,-0.43089846,-0.011154389,9.797173,2,1683900750.2706764
-0.04428315,-0.001607539,0.9810841,0.0014686584,0.000667572,0.0004005432,-0.43066484,-0.011484708,9.797183,2,1683900750.2911956
-0.04428315,-0.001607539,0.9810841,0.0004005432,-0.0004005432,0.0004005432,-0.43066484,-0.011484708,9.797183,2,1683900750.2963376
-0.04402534,-0.002335481,0.98473895,0.0004005432,-0.0004005432,0.0004005432,-0.43066484,-0.011484708,9.797183,2,1683900750.3117516
-0.04402534,-0.002335481,0.98473895,0.0004005432,-0.0004005432,0.0004005432,-0.43087977,-0.011545963,9.7971735,2,1683900750.3220277
-0.04402534,-0.002335481,0.98473895,0.0004005432,-0.0004005432,-0.000667572,-0.43087977,-0.011545963,9.7971735,2,1683900750.3323174
-0.04525374,-0.0008795968,0.97864246,0.0004005432,-0.0004005432,-0.000667572,-0.43087977,-0.011545963,9.7971735,2,1683900750.347748
-0.04525374,-0.0008795968,0.97864246,0.0004005432,-0.0004005432,-0.000667572,-0.43118647,-0.011610243,9.797159,2,1683900750.3528895
-0.04525374,-0.0008795968,0.97864246,0.0004005432,0.0017356873,-0.0017356873,-0.43118647,-0.011610243,9.797159,2,1683900750.363206
-0.04525374,-0.0008795968,0.97864246,0.0004005432,0.0017356873,-0.0017356873,-0.4313158,-0.011600629,9.797153,2,1683900750.3786283
-0.04525374,-0.0008795968,0.97864246,0.0014686584,0.000667572,-0.000667572,-0.4313158,-0.011600629,9.797153,2,1683900750.3837645
-0.044768445,0.0020473374,0.98229736,0.0014686584,0.000667572,-0.000667572,-0.4313158,-0.011600629,9.797153,2,1683900750.3889077
-0.04184151,0.0008341004,0.9854669,0.0014686584,0.000667572,-0.000667572,-0.4313158,-0.011600629,9.797153,2,1683900750.4094903
-0.04184151,0.0008341004,0.9854669,0.0014686584,0.000667572,-0.000667572,-0.43147206,-0.011260873,9.797147,2,1683900750.4248645
-0.044768445,0.0042463294,0.98449636,0.0014686584,0.000667572,-0.000667572,-0.43147206,-0.011260873,9.797147,2,1683900750.4454818
-0.044768445,0.0042463294,0.98449636,-0.000667572,-0.0004005432,0.0004005432,-0.43147206,-0.011260873,9.797147,2,1683900750.4557643
-0.04428315,0.0020473374,0.98229736,-0.000667572,-0.0004005432,0.0004005432,-0.43147206,-0.011260873,9.797147,2,1683900750.4711268
-0.04428315,-0.0035638837,0.980341,-0.000667572,-0.0004005432,0.0004005432,-0.43147206,-0.011260873,9.797147,2,1683900750.4916675
-0.04428315,-0.0035638837,0.980341,-0.0028038025,-0.0004005432,-0.000667572,-0.43147206,-0.011260873,9.797147,2,1683900750.496809
-0.04428315,-0.0035638837,0.980341,-0.0028038025,-0.0004005432,-0.000667572,-0.43190554,-0.00933613,9.797131,2,1683900750.5070426
-0.04672479,-0.0052624154,0.9793704,-0.0028038025,-0.0004005432,-0.000667572,-0.43190554,-0.00933613,9.797131,2,1683900750.527544
-0.04672479,-0.0052624154,0.9793704,0.0004005432,0.000667572,0.0004005432,-0.43190554,-0.00933613,9.797131,2,1683900750.5429585
-0.04672479,-0.0052624154,0.9793704,0.0004005432,0.000667572,0.0004005432,-0.43209997,-0.010105989,9.797121,2,1683900750.5480964
-0.04378269,-0.005505063,0.98009837,0.0004005432,0.000667572,0.0004005432,-0.43209997,-0.010105989,9.797121,2,1683900750.5635047
-0.04378269,-0.005505063,0.98009837,0.0014686584,0.000667572,-0.000667572,-0.43209997,-0.010105989,9.797121,2,1683900750.57891
-0.04378269,-0.005505063,0.98009837,0.0014686584,0.000667572,-0.000667572,-0.43254814,-0.010737965,9.7971,2,1683900750.5841062
-0.04378269,-0.005505063,0.98009837,0.0025367737,0.0017356873,0.0004005432,-0.43254814,-0.010737965,9.7971,2,1683900750.5943644
-0.04378269,-0.005505063,0.98009837,0.0025367737,0.0017356873,0.0004005432,-0.43263105,-0.010878421,9.797097,2,1683900750.5994995
-0.043297395,-0.004291826,0.9805988,0.0025367737,0.0017356873,0.0004005432,-0.43263105,-0.010878421,9.797097,2,1683900750.614916
-0.040613107,0.004003682,0.9820547,0.0025367737,0.0017356873,0.0004005432,-0.43263105,-0.010878421,9.797097,2,1683900750.666267
-0.040613107,0.004003682,0.9820547,0.0025367737,0.0017356873,0.0004005432,-0.43247175,-0.009993212,9.797105,2,1683900750.676512
-0.040613107,0.004003682,0.9820547,0.0014686584,0.0017356873,-0.000667572,-0.43247175,-0.009993212,9.797105,2,1683900750.686784
-0.040613107,0.004003682,0.9820547,0.0025367737,0.0028038025,-0.000667572,-0.43247175,-0.009993212,9.797105,2,1683900750.7175546
-0.040613107,0.004003682,0.9820547,-0.000667572,-0.0025367737,-0.000667572,-0.43247175,-0.009993212,9.797105,2,1683900750.7534568
-0.040613107,0.004003682,0.9820547,-0.000667572,-0.0025367737,-0.000667572,-0.43313882,-0.010129263,9.797074,2,1683900750.7637234
-0.040613107,0.004003682,0.9820547,0.0014686584,0.000667572,0.0004005432,-0.43313882,-0.010129263,9.797074,2,1683900750.784269
-0.038914576,-0.001607539,0.98229736,0.0014686584,0.000667572,0.0004005432,-0.43313882,-0.010129263,9.797074,2,1683900750.7945344
-0.038914576,-0.001607539,0.98229736,0.0014686584,0.000667572,0.0004005432,-0.43251878,-0.010038472,9.797102,2,1683900750.799671
-0.038914576,-0.001607539,0.98229736,0.0014686584,-0.0004005432,-0.0017356873,-0.43251878,-0.010038472,9.797102,2,1683900750.820262
-0.04305475,-0.00063694944,0.9805988,0.0014686584,-0.0004005432,-0.0017356873,-0.43251878,-0.010038472,9.797102,2,1683900750.8253925
-0.04305475,-0.00063694944,0.9805988,0.0014686584,-0.0004005432,-0.0017356873,-0.43247768,-0.009936888,9.797104,2,1683900750.830533
-0.046466976,0.00180469,0.98181206,0.0014686584,-0.0004005432,-0.0017356873,-0.43247768,-0.009936888,9.797104,2,1683900750.8407972
-0.046466976,0.00180469,0.98181206,0.0014686584,-0.0004005432,-0.0017356873,-0.43270537,-0.009227594,9.797095,2,1683900750.8562
-0.046466976,0.00180469,0.98181206,0.0014686584,0.0017356873,-0.000667572,-0.43270537,-0.009227594,9.797095,2,1683900750.8613062
-0.046466976,0.00180469,0.98181206,0.0014686584,0.0017356873,-0.000667572,-0.4328316,-0.009090216,9.797091,2,1683900750.90234
-0.04184151,-0.00063694944,0.98473895,0.0014686584,0.0017356873,-0.000667572,-0.4328316,-0.009090216,9.797091,2,1683900750.912599
-0.04184151,-0.00063694944,0.98473895,0.0014686584,0.0017356873,-0.000667572,-0.4331421,-0.008836845,9.797075,2,1683900750.933119
-0.04184151,-0.00063694944,0.98473895,0.0004005432,0.0017356873,0.0004005432,-0.4331421,-0.008836845,9.797075,2,1683900750.9382558
-0.041598864,0.0022899848,0.9832831,0.0004005432,0.0017356873,0.0004005432,-0.4331421,-0.008836845,9.797075,2,1683900750.9536145
-0.041598864,0.0022899848,0.9832831,-0.0017356873,-0.0004005432,0.0004005432,-0.4331421,-0.008836845,9.797075,2,1683900750.963876
-0.041598864,0.0022899848,0.9832831,-0.0017356873,-0.0004005432,0.0004005432,-0.4332462,-0.008733927,9.797071,2,1683900750.9741397
-0.045739036,-0.0008795968,0.9832831,-0.0017356873,-0.0004005432,0.0004005432,-0.4332462,-0.008733927,9.797071,2,1683900750.979233
-0.045739036,-0.0008795968,0.9832831,-0.0017356873,-0.0004005432,0.0004005432,-0.4334638,-0.008767168,9.797062,2,1683900750.9946234
-0.045739036,-0.0008795968,0.9832831,-0.000667572,0.000667572,-0.0017356873,-0.4334638,-0.008767168,9.797062,2,1683900751.0100143
-0.045739036,-0.0008795968,0.9832831,-0.000667572,0.000667572,-0.0017356873,-0.4346472,-0.009337407,9.797009,2,1683900751.025405
-0.04037046,-0.00063694944,0.98304045,-0.000667572,0.000667572,-0.0017356873,-0.4346472,-0.009337407,9.797009,2,1683900751.0305364
-0.04037046,-0.00063694944,0.98304045,-0.000667572,0.000667572,-0.000667572,-0.4346472,-0.009337407,9.797009,2,1683900751.0356665
-0.041098405,-0.000394302,0.9798557,-0.000667572,0.000667572,-0.000667572,-0.4346472,-0.009337407,9.797009,2,1683900751.0766895
-0.041098405,-0.000394302,0.9798557,-0.000667572,0.000667572,-0.000667572,-0.43389717,-0.009235318,9.797042,2,1683900751.0972104
-0.0445258,-0.0033212362,0.98254,-0.000667572,0.000667572,-0.000667572,-0.43389717,-0.009235318,9.797042,2,1683900751.1227784
-0.0445258,-0.0033212362,0.98254,0.0014686584,0.000667572,-0.000667572,-0.4334927,-0.009624752,9.79706,2,1683900751.143284
-0.0445258,-0.0033212362,0.98254,0.0014686584,0.000667572,-0.000667572,-0.43316904,-0.0099726925,9.797073,2,1683900751.1484177
-0.04134105,-0.003078589,0.98229736,0.0014686584,0.000667572,-0.000667572,-0.43316904,-0.0099726925,9.797073,2,1683900751.1586819
-0.04134105,-0.003078589,0.98229736,0.0025367737,0.0017356873,0.0004005432,-0.43316904,-0.0099726925,9.797073,2,1683900751.1740718
-0.044768445,-0.00013648917,0.98449636,0.0025367737,0.0017356873,0.0004005432,-0.43316904,-0.0099726925,9.797073,2,1683900751.2202392
-0.044768445,-0.00013648917,0.98449636,-0.000667572,0.000667572,0.0004005432,-0.43316904,-0.0099726925,9.797073,2,1683900751.22537
-0.044768445,-0.00013648917,0.98449636,-0.000667572,0.000667572,0.0004005432,-0.43296131,-0.0094474405,9.797083,2,1683900751.2458951
-0.04305475,0.0044889767,0.98572475,-0.000667572,0.000667572,0.0004005432,-0.43296131,-0.0094474405,9.797083,2,1683900751.261262
-0.04305475,0.0044889767,0.98572475,-0.000667572,0.000667572,0.0004005432,-0.43274546,-0.0088047655,9.797093,2,1683900751.2817972
-0.04305475,0.0044889767,0.98572475,-0.000667572,0.000667572,0.0004005432,-0.43357724,-0.010145534,9.797056,2,1683900751.2920554
-0.04184151,-0.00063694944,0.98229736,-0.000667572,0.000667572,0.0004005432,-0.43357724,-0.010145534,9.797056,2,1683900751.3074389
-0.042084157,0.0010767478,0.9832831,-0.000667572,0.000667572,0.0004005432,-0.43357724,-0.010145534,9.797056,2,1683900751.3279448
-0.042084157,0.0010767478,0.9832831,-0.000667572,0.000667572,0.0004005432,-0.43355104,-0.010017758,9.797057,2,1683900751.3382113
-0.042084157,0.0010767478,0.9832831,0.0004005432,0.000667572,0.0004005432,-0.43355104,-0.010017758,9.797057,2,1683900751.3433018
-0.04622433,-0.0035638837,0.98473895,-0.000667572,0.000667572,0.0004005432,-0.43355104,-0.010017758,9.797057,2,1683900751.384337
-0.04622433,-0.0035638837,0.98473895,-0.000667572,0.000667572,0.0004005432,-0.43397507,-0.009944289,9.797038,2,1683900751.3945942
-0.04428315,-0.0033212362,0.9837684,-0.000667572,0.000667572,0.0004005432,-0.43397507,-0.009944289,9.797038,2,1683900751.4099984
-0.04428315,-0.0033212362,0.9837684,0.0014686584,0.000667572,-0.0017356873,-0.43397507,-0.009944289,9.797038,2,1683900751.4151351
-0.04428315,-0.0033212362,0.9837684,0.0014686584,0.000667572,-0.0017356873,-0.4343736,-0.010085204,9.79702,2,1683900751.4305189
-0.04428315,-0.0033212362,0.9837684,0.0014686584,0.000667572,-0.0017356873,-0.43437976,-0.010233478,9.79702,2,1683900751.4407642
-0.04428315,-0.0033212362,0.9837684,0.0004005432,-0.0004005432,0.0004005432,-0.43437976,-0.010233478,9.79702,2,1683900751.4458933
-0.04378269,-0.003078589,0.98009837,0.0004005432,-0.0004005432,0.0004005432,-0.43437976,-0.010233478,9.79702,2,1683900751.4510267
-0.045011092,-0.002335481,0.9788851,0.0004005432,-0.0004005432,0.0004005432,-0.43437976,-0.010233478,9.79702,2,1683900751.4663966
-0.045011092,-0.002335481,0.9788851,0.0014686584,0.000667572,0.0004005432,-0.43437976,-0.010233478,9.79702,2,1683900751.4715266
-0.045011092,-0.002335481,0.9788851,0.0014686584,0.000667572,0.0004005432,-0.43493563,-0.010329274,9.796996,2,1683900751.4817824
-0.045011092,-0.002335481,0.9788851,0.0014686584,0.000667572,0.0004005432,-0.43487972,-0.010015886,9.796999,2,1683900751.507357
-0.042326804,0.00034880562,0.9842537,0.0014686584,0.000667572,0.0004005432,-0.43487972,-0.010015886,9.796999,2,1683900751.5227048
-0.042326804,0.00034880562,0.9842537,-0.000667572,-0.0004005432,0.0004005432,-0.43487972,-0.010015886,9.796999,2,1683900751.532964
-0.0445258,0.0010767478,0.9827826,-0.000667572,-0.0004005432,0.0004005432,-0.43487972,-0.010015886,9.796999,2,1683900751.5380955
-0.0445258,0.0010767478,0.9827826,-0.000667572,0.000667572,-0.000667572,-0.43487972,-0.010015886,9.796999,2,1683900751.5585406
-0.0445258,0.0010767478,0.9827826,-0.000667572,0.000667572,-0.000667572,-0.43386304,-0.010497542,9.797042,2,1683900751.5688062
-0.04549639,-0.0013648917,0.9849816,-0.000667572,0.000667572,-0.000667572,-0.43386304,-0.010497542,9.797042,2,1683900751.5739388
-0.04549639,-0.0013648917,0.9849816,-0.000667572,0.000667572,-0.000667572,-0.43404883,-0.010554022,9.797033,2,1683900751.5995347
-0.042569455,-0.0013648917,0.9842537,-0.000667572,0.000667572,-0.000667572,-0.43404883,-0.010554022,9.797033,2,1683900751.6200166
-0.042569455,-0.0013648917,0.9842537,0.0004005432,0.000667572,-0.000667572,-0.43404883,-0.010554022,9.797033,2,1683900751.6251493
-0.042569455,-0.0013648917,0.9842537,0.0004005432,0.000667572,-0.000667572,-0.43394274,-0.010773429,9.797039,2,1683900751.6302767
-0.042569455,-0.0013648917,0.9842537,-0.000667572,-0.0004005432,0.0004005432,-0.43394274,-0.010773429,9.797039,2,1683900751.6507564
-0.042569455,-0.0013648917,0.9842537,-0.000667572,-0.0004005432,0.0004005432,-0.43388346,-0.010606619,9.797041,2,1683900751.6610224
-0.0428121,-0.00063694944,0.98254,-0.000667572,-0.0004005432,0.0004005432,-0.43388346,-0.010606619,9.797041,2,1683900751.6661549
-0.0428121,-0.00063694944,0.98254,0.0004005432,0.000667572,-0.000667572,-0.43388346,-0.010606619,9.797041,2,1683900751.6814933
-0.047210086,-0.004291826,0.98254,0.0004005432,0.000667572,-0.000667572,-0.43388346,-0.010606619,9.797041,2,1683900751.6866238
-0.047210086,-0.004291826,0.98254,0.0004005432,0.000667572,-0.000667572,-0.43421993,-0.010854039,9.797026,2,1683900751.7020068
-0.047210086,-0.004291826,0.98254,0.0004005432,0.000667572,-0.000667572,-0.43462136,-0.011346124,9.797008,2,1683900751.732752
-0.045981683,-0.0025781286,0.980341,0.0004005432,0.000667572,-0.000667572,-0.43462136,-0.011346124,9.797008,2,1683900751.7378857
-0.045981683,-0.0025781286,0.980341,-0.000667572,0.000667572,-0.000667572,-0.43462136,-0.011346124,9.797008,2,1683900751.743018
-0.04525374,0.00034880562,0.98229736,-0.000667572,0.000667572,-0.000667572,-0.43462136,-0.011346124,9.797008,2,1683900751.7686784
-0.04525374,0.00034880562,0.98229736,-0.000667572,0.000667572,0.0004005432,-0.43462136,-0.011346124,9.797008,2,1683900751.7789447
-0.04525374,0.00034880562,0.98229736,-0.000667572,0.000667572,0.0004005432,-0.43475607,-0.0115488805,9.797002,2,1683900751.7943318
-0.041598864,-0.0020928339,0.98132676,-0.000667572,0.000667572,0.0004005432,-0.43475607,-0.0115488805,9.797002,2,1683900751.8097029
-0.0428121,-0.005505063,0.9827826,-0.000667572,0.000667572,0.0004005432,-0.43475607,-0.0115488805,9.797002,2,1683900751.8353121
-0.0428121,-0.005505063,0.9827826,-0.000667572,0.000667572,0.0004005432,-0.4332989,-0.011446678,9.797067,2,1683900751.840444
-0.0428121,-0.005505063,0.9827826,0.0004005432,-0.0004005432,0.0004005432,-0.4332989,-0.011446678,9.797067,2,1683900751.8455763
-0.044768445,-0.0020928339,0.980341,0.0004005432,-0.0004005432,0.0004005432,-0.4332989,-0.011446678,9.797067,2,1683900751.8609536
-0.044768445,-0.0020928339,0.980341,0.0004005432,-0.0004005432,0.0004005432,-0.4334634,-0.011578663,9.797059,2,1683900751.871168
-0.044768445,-0.0020928339,0.980341,-0.0017356873,-0.0004005432,0.0014686584,-0.4334634,-0.011578663,9.797059,2,1683900751.8763018
-0.04378269,-0.0011222442,0.9842537,-0.0017356873,-0.0004005432,0.0014686584,-0.4334634,-0.011578663,9.797059,2,1683900751.8968236
-0.04378269,-0.0011222442,0.9842537,-0.0017356873,-0.0004005432,0.0014686584,-0.43346187,-0.011603819,9.79706,2,1683900751.9019547
-0.04378269,-0.0011222442,0.9842537,-0.000667572,-0.0004005432,0.0004005432,-0.43346187,-0.011603819,9.79706,2,1683900751.907093
-0.043297395,0.0022899848,0.9832831,-0.000667572,-0.0004005432,0.0004005432,-0.43346187,-0.011603819,9.79706,2,1683900751.9276104
-0.043297395,0.0022899848,0.9832831,-0.000667572,-0.0004005432,0.0004005432,-0.43340695,-0.011487093,9.797061,2,1683900751.9327402
-0.043297395,0.0022899848,0.9832831,-0.000667572,-0.0014686584,0.0004005432,-0.43340695,-0.011487093,9.797061,2,1683900751.9378664
-0.043297395,0.0022899848,0.9832831,-0.000667572,-0.0014686584,0.0004005432,-0.43313155,-0.01148952,9.797074,2,1683900751.9481246
-0.043297395,0.0022899848,0.9832831,-0.000667572,-0.0004005432,0.0004005432,-0.43313155,-0.01148952,9.797074,2,1683900751.97884
-0.0428121,0.00010615824,0.9793704,-0.000667572,-0.0004005432,0.0004005432,-0.43313155,-0.01148952,9.797074,2,1683900751.9839606
-0.0445258,0.0020473374,0.9815694,-0.000667572,-0.0004005432,0.0004005432,-0.43313155,-0.01148952,9.797074,2,1683900751.994215
-0.0445258,0.0020473374,0.9815694,-0.000667572,-0.0004005432,0.0004005432,-0.43325523,-0.01120016,9.797069,2,1683900752.0044396
-0.0445258,0.0020473374,0.9815694,0.0004005432,-0.0014686584,0.0004005432,-0.43325523,-0.01120016,9.797069,2,1683900752.0351696
-0.0445258,0.0020473374,0.9815694,0.0004005432,-0.0014686584,0.0004005432,-0.43322664,-0.010810086,9.7970705,2,1683900752.0402954
-0.04402534,-0.00063694944,0.9864527,0.0004005432,-0.0014686584,0.0004005432,-0.43322664,-0.010810086,9.7970705,2,1683900752.045429
-0.043297395,-0.0020928339,0.98181206,0.0004005432,-0.0014686584,0.0004005432,-0.43322664,-0.010810086,9.7970705,2,1683900752.0607872
-0.043297395,-0.0020928339,0.98181206,0.0004005432,-0.0004005432,0.0004005432,-0.43322664,-0.010810086,9.7970705,2,1683900752.0710738
-0.043297395,-0.0020928339,0.98181206,0.0004005432,-0.0004005432,0.0004005432,-0.43319568,-0.010871269,9.797071,2,1683900752.0762076
-0.043297395,-0.0020928339,0.98181206,0.0004005432,-0.0004005432,-0.000667572,-0.43319568,-0.010871269,9.797071,2,1683900752.0864325
-0.043297395,-0.0020928339,0.98181206,-0.000667572,0.000667572,0.0004005432,-0.43319568,-0.010871269,9.797071,2,1683900752.0967007
-0.0445258,-0.0008795968,0.98572475,-0.000667572,0.000667572,0.0004005432,-0.43319568,-0.010871269,9.797071,2,1683900752.1069717
-0.0445258,-0.0008795968,0.98572475,-0.000667572,0.000667572,0.0004005432,-0.4317276,-0.01110167,9.797136,2,1683900752.1121078
-0.0445258,-0.0008795968,0.98572475,-0.0017356873,-0.0014686584,-0.0017356873,-0.4317276,-0.01110167,9.797136,2,1683900752.1377153
-0.0445258,-0.0008795968,0.98572475,-0.0017356873,-0.0014686584,-0.0017356873,-0.43167472,-0.011130477,9.797138,2,1683900752.142846
-0.04549639,-0.003078589,0.98229736,-0.0017356873,-0.0014686584,-0.0017356873,-0.43167472,-0.011130477,9.797138,2,1683900752.1531126
-0.04549639,-0.003078589,0.98229736,-0.0017356873,-0.0014686584,-0.0017356873,-0.4315867,-0.011245209,9.797142,2,1683900752.1582441
-0.042569455,-0.002335481,0.9798557,-0.0017356873,-0.0014686584,-0.0017356873,-0.4315867,-0.011245209,9.797142,2,1683900752.1633356
-0.042569455,-0.002335481,0.9798557,-0.000667572,-0.0004005432,0.0004005432,-0.4315867,-0.011245209,9.797142,2,1683900752.1787343
-0.042569455,-0.002335481,0.9798557,-0.000667572,-0.0004005432,0.0004005432,-0.43184692,-0.011124364,9.797132,2,1683900752.1992252
-0.042569455,-0.002335481,0.9798557,-0.0017356873,-0.0014686584,-0.000667572,-0.43184692,-0.011124364,9.797132,2,1683900752.214618
-0.047210086,0.0013193953,0.9805988,-0.0017356873,-0.0014686584,-0.000667572,-0.43184692,-0.011124364,9.797132,2,1683900752.21975
-0.047210086,0.0013193953,0.9805988,-0.0017356873,-0.0014686584,-0.000667572,-0.43177968,-0.011720683,9.797133,2,1683900752.2351136
-0.042084157,0.0013193953,0.98473895,-0.0017356873,-0.0014686584,-0.000667572,-0.43177968,-0.011720683,9.797133,2,1683900752.2556257
-0.042084157,0.0013193953,0.98473895,-0.0017356873,0.000667572,0.0014686584,-0.43177968,-0.011720683,9.797133,2,1683900752.260749
-0.042084157,0.0013193953,0.98473895,-0.0017356873,0.000667572,0.0014686584,-0.43170998,-0.011573243,9.797136,2,1683900752.2914927
-0.043297395,0.0015620426,0.98181206,-0.0017356873,0.000667572,0.0014686584,-0.43170998,-0.011573243,9.797136,2,1683900752.2966237
-0.043297395,0.0015620426,0.98181206,-0.0028038025,-0.0014686584,0.0004005432,-0.43170998,-0.011573243,9.797136,2,1683900752.3068795
-0.0445258,0.00059145305,0.98132676,-0.0028038025,-0.0014686584,0.0004005432,-0.43170998,-0.011573243,9.797136,2,1683900752.312016
-0.0445258,0.00059145305,0.98132676,-0.0028038025,-0.0014686584,0.0004005432,-0.43169612,-0.011644317,9.797137,2,1683900752.332493
-0.0445258,0.00059145305,0.98132676,-0.000667572,-0.0004005432,0.0004005432,-0.43169612,-0.011644317,9.797137,2,1683900752.3478835
-0.0445258,0.00059145305,0.98132676,-0.000667572,-0.0004005432,0.0004005432,-0.4318543,-0.0114507405,9.79713,2,1683900752.3581448
-0.043297395,0.0008341004,0.98181206,-0.000667572,-0.0004005432,0.0004005432,-0.4318543,-0.0114507405,9.79713,2,1683900752.363236
-0.043297395,0.0008341004,0.98181206,0.0004005432,0.0017356873,-0.000667572,-0.4318543,-0.0114507405,9.79713,2,1683900752.3786063
-0.043297395,0.0008341004,0.98181206,0.0004005432,0.0017356873,-0.000667572,-0.43040252,-0.015645912,9.797188,2,1683900752.3939888
-0.042569455,-0.0035638837,0.98229736,0.0004005432,0.0017356873,-0.000667572,-0.43040252,-0.015645912,9.797188,2,1683900752.399126
-0.042569455,-0.0035638837,0.98229736,0.0004005432,-0.0004005432,-0.000667572,-0.43040252,-0.015645912,9.797188,2,1683900752.4042659
-0.040127814,-0.004534473,0.9837684,0.0004005432,-0.0004005432,-0.000667572,-0.43040252,-0.015645912,9.797188,2,1683900752.419654
-0.040127814,-0.004534473,0.9837684,0.0004005432,-0.0004005432,-0.000667572,-0.43007094,-0.015814112,9.797202,2,1683900752.4299123
-0.040127814,-0.004534473,0.9837684,0.0004005432,0.000667572,-0.000667572,-0.43007094,-0.015814112,9.797202,2,1683900752.4452922
-0.040127814,-0.004534473,0.9837684,0.0004005432,0.000667572,-0.000667572,-0.42993006,-0.015602229,9.797209,2,1683900752.4555166
-0.0445258,0.0013193953,0.97961307,0.0004005432,0.000667572,-0.000667572,-0.42993006,-0.015602229,9.797209,2,1683900752.4658036
-0.0445258,0.0013193953,0.97961307,0.0004005432,-0.0004005432,0.0004005432,-0.42993006,-0.015602229,9.797209,2,1683900752.47605
-0.0445258,0.0013193953,0.97961307,0.0004005432,-0.0004005432,0.0004005432,-0.429643,-0.015664136,9.797222,2,1683900752.4965112
-0.039885167,-0.0025781286,0.98181206,0.0004005432,-0.0004005432,0.0004005432,-0.429643,-0.015664136,9.797222,2,1683900752.5016437
-0.039885167,-0.0025781286,0.98181206,0.0004005432,-0.0004005432,0.0004005432,-0.42991662,-0.01554345,9.797211,2,1683900752.517
-0.0428121,-0.0008795968,0.98449636,0.0004005432,-0.0004005432,0.0004005432,-0.42991662,-0.01554345,9.797211,2,1683900752.5272207
-0.0428121,-0.0008795968,0.98449636,-0.0017356873,-0.0014686584,-0.000667572,-0.42991662,-0.01554345,9.797211,2,1683900752.532353
-0.04402534,-0.000394302,0.9793704,-0.0017356873,-0.0014686584,-0.000667572,-0.42991662,-0.01554345,9.797211,2,1683900752.5426116
-0.04402534,-0.000394302,0.9793704,-0.0017356873,-0.0014686584,-0.000667572,-0.43022275,-0.0153502915,9.797196,2,1683900752.5477405
-0.04402534,-0.000394302,0.9793704,0.0014686584,-0.0004005432,-0.000667572,-0.43022275,-0.0153502915,9.797196,2,1683900752.5682106
-0.042084157,-0.0035638837,0.98304045,0.0014686584,-0.0004005432,-0.000667572,-0.43022275,-0.0153502915,9.797196,2,1683900752.578476
-0.042084157,-0.0035638837,0.98304045,0.0014686584,-0.0004005432,-0.000667572,-0.43014532,-0.015621369,9.797199,2,1683900752.5989428
-0.042084157,-0.0035638837,0.98304045,-0.000667572,-0.0004005432,0.0004005432,-0.42989054,-0.015112709,9.797212,2,1683900752.6040833
-0.042084157,-0.0035638837,0.98304045,0.0014686584,0.000667572,0.0014686584,-0.42989054,-0.015112709,9.797212,2,1683900752.6092136
-0.042084157,-0.0035638837,0.98304045,0.0014686584,0.0028038025,0.0004005432,-0.42989054,-0.015112709,9.797212,2,1683900752.6348443
-0.042084157,-0.0035638837,0.98304045,0.0014686584,0.0028038025,0.0004005432,-0.43192938,-0.0113125425,9.797127,2,1683900752.6553452
-0.042084157,-0.0035638837,0.98304045,-0.0017356873,-0.0004005432,-0.000667572,-0.43192938,-0.0113125425,9.797127,2,1683900752.6604996
-0.04037046,-0.003078589,0.9820547,-0.0017356873,-0.0004005432,-0.000667572,-0.43192938,-0.0113125425,9.797127,2,1683900752.6758175
-0.04037046,-0.003078589,0.9820547,0.0004005432,0.000667572,0.0004005432,-0.43192938,-0.0113125425,9.797127,2,1683900752.6809447
-0.04037046,-0.003078589,0.9820547,0.0004005432,0.000667572,0.0004005432,-0.43171692,-0.011450607,9.797136,2,1683900752.6860726
-0.04378269,-0.002335481,0.98522425,0.0004005432,0.000667572,0.0004005432,-0.43171692,-0.011450607,9.797136,2,1683900752.7116115
-0.04378269,-0.002335481,0.98522425,0.0004005432,-0.0004005432,0.0004005432,-0.43171692,-0.011450607,9.797136,2,1683900752.7167137
-0.04378269,-0.002335481,0.98522425,-0.000667572,-0.0004005432,0.0004005432,-0.43171692,-0.011450607,9.797136,2,1683900752.7474337
-0.04525374,-0.0035638837,0.97912776,-0.000667572,-0.0004005432,0.0004005432,-0.43171692,-0.011450607,9.797136,2,1683900752.7525637
-0.04525374,-0.0035638837,0.97912776,-0.000667572,-0.0004005432,0.0004005432,-0.43177688,-0.011982666,9.7971325,2,1683900752.7576525
-0.037443526,-0.000394302,0.9810841,-0.000667572,-0.0004005432,0.0004005432,-0.43177688,-0.011982666,9.7971325,2,1683900752.767902
-0.037443526,-0.000394302,0.9810841,0.0014686584,0.000667572,0.0004005432,-0.43177688,-0.011982666,9.7971325,2,1683900752.7729964
-0.037443526,-0.000394302,0.9810841,0.0014686584,0.000667572,0.0004005432,-0.43131012,-0.011822153,9.797153,2,1683900752.7934878
-0.037443526,-0.000394302,0.9810841,0.0014686584,0.000667572,0.0004005432,-0.43171227,-0.011880293,9.797136,2,1683900752.8088796
-0.037443526,-0.000394302,0.9810841,-0.000667572,0.0017356873,0.0004005432,-0.43171227,-0.011880293,9.797136,2,1683900752.814005
-0.04525374,-0.0020928339,0.9827826,-0.000667572,0.0017356873,0.0004005432,-0.43171227,-0.011880293,9.797136,2,1683900752.8294063
-0.04525374,-0.0020928339,0.9827826,0.0004005432,0.0017356873,-0.000667572,-0.43171227,-0.011880293,9.797136,2,1683900752.8549986
-0.04525374,-0.0020928339,0.9827826,0.0004005432,0.0017356873,-0.000667572,-0.43195596,-0.01193459,9.797125,2,1683900752.8601258
-0.043540042,-0.0008795968,0.9810841,0.0004005432,0.0017356873,-0.000667572,-0.43195596,-0.01193459,9.797125,2,1683900752.8703992
-0.04378269,-0.002820776,0.9798557,0.0004005432,0.0017356873,-0.000667572,-0.43195596,-0.01193459,9.797125,2,1683900752.8909073
-0.04378269,-0.002820776,0.9798557,0.0004005432,0.0017356873,-0.000667572,-0.43255705,-0.0118148215,9.797098,2,1683900752.896035
-0.04378269,-0.002820776,0.9798557,0.003604889,0.000667572,0.0014686584,-0.43255705,-0.0118148215,9.797098,2,1683900752.901164
-0.04378269,-0.002820776,0.9798557,0.003604889,0.000667572,0.0014686584,-0.43363813,-0.0082033565,9.797054,2,1683900752.9165058
-0.042569455,-0.0011222442,0.98449636,0.003604889,0.000667572,0.0014686584,-0.43363813,-0.0082033565,9.797054,2,1683900752.931814
-0.042569455,-0.0011222442,0.98449636,0.0004005432,-0.0004005432,-0.000667572,-0.43363813,-0.0082033565,9.797054,2,1683900752.942027
-0.044768445,-0.0008795968,0.9815694,0.0004005432,-0.0004005432,-0.000667572,-0.43363813,-0.0082033565,9.797054,2,1683900752.9522915
-0.044768445,-0.0008795968,0.9815694,0.0004005432,-0.0004005432,-0.000667572,-0.43416247,-0.008559636,9.797031,2,1683900752.9676726
-0.044768445,-0.0008795968,0.9815694,0.0004005432,-0.0004005432,-0.000667572,-0.4343624,-0.008682549,9.797023,2,1683900752.9728122
-0.044768445,-0.0025781286,0.97815716,0.0004005432,-0.0004005432,-0.000667572,-0.4343624,-0.008682549,9.797023,2,1683900752.988194
-0.044768445,-0.0025781286,0.97815716,0.0004005432,0.0017356873,-0.000667572,-0.4343624,-0.008682549,9.797023,2,1683900752.9984486
-0.04672479,-0.0013648917,0.9837684,0.0004005432,0.0017356873,-0.000667572,-0.4343624,-0.008682549,9.797023,2,1683900753.0240848
-0.04672479,-0.0013648917,0.9837684,0.0004005432,0.0017356873,-0.000667572,-0.43519554,-0.008948476,9.796985,2,1683900753.0343406
-0.04184151,0.0010767478,0.9837684,0.0004005432,0.0017356873,-0.000667572,-0.43519554,-0.008948476,9.796985,2,1683900753.044589
-0.04184151,0.0010767478,0.9837684,0.0004005432,-0.0004005432,0.0004005432,-0.43519554,-0.008948476,9.796985,2,1683900753.065056
-0.04184151,0.0010767478,0.9837684,0.0004005432,-0.0004005432,0.0004005432,-0.43501955,-0.008761297,9.796993,2,1683900753.070186
-0.04184151,0.0010767478,0.9837684,0.0004005432,-0.0004005432,0.0004005432,-0.43480182,-0.008282088,9.797003,2,1683900753.0752785
-0.042326804,0.00180469,0.9810841,0.0004005432,-0.0004005432,0.0004005432,-0.43480182,-0.008282088,9.797003,2,1683900753.0804112
-0.042326804,0.00180469,0.9810841,-0.000667572,-0.0004005432,0.0004005432,-0.43480182,-0.008282088,9.797003,2,1683900753.0855508
-0.042326804,0.00180469,0.9810841,-0.000667572,-0.0004005432,0.0004005432,-0.43444875,-0.008057245,9.797019,2,1683900753.106056
-0.041598864,-0.00063694944,0.97912776,-0.000667572,-0.0004005432,0.0004005432,-0.43444875,-0.008057245,9.797019,2,1683900753.1163182
-0.041598864,-0.00063694944,0.97912776,-0.000667572,-0.0004005432,0.0014686584,-0.43444875,-0.008057245,9.797019,2,1683900753.1214497
-0.041598864,-0.00063694944,0.97912776,0.0004005432,0.000667572,-0.0017356873,-0.43444875,-0.008057245,9.797019,2,1683900753.1317017
-0.043297395,0.00034880562,0.98304045,0.0004005432,0.000667572,-0.0017356873,-0.43444875,-0.008057245,9.797019,2,1683900753.1368334
-0.041098405,-0.0025781286,0.98229736,0.0004005432,-0.0004005432,0.0014686584,-0.43444875,-0.008057245,9.797019,2,1683900753.1726744
-0.041098405,-0.0025781286,0.98229736,0.0004005432,-0.0004005432,0.0014686584,-0.43395883,-0.008902114,9.79704,2,1683900753.1829264
-0.04134105,0.00010615824,0.9805988,0.0004005432,-0.0004005432,0.0014686584,-0.43395883,-0.008902114,9.79704,2,1683900753.188058
-0.04134105,0.00010615824,0.9805988,-0.0017356873,0.000667572,0.0014686584,-0.43395883,-0.008902114,9.79704,2,1683900753.1983047
-0.04134105,0.00010615824,0.9805988,-0.0017356873,-0.0004005432,0.0004005432,-0.43395883,-0.008902114,9.79704,2,1683900753.22905
-0.04134105,0.00010615824,0.9805988,-0.0017356873,-0.0004005432,0.0004005432,-0.43380967,-0.00931369,9.797046,2,1683900753.2392685
-0.0428121,-0.0038065312,0.98132676,-0.0017356873,-0.0004005432,0.0004005432,-0.43380967,-0.00931369,9.797046,2,1683900753.2443945
-0.0428121,-0.0038065312,0.98132676,-0.0017356873,-0.0004005432,0.0004005432,-0.4338353,-0.009258883,9.797045,2,1683900753.259774
-0.0428121,-0.0038065312,0.98132676,-0.000667572,-0.0004005432,-0.000667572,-0.4338353,-0.009258883,9.797045,2,1683900753.2751677
-0.04402534,0.00010615824,0.9815694,-0.000667572,-0.0004005432,-0.000667572,-0.4338353,-0.009258883,9.797045,2,1683900753.280301
-0.04402534,0.00010615824,0.9815694,0.0004005432,-0.0014686584,-0.000667572,-0.4338353,-0.009258883,9.797045,2,1683900753.2905135
-0.04402534,0.00010615824,0.9815694,0.0004005432,-0.0014686584,-0.000667572,-0.43410754,-0.00924082,9.797033,2,1683900753.3007708
-0.043540042,0.00059145305,0.9842537,0.0004005432,-0.0014686584,-0.000667572,-0.43410754,-0.00924082,9.797033,2,1683900753.316154
-0.04305475,0.0022899848,0.9820547,0.0004005432,-0.0014686584,-0.000667572,-0.43410754,-0.00924082,9.797033,2,1683900753.3777323
-0.04305475,0.0022899848,0.9820547,0.0004005432,-0.0014686584,0.0014686584,-0.43410754,-0.00924082,9.797033,2,1683900753.3828623
-0.04305475,0.0022899848,0.9820547,0.0004005432,-0.0014686584,0.0014686584,-0.4340262,-0.008527395,9.797037,2,1683900753.387996
-0.04525374,0.0010767478,0.98181206,0.0004005432,-0.0014686584,0.0014686584,-0.4340262,-0.008527395,9.797037,2,1683900753.413616
-0.04525374,0.0010767478,0.98181206,0.0004005432,-0.0014686584,0.0014686584,-0.4342254,-0.008326234,9.797029,2,1683900753.4187543
-0.04525374,0.0010767478,0.98181206,0.0004005432,0.000667572,-0.000667572,-0.4342254,-0.008326234,9.797029,2,1683900753.4238498
-0.04525374,0.0010767478,0.98181206,0.0004005432,0.000667572,-0.000667572,-0.4339503,-0.008187183,9.79704,2,1683900753.4289913
-0.041098405,0.00059145305,0.98254,0.0004005432,0.000667572,-0.000667572,-0.4339503,-0.008187183,9.79704,2,1683900753.4494562
-0.041098405,0.00059145305,0.98254,0.0004005432,-0.0014686584,-0.000667572,-0.4339503,-0.008187183,9.79704,2,1683900753.454588
-0.041098405,0.00059145305,0.98254,0.0004005432,-0.0004005432,-0.000667572,-0.4339503,-0.008187183,9.79704,2,1683900753.459779
-0.043540042,-0.0013648917,0.98229736,0.0004005432,-0.0004005432,-0.000667572,-0.4339503,-0.008187183,9.79704,2,1683900753.4700522
-0.043540042,-0.0013648917,0.98229736,0.0004005432,-0.0004005432,-0.000667572,-0.4325783,-0.009010127,9.7971,2,1683900753.4803195
-0.043540042,-0.0013648917,0.98229736,0.0004005432,-0.0004005432,-0.000667572,-0.4324543,-0.0092013,9.797107,2,1683900753.5162456
-0.0428121,0.00180469,0.9810841,0.0004005432,-0.0004005432,-0.000667572,-0.4324543,-0.0092013,9.797107,2,1683900753.5213768
-0.0428121,0.00180469,0.9810841,-0.000667572,-0.0004005432,-0.000667572,-0.4324543,-0.0092013,9.797107,2,1683900753.526511
-0.044768445,-0.0013648917,0.9815694,-0.000667572,-0.0004005432,-0.000667572,-0.4324543,-0.0092013,9.797107,2,1683900753.541956
-0.042084157,-0.00063694944,0.98181206,-0.000667572,-0.0004005432,-0.000667572,-0.4324543,-0.0092013,9.797107,2,1683900753.588101
-0.042084157,-0.00063694944,0.98181206,0.0004005432,-0.0004005432,-0.000667572,-0.4324543,-0.0092013,9.797107,2,1683900753.5932322
-0.042084157,-0.00063694944,0.98181206,0.0004005432,-0.0004005432,-0.000667572,-0.43247485,-0.009165339,9.797105,2,1683900753.5983572
-0.042084157,-0.0020928339,0.9815694,0.0004005432,-0.0004005432,-0.000667572,-0.43247485,-0.009165339,9.797105,2,1683900753.608583
-0.042084157,-0.0020928339,0.9815694,0.0014686584,-0.0004005432,0.0004005432,-0.43247485,-0.009165339,9.797105,2,1683900753.6239638
-0.042084157,-0.0020928339,0.9815694,0.0014686584,-0.0004005432,0.0004005432,-0.43183362,-0.0093664145,9.7971325,2,1683900753.6290903
-0.04305475,-0.0013648917,0.9837684,0.0014686584,-0.0004005432,0.0004005432,-0.43183362,-0.0093664145,9.7971325,2,1683900753.6546946
-0.04305475,-0.0013648917,0.9837684,0.0014686584,0.000667572,-0.000667572,-0.43183362,-0.0093664145,9.7971325,2,1683900753.6649182
-0.04305475,-0.0013648917,0.9837684,0.0014686584,0.000667572,-0.000667572,-0.4318384,-0.009329207,9.7971325,2,1683900753.6700757
-0.04305475,-0.0013648917,0.9837684,0.0014686584,-0.0004005432,0.0004005432,-0.4318384,-0.009329207,9.7971325,2,1683900753.690595
-0.041098405,0.0015620426,0.98084146,0.0014686584,-0.0004005432,0.0004005432,-0.4318384,-0.009329207,9.7971325,2,1683900753.7008512
-0.041098405,0.0015620426,0.98084146,0.0014686584,-0.0004005432,0.0004005432,-0.4314246,-0.008900936,9.797152,2,1683900753.7059882
-0.04378269,-0.00063694944,0.9842537,0.0014686584,-0.0004005432,0.0004005432,-0.4314246,-0.008900936,9.797152,2,1683900753.721355
-0.04378269,-0.00063694944,0.9842537,0.0004005432,-0.0014686584,-0.000667572,-0.4314246,-0.008900936,9.797152,2,1683900753.7367423
-0.04378269,-0.00063694944,0.9842537,0.0004005432,-0.0004005432,-0.000667572,-0.4314246,-0.008900936,9.797152,2,1683900753.7521248
-0.04378269,-0.00063694944,0.9842537,0.0004005432,-0.0004005432,-0.000667572,-0.43214655,-0.010693728,9.797118,2,1683900753.7675097
-0.04549639,-0.0033212362,0.98352575,0.0004005432,-0.0004005432,-0.000667572,-0.43214655,-0.010693728,9.797118,2,1683900753.7726333
-0.04549639,-0.0033212362,0.98352575,0.0004005432,-0.0004005432,-0.000667572,-0.43173346,-0.010857922,9.797135,2,1683900753.7930727
-0.042569455,-0.000394302,0.98084146,0.0004005432,-0.0004005432,-0.000667572,-0.43173346,-0.010857922,9.797135,2,1683900753.8032947
-0.042569455,-0.000394302,0.98084146,-0.000667572,-0.0004005432,-0.000667572,-0.43173346,-0.010857922,9.797135,2,1683900753.8084285
-0.0445258,-0.0013648917,0.98181206,-0.000667572,-0.0004005432,-0.000667572,-0.43173346,-0.010857922,9.797135,2,1683900753.8597095
-0.0445258,-0.0013648917,0.98181206,-0.000667572,-0.0004005432,-0.000667572,-0.43228513,-0.01065392,9.797112,2,1683900753.8648376
-0.0445258,-0.0013648917,0.98181206,-0.0017356873,-0.0004005432,0.0004005432,-0.43228513,-0.01065392,9.797112,2,1683900753.8801894
-0.0445258,-0.002820776,0.9815694,-0.0017356873,-0.0004005432,0.0004005432,-0.43228513,-0.01065392,9.797112,2,1683900753.8904512
-0.0445258,-0.002820776,0.9815694,0.0004005432,0.000667572,-0.000667572,-0.43228513,-0.01065392,9.797112,2,1683900753.9007382
-0.0445258,-0.002820776,0.9815694,0.0004005432,0.000667572,-0.000667572,-0.43244556,-0.010711756,9.797105,2,1683900753.9058712
-0.04622433,-0.0035638837,0.98304045,0.0004005432,0.000667572,-0.000667572,-0.43244556,-0.010711756,9.797105,2,1683900753.9110003
-0.04622433,-0.0035638837,0.98304045,0.0004005432,0.000667572,-0.000667572,-0.4327113,-0.0108974045,9.797092,2,1683900753.9263935
-0.04378269,-0.000394302,0.980341,0.0004005432,0.000667572,-0.000667572,-0.4327113,-0.0108974045,9.797092,2,1683900753.946917
-0.04378269,-0.000394302,0.980341,0.0004005432,0.000667572,-0.000667572,-0.43297586,-0.011076851,9.797081,2,1683900753.9674275
-0.044768445,-0.0008795968,0.98449636,0.0004005432,0.000667572,-0.000667572,-0.43297586,-0.011076851,9.797081,2,1683900753.982884
-0.043540042,-0.0011222442,0.9820547,0.0004005432,0.000667572,-0.000667572,-0.43297586,-0.011076851,9.797081,2,1683900754.0136733
-0.043540042,-0.0011222442,0.9820547,0.0004005432,0.000667572,-0.000667572,-0.43237725,-0.011509161,9.797107,2,1683900754.0290265
-0.043540042,-0.0011222442,0.9820547,-0.0017356873,-0.0014686584,-0.000667572,-0.43237725,-0.011509161,9.797107,2,1683900754.0392354
-0.0428121,-0.00063694944,0.98181206,-0.0017356873,-0.0014686584,-0.000667572,-0.43237725,-0.011509161,9.797107,2,1683900754.0443628
-0.0428121,-0.00063694944,0.98181206,0.0004005432,-0.0004005432,-0.0017356873,-0.43237725,-0.011509161,9.797107,2,1683900754.054614
-0.0428121,-0.00063694944,0.98181206,0.0004005432,-0.0004005432,-0.0017356873,-0.4322199,-0.011927539,9.797113,2,1683900754.090471
-0.0428121,-0.00063694944,0.98181206,0.0014686584,-0.0004005432,-0.000667572,-0.4322199,-0.011927539,9.797113,2,1683900754.0955977
-0.045981683,-0.002335481,0.9832831,0.0014686584,-0.0004005432,-0.000667572,-0.4322199,-0.011927539,9.797113,2,1683900754.1058562
-0.045981683,-0.002335481,0.9832831,0.0014686584,-0.0004005432,-0.000667572,-0.43261173,-0.01189433,9.797097,2,1683900754.1109805
-0.045739036,-0.002335481,0.9832831,0.0014686584,-0.0004005432,-0.000667572,-0.43261173,-0.01189433,9.797097,2,1683900754.1211958
-0.045739036,-0.002335481,0.9832831,-0.000667572,0.000667572,0.0004005432,-0.43261173,-0.01189433,9.797097,2,1683900754.1263292
-0.045739036,-0.002335481,0.9832831,-0.000667572,0.000667572,0.0004005432,-0.43283474,-0.012018434,9.797087,2,1683900754.131454
-0.04402534,0.00034880562,0.9815694,-0.000667572,0.000667572,0.0004005432,-0.43283474,-0.012018434,9.797087,2,1683900754.172615
-0.039157223,0.0013193953,0.98181206,-0.000667572,0.000667572,0.0004005432,-0.43283474,-0.012018434,9.797087,2,1683900754.1829336
-0.039157223,0.0013193953,0.98181206,0.0004005432,-0.0004005432,0.0004005432,-0.43283474,-0.012018434,9.797087,2,1683900754.1984477
-0.039157223,0.0013193953,0.98181206,0.0004005432,-0.0004005432,0.0004005432,-0.43250778,-0.011697097,9.797101,2,1683900754.2087753
-0.039157223,0.0013193953,0.98181206,0.0004005432,-0.0004005432,0.0004005432,-0.43272167,-0.011546489,9.7970915,2,1683900754.2345533
-0.039157223,0.0013193953,0.98181206,0.0004005432,0.000667572,-0.000667572,-0.43272167,-0.011546489,9.7970915,2,1683900754.2397203
-0.04622433,0.0013193953,0.9859674,0.0004005432,0.000667572,-0.000667572,-0.43272167,-0.011546489,9.7970915,2,1683900754.2448766
-0.04622433,0.0013193953,0.9859674,0.0004005432,0.000667572,-0.000667572,-0.43312806,-0.01134486,9.797074,2,1683900754.2552123
-0.04525374,-0.0020928339,0.98254,0.0004005432,0.000667572,-0.000667572,-0.43312806,-0.01134486,9.797074,2,1683900754.26037
-0.04525374,-0.0020928339,0.98254,0.0004005432,-0.0004005432,0.0004005432,-0.43312806,-0.01134486,9.797074,2,1683900754.2757504
-0.04525374,-0.0020928339,0.98254,0.0004005432,-0.0004005432,0.0004005432,-0.38747692,-0.022066517,9.798967,2,1683900754.2911465
