acc_x,acc_y,acc_z,gyr_x,gyr_y,gyr_z,grav_x,grav_y,grav_z,label,timestamp
-0.04305475,-0.0013648917,0.98181206,0.0005340576,0.0017356873,0.0005340576,-0.43529812,-0.018379502,9.7969675,2,1683900811.9036875
-0.04428315,-0.003078589,0.9827826,0.0005340576,0.0017356873,0.0005340576,-0.43529812,-0.018379502,9.7969675,2,1683900811.9128716
-0.04428315,-0.003078589,0.9827826,-0.0005340576,-0.0014686584,-0.0005340576,-0.43529812,-0.018379502,9.7969675,2,1683900811.923392
-0.04428315,-0.003078589,0.9827826,0.0005340576,-0.0014686584,-0.0005340576,-0.4353375,-0.018646656,9.796966,2,1683900811.9288194
-0.042569455,-0.0052624154,0.98304045,-0.0005340576,-0.0004005432,0.0005340576,-0.43493637,-0.019045705,9.796982,2,1683900811.9344404
-0.043540042,-0.001607539,0.98254,-0.0005340576,-0.0004005432,0.0005340576,-0.43493637,-0.019045705,9.796982,2,1683900811.9461176
-0.043540042,-0.001607539,0.98254,0.0005340576,0.000667572,0.0005340576,-0.43493637,-0.019045705,9.796982,2,1683900812.0024376
-0.040855754,-0.003078589,0.980341,0.0005340576,0.000667572,0.0005340576,-0.43493637,-0.019045705,9.796982,2,1683900812.0075643
-0.040855754,-0.003078589,0.980341,0.0005340576,0.000667572,0.0005340576,-0.4352374,-0.019036207,9.796968,2,1683900812.0177789
-0.040855754,-0.003078589,0.980341,-0.0005340576,-0.0004005432,0.0005340576,-0.4352374,-0.019036207,9.796968,2,1683900812.02291
-0.0445258,-0.004291826,0.9842537,-0.0005340576,-0.0004005432,0.0005340576,-0.4352374,-0.019036207,9.796968,2,1683900812.0280015
-0.0445258,-0.004291826,0.9842537,-0.0005340576,-0.0004005432,0.0005340576,-0.43503404,-0.01857359,9.796978,2,1683900812.0484412
-0.0445258,-0.004291826,0.9842537,-0.0005340576,-0.0004005432,-0.0005340576,-0.43503404,-0.01857359,9.796978,2,1683900812.0587044
-0.0445258,-0.004291826,0.9842537,-0.0005340576,-0.0004005432,-0.0005340576,-0.43500006,-0.019079357,9.796979,2,1683900812.0637968
-0.040855754,-0.0020928339,0.97912776,-0.0005340576,-0.0004005432,-0.0005340576,-0.43500006,-0.019079357,9.796979,2,1683900812.0842755
-0.04549639,-0.0038065312,0.9842537,-0.0005340576,-0.0004005432,-0.0005340576,-0.43500006,-0.019079357,9.796979,2,1683900812.0894048
-0.04549639,-0.0038065312,0.9842537,-0.0005340576,-0.0004005432,-0.0005340576,-0.43497077,-0.019268706,9.79698,2,1683900812.0996284
-0.04549639,-0.0038065312,0.9842537,-0.0016021729,0.000667572,0.0005340576,-0.43497077,-0.019268706,9.79698,2,1683900812.10989
-0.04549639,-0.0038065312,0.9842537,-0.0016021729,0.000667572,0.0005340576,-0.43500385,-0.019196719,9.796979,2,1683900812.145718
-0.04525374,-0.0013648917,0.98473895,-0.0016021729,0.000667572,0.0005340576,-0.43500385,-0.019196719,9.796979,2,1683900812.1662006
-0.04525374,-0.0013648917,0.98473895,-0.0016021729,0.000667572,0.0005340576,-0.4349418,-0.01955436,9.79698,2,1683900812.1713014
-0.04525374,-0.0013648917,0.98473895,-0.0005340576,0.000667572,-0.0005340576,-0.4349418,-0.01955436,9.79698,2,1683900812.1866615
-0.04378269,-0.0013648917,0.9783998,-0.0005340576,0.000667572,-0.0005340576,-0.4349418,-0.01955436,9.79698,2,1683900812.2174442
-0.04378269,-0.0013648917,0.9783998,-0.0005340576,0.000667572,-0.0005340576,-0.43467042,-0.019662466,9.796992,2,1683900812.2225928
-0.04378269,-0.0013648917,0.9783998,-0.0005340576,-0.0004005432,-0.0005340576,-0.43467042,-0.019662466,9.796992,2,1683900812.2277257
-0.04378269,-0.0013648917,0.9783998,-0.0005340576,-0.0004005432,-0.0005340576,-0.4347306,-0.019842,9.796989,2,1683900812.2481918
-0.0445258,-0.0038065312,0.9820547,-0.0005340576,-0.0004005432,-0.0005340576,-0.4347306,-0.019842,9.796989,2,1683900812.2533236
-0.042326804,-0.0038065312,0.98181206,-0.0005340576,-0.0004005432,-0.0005340576,-0.4347306,-0.019842,9.796989,2,1683900812.3200533
-0.0445258,-0.0038065312,0.9820547,-0.0005340576,-0.0004005432,-0.0005340576,-0.4347306,-0.019842,9.796989,2,1683900812.3354332
-0.04549639,-0.0035638837,0.98181206,-0.0005340576,-0.0004005432,-0.0005340576,-0.4347306,-0.019842,9.796989,2,1683900812.345694
-0.04549639,-0.0035638837,0.98181206,-0.0005340576,-0.0004005432,-0.0005340576,-0.4349598,-0.020425873,9.796978,2,1683900812.3508275
-0.044768445,-0.0040491787,0.9820547,-0.0005340576,-0.0004005432,-0.0005340576,-0.4349598,-0.020425873,9.796978,2,1683900812.3610904
-0.044768445,-0.0040491787,0.9820547,0.0005340576,0.000667572,0.0005340576,-0.4349598,-0.020425873,9.796978,2,1683900812.366188
-0.044768445,-0.0040491787,0.9820547,0.0005340576,0.000667572,0.0005340576,-0.4350671,-0.020460866,9.796973,2,1683900812.37128
-0.044768445,-0.0040491787,0.9820547,-0.0016021729,-0.0004005432,0.0005340576,-0.4350671,-0.020460866,9.796973,2,1683900812.3815315
-0.044768445,-0.0040491787,0.9820547,-0.0005340576,-0.0004005432,0.0005340576,-0.4350671,-0.020460866,9.796973,2,1683900812.412265
-0.043540042,0.00059145305,0.9827826,-0.0005340576,-0.0004005432,0.0005340576,-0.4350671,-0.020460866,9.796973,2,1683900812.4224856
-0.043540042,0.00059145305,0.9827826,-0.0005340576,-0.0004005432,0.0005340576,-0.43512407,-0.020834163,9.796969,2,1683900812.4378388
-0.043540042,0.00059145305,0.9827826,-0.0005340576,-0.0004005432,0.0016021729,-0.43512407,-0.020834163,9.796969,2,1683900812.4582772
-0.042084157,-0.000394302,0.9827826,-0.0005340576,-0.0004005432,0.0016021729,-0.43512407,-0.020834163,9.796969,2,1683900812.4633708
-0.04378269,-0.00013648917,0.9815694,-0.0005340576,-0.0004005432,0.0016021729,-0.43512407,-0.020834163,9.796969,2,1683900812.4735565
-0.04378269,-0.00013648917,0.9815694,-0.0005340576,-0.0004005432,0.0016021729,-0.43482786,-0.020387705,9.796985,2,1683900812.4838164
-0.04378269,-0.00013648917,0.9815694,-0.0005340576,0.0017356873,-0.0005340576,-0.43482786,-0.020387705,9.796985,2,1683900812.488944
-0.042326804,0.00034880562,0.98181206,-0.0005340576,0.0017356873,-0.0005340576,-0.43482786,-0.020387705,9.796985,2,1683900812.5094771
-0.042326804,0.00034880562,0.98181206,-0.0005340576,0.000667572,-0.0005340576,-0.43482786,-0.020387705,9.796985,2,1683900812.5145693
-0.042326804,0.00034880562,0.98181206,-0.0005340576,0.000667572,-0.0005340576,-0.43476424,-0.020097626,9.796988,2,1683900812.5197024
-0.0428121,-0.000394302,0.98229736,-0.0005340576,0.000667572,-0.0005340576,-0.43476424,-0.020097626,9.796988,2,1683900812.5299666
-0.0428121,-0.000394302,0.98229736,0.0005340576,-0.0004005432,0.0005340576,-0.43476424,-0.020097626,9.796988,2,1683900812.5402272
-0.0428121,-0.000394302,0.98229736,0.0005340576,-0.0004005432,0.0005340576,-0.43475676,-0.020110158,9.7969885,2,1683900812.5606546
-0.0428121,-0.000394302,0.98229736,0.0005340576,-0.0004005432,0.0005340576,-0.43462422,-0.020100718,9.796994,2,1683900812.5657911
-0.042326804,-0.001607539,0.98473895,0.0005340576,-0.0004005432,0.0005340576,-0.43462422,-0.020100718,9.796994,2,1683900812.5811505
-0.042326804,-0.001607539,0.98473895,-0.0005340576,-0.0004005432,0.0005340576,-0.43462422,-0.020100718,9.796994,2,1683900812.591401
-0.042326804,-0.001607539,0.98473895,-0.0005340576,-0.0004005432,0.0005340576,-0.43423632,-0.020026753,9.79701,2,1683900812.6221778
-0.039885167,-0.0008795968,0.9820547,-0.0005340576,-0.0004005432,0.0005340576,-0.43423632,-0.020026753,9.79701,2,1683900812.6272697
-0.039885167,-0.0008795968,0.9820547,0.0005340576,0.000667572,0.0005340576,-0.43423632,-0.020026753,9.79701,2,1683900812.6323986
-0.04184151,-0.0008795968,0.98229736,0.0005340576,0.000667572,0.0005340576,-0.43423632,-0.020026753,9.79701,2,1683900812.678539
-0.04184151,-0.0008795968,0.98229736,0.0005340576,0.000667572,0.0005340576,-0.4342006,-0.020069249,9.797012,2,1683900812.6939228
-0.04184151,-0.0008795968,0.98229736,-0.0016021729,-0.0004005432,-0.0005340576,-0.4342006,-0.020069249,9.797012,2,1683900812.7041817
-0.043540042,-0.0020928339,0.98132676,-0.0016021729,-0.0004005432,-0.0005340576,-0.4342006,-0.020069249,9.797012,2,1683900812.7297313
-0.043540042,-0.0020928339,0.98132676,-0.0016021729,-0.0004005432,0.0005340576,-0.4342006,-0.020069249,9.797012,2,1683900812.7348664
-0.043540042,-0.0020928339,0.98132676,-0.0016021729,-0.0004005432,0.0005340576,-0.4342696,-0.02024548,9.7970085,2,1683900812.7399943
-0.04402534,-0.0011222442,0.98254,-0.0016021729,-0.0004005432,0.0005340576,-0.4342696,-0.02024548,9.7970085,2,1683900812.750217
-0.04402534,-0.0011222442,0.98254,-0.0016021729,-0.0004005432,0.0005340576,-0.43429098,-0.020090811,9.7970085,2,1683900812.7553074
-0.04402534,-0.0011222442,0.98254,0.0016021729,-0.0004005432,0.0005340576,-0.43429098,-0.020090811,9.7970085,2,1683900812.770697
-0.04402534,-0.0011222442,0.98254,0.0016021729,-0.0004005432,0.0005340576,-0.43418226,-0.019882387,9.797014,2,1683900812.7809575
-0.04402534,-0.0011222442,0.98254,0.0005340576,0.000667572,-0.0005340576,-0.43418226,-0.019882387,9.797014,2,1683900812.7962785
-0.0428121,-0.0011222442,0.9810841,0.0005340576,0.000667572,-0.0005340576,-0.43418226,-0.019882387,9.797014,2,1683900812.8167615
-0.0428121,-0.0011222442,0.9810841,-0.0005340576,0.000667572,0.0005340576,-0.43418226,-0.019882387,9.797014,2,1683900812.821858
-0.04305475,0.00180469,0.9820547,-0.0005340576,0.000667572,0.0005340576,-0.43418226,-0.019882387,9.797014,2,1683900812.826995
-0.042084157,-0.000394302,0.9815694,-0.0005340576,0.000667572,0.0005340576,-0.43418226,-0.019882387,9.797014,2,1683900812.8474772
-0.042084157,-0.000394302,0.9815694,0.0005340576,-0.0004005432,0.0005340576,-0.43418226,-0.019882387,9.797014,2,1683900812.8731425
-0.042084157,-0.000394302,0.9815694,0.0005340576,-0.0004005432,0.0005340576,-0.4334742,-0.01969073,9.797046,2,1683900812.8782754
-0.042084157,-0.0025781286,0.98181206,0.0005340576,-0.0004005432,0.0005340576,-0.4334742,-0.01969073,9.797046,2,1683900812.8833728
-0.042084157,-0.0025781286,0.98181206,0.0005340576,-0.0004005432,0.0005340576,-0.4332662,-0.01992606,9.797054,2,1683900812.8885078
-0.042084157,-0.0025781286,0.98181206,-0.0005340576,-0.0014686584,-0.0005340576,-0.4332662,-0.01992606,9.797054,2,1683900812.8987617
-0.04428315,-0.003078589,0.98229736,-0.0005340576,-0.0014686584,-0.0005340576,-0.4332662,-0.01992606,9.797054,2,1683900812.9192033
-0.04428315,-0.003078589,0.98229736,0.0005340576,-0.0004005432,0.0005340576,-0.4332662,-0.01992606,9.797054,2,1683900812.9294617
-0.04428315,-0.003078589,0.98229736,0.0005340576,-0.0004005432,0.0005340576,-0.43331698,-0.019988272,9.797052,2,1683900812.9499292
-0.04428315,-0.003078589,0.98229736,-0.0005340576,0.000667572,0.0005340576,-0.43331698,-0.019988272,9.797052,2,1683900812.960182
-0.04428315,-0.003078589,0.98229736,-0.0005340576,0.000667572,0.0005340576,-0.43367502,-0.020252913,9.797035,2,1683900812.9653118
-0.04402534,-0.001607539,0.9849816,-0.0005340576,0.000667572,0.0005340576,-0.43367502,-0.020252913,9.797035,2,1683900812.9857893
-0.045981683,-0.000394302,0.98401105,-0.0005340576,0.000667572,0.0005340576,-0.43367502,-0.020252913,9.797035,2,1683900813.0011868
-0.045981683,-0.000394302,0.98401105,-0.0005340576,-0.0004005432,-0.0005340576,-0.43367502,-0.020252913,9.797035,2,1683900813.006282
-0.045981683,-0.000394302,0.98401105,-0.0005340576,-0.0004005432,-0.0005340576,-0.43378425,-0.020012626,9.797031,2,1683900813.011373
-0.045981683,-0.000394302,0.98401105,0.0005340576,-0.0004005432,-0.0005340576,-0.43378425,-0.020012626,9.797031,2,1683900813.0369964
-0.04378269,-0.0033212362,0.9837684,0.0005340576,-0.0004005432,-0.0005340576,-0.43378425,-0.020012626,9.797031,2,1683900813.0421262
-0.04378269,-0.0033212362,0.9837684,0.0005340576,-0.0004005432,-0.0005340576,-0.43378487,-0.020096585,9.797031,2,1683900813.047188
-0.04378269,-0.0033212362,0.9837684,0.0005340576,-0.0004005432,-0.0005340576,-0.4334725,-0.020219237,9.797044,2,1683900813.0625718
-0.04378269,-0.0033212362,0.9837684,0.0005340576,-0.0014686584,0.0005340576,-0.4334725,-0.020219237,9.797044,2,1683900813.077922
-0.043540042,-0.00063694944,0.98084146,0.0005340576,-0.0014686584,0.0005340576,-0.4334725,-0.020219237,9.797044,2,1683900813.0830557
-0.043540042,-0.00063694944,0.98084146,0.0005340576,-0.0014686584,0.0005340576,-0.43375218,-0.020188816,9.797032,2,1683900813.0881872
-0.043540042,-0.00063694944,0.98084146,-0.0005340576,0.000667572,0.0005340576,-0.43375218,-0.020188816,9.797032,2,1683900813.0933197
-0.046466976,-0.0013648917,0.9832831,-0.0005340576,0.000667572,0.0005340576,-0.43375218,-0.020188816,9.797032,2,1683900813.1035898
-0.046466976,-0.0013648917,0.9832831,-0.0005340576,0.000667572,0.0005340576,-0.43384063,-0.019995203,9.797029,2,1683900813.1241055
-0.046466976,-0.0013648917,0.9832831,-0.0005340576,-0.0004005432,-0.0005340576,-0.43384063,-0.019995203,9.797029,2,1683900813.1343687
-0.04428315,0.0015620426,0.98352575,-0.0005340576,-0.0004005432,-0.0005340576,-0.43384063,-0.019995203,9.797029,2,1683900813.1548693
-0.04428315,0.0015620426,0.98352575,0.0005340576,-0.0004005432,0.0005340576,-0.43384063,-0.019995203,9.797029,2,1683900813.1651242
-0.04428315,0.0015620426,0.98352575,0.0005340576,-0.0004005432,0.0005340576,-0.4341187,-0.019887887,9.797017,2,1683900813.1753469
-0.04428315,0.0015620426,0.98352575,0.0005340576,-0.0004005432,0.0005340576,-0.43401694,-0.019869206,9.797021,2,1683900813.2009017
-0.042569455,-0.0020928339,0.9832831,0.0005340576,-0.0004005432,0.0005340576,-0.43401694,-0.019869206,9.797021,2,1683900813.2162888
-0.042569455,-0.0020928339,0.9832831,0.0016021729,0.000667572,0.0005340576,-0.43401694,-0.019869206,9.797021,2,1683900813.2265484
-0.04622433,-0.0013648917,0.98401105,0.0016021729,0.000667572,0.0005340576,-0.43401694,-0.019869206,9.797021,2,1683900813.2316809
-0.04622433,-0.0013648917,0.98401105,0.0016021729,0.000667572,0.0005340576,-0.43441576,-0.01951479,9.797004,2,1683900813.241943
-0.04622433,-0.0013648917,0.98401105,0.0016021729,0.000667572,0.0005340576,-0.43442592,-0.019458871,9.797005,2,1683900813.2624602
-0.043297395,-0.001607539,0.9827826,0.0016021729,0.000667572,0.0005340576,-0.43442592,-0.019458871,9.797005,2,1683900813.2778516
-0.043297395,-0.001607539,0.9827826,0.0005340576,0.000667572,0.0005340576,-0.43442592,-0.019458871,9.797005,2,1683900813.2881083
-0.043297395,-0.001607539,0.9827826,-0.0016021729,0.000667572,0.0005340576,-0.43442592,-0.019458871,9.797005,2,1683900813.2932377
-0.043297395,-0.001607539,0.9827826,-0.0016021729,0.000667572,0.0005340576,-0.43427613,-0.019721951,9.797009,2,1683900813.3034945
-0.04525374,-0.003078589,0.9820547,-0.0016021729,0.000667572,0.0005340576,-0.43427613,-0.019721951,9.797009,2,1683900813.318893
-0.0445258,-0.002820776,0.98304045,-0.0016021729,0.000667572,0.0005340576,-0.43427613,-0.019721951,9.797009,2,1683900813.3393705
-0.0445258,-0.002820776,0.98304045,0.0005340576,0.000667572,0.0005340576,-0.43427613,-0.019721951,9.797009,2,1683900813.349646
-0.040613107,-0.003078589,0.98181206,0.0005340576,0.000667572,0.0005340576,-0.43427613,-0.019721951,9.797009,2,1683900813.3701382
-0.040613107,-0.003078589,0.98181206,0.0005340576,0.000667572,0.0005340576,-0.43382424,-0.018787323,9.797031,2,1683900813.375197
-0.04402534,-0.003078589,0.98254,0.0005340576,0.000667572,0.0005340576,-0.43382424,-0.018787323,9.797031,2,1683900813.3854182
-0.04402534,-0.003078589,0.98254,0.0005340576,-0.0014686584,-0.0005340576,-0.43382424,-0.018787323,9.797031,2,1683900813.3956437
-0.04402534,-0.003078589,0.98254,0.0005340576,-0.0014686584,-0.0005340576,-0.43379802,-0.018861253,9.797033,2,1683900813.4007823
-0.04402534,-0.003078589,0.98254,0.0005340576,-0.0014686584,-0.0005340576,-0.43424428,-0.01906814,9.797012,2,1683900813.4059105
-0.045011092,-0.0020928339,0.97815716,0.0005340576,-0.0014686584,-0.0005340576,-0.43424428,-0.01906814,9.797012,2,1683900813.431479
-0.045011092,-0.0020928339,0.97815716,0.0005340576,0.0017356873,-0.0005340576,-0.43424428,-0.01906814,9.797012,2,1683900813.4365757
-0.04549639,-0.0011222442,0.98009837,0.0005340576,0.0017356873,-0.0005340576,-0.43424428,-0.01906814,9.797012,2,1683900813.4570441
-0.04549639,-0.0011222442,0.98009837,0.0005340576,0.0017356873,-0.0005340576,-0.43423784,-0.019006507,9.797013,2,1683900813.4672625
-0.04549639,-0.0011222442,0.98009837,0.0005340576,0.000667572,-0.0005340576,-0.43423784,-0.019006507,9.797013,2,1683900813.4723976
-0.04549639,-0.0011222442,0.98009837,0.0005340576,0.000667572,-0.0005340576,-0.43397596,-0.018978756,9.797024,2,1683900813.4826744
-0.04134105,-0.00063694944,0.98522425,0.0005340576,0.000667572,-0.0005340576,-0.43397596,-0.018978756,9.797024,2,1683900813.4877656
-0.04134105,-0.00063694944,0.98522425,-0.0016021729,-0.0014686584,-0.0005340576,-0.43397596,-0.018978756,9.797024,2,1683900813.4928923
-0.042569455,-0.000394302,0.98304045,-0.0016021729,-0.0014686584,-0.0005340576,-0.43397596,-0.018978756,9.797024,2,1683900813.513398
-0.042569455,-0.000394302,0.98304045,-0.0016021729,-0.0014686584,-0.0005340576,-0.4339554,-0.018628446,9.797027,2,1683900813.539061
-0.042569455,-0.000394302,0.98304045,0.0005340576,0.000667572,-0.0005340576,-0.4339554,-0.018628446,9.797027,2,1683900813.5441942
-0.04428315,-0.0018501864,0.98132676,0.0005340576,0.000667572,-0.0005340576,-0.4339554,-0.018628446,9.797027,2,1683900813.5544481
-0.04428315,-0.0018501864,0.98132676,0.0005340576,0.000667572,0.0005340576,-0.4339554,-0.018628446,9.797027,2,1683900813.564704
-0.04428315,-0.0018501864,0.98132676,0.0005340576,0.000667572,0.0005340576,-0.43405572,-0.018600436,9.797022,2,1683900813.5749574
-0.04428315,-0.0018501864,0.98132676,0.0005340576,0.000667572,0.0005340576,-0.4336178,-0.018676609,9.797041,2,1683900813.590379
-0.04428315,-0.0018501864,0.98132676,-0.0005340576,-0.0004005432,-0.0016021729,-0.4336178,-0.018676609,9.797041,2,1683900813.5955164
-0.042326804,-0.0035638837,0.9827826,-0.0005340576,-0.0004005432,-0.0016021729,-0.4336178,-0.018676609,9.797041,2,1683900813.610904
-0.04134105,-0.005019768,0.9842537,-0.0005340576,-0.0004005432,-0.0016021729,-0.4336178,-0.018676609,9.797041,2,1683900813.6314166
-0.04134105,-0.005019768,0.9842537,-0.0005340576,-0.0004005432,0.0005340576,-0.4336178,-0.018676609,9.797041,2,1683900813.6416738
-0.04134105,-0.005019768,0.9842537,-0.0005340576,-0.0004005432,0.0005340576,-0.43404102,-0.0183873,9.797023,2,1683900813.6468027
-0.04134105,-0.005019768,0.9842537,-0.0005340576,-0.0004005432,0.0005340576,-0.43386322,-0.018793754,9.79703,2,1683900813.667282
-0.04305475,-0.0020928339,0.9805988,-0.0005340576,-0.0004005432,0.0005340576,-0.43386322,-0.018793754,9.79703,2,1683900813.672415
-0.04305475,-0.0020928339,0.9805988,0.0005340576,0.000667572,-0.0016021729,-0.43386322,-0.018793754,9.79703,2,1683900813.6826727
-0.045739036,-0.00063694944,0.98352575,0.0005340576,0.000667572,-0.0016021729,-0.43386322,-0.018793754,9.79703,2,1683900813.6877973
-0.045739036,-0.00063694944,0.98352575,0.0005340576,0.000667572,-0.0016021729,-0.43402582,-0.01871657,9.797023,2,1683900813.6929293
-0.045739036,-0.00063694944,0.98352575,-0.0005340576,-0.0004005432,-0.0005340576,-0.43402582,-0.01871657,9.797023,2,1683900813.7082863
-0.046967436,-0.001607539,0.98132676,-0.0005340576,-0.0004005432,-0.0005340576,-0.43402582,-0.01871657,9.797023,2,1683900813.7236595
-0.046967436,-0.001607539,0.98132676,0.0005340576,-0.0004005432,0.0005340576,-0.43402582,-0.01871657,9.797023,2,1683900813.7390497
-0.046967436,-0.001607539,0.98132676,0.0005340576,-0.0004005432,0.0005340576,-0.4341535,-0.018358085,9.797019,2,1683900813.7493
-0.0428121,-0.002335481,0.9842537,0.0005340576,-0.0004005432,0.0005340576,-0.4341535,-0.018358085,9.797019,2,1683900813.7800815
-0.0428121,-0.002335481,0.9842537,0.0005340576,-0.0004005432,0.0005340576,-0.43406844,-0.018380553,9.797022,2,1683900813.7852151
-0.0428121,-0.002335481,0.9842537,-0.0005340576,-0.0004005432,0.0005340576,-0.43406844,-0.018380553,9.797022,2,1683900813.7903488
-0.044768445,-0.0018501864,0.98229736,-0.0005340576,-0.0004005432,0.0005340576,-0.43406844,-0.018380553,9.797022,2,1683900813.8108652
-0.044768445,-0.0018501864,0.98229736,-0.0005340576,-0.0004005432,0.0005340576,-0.43399072,-0.01872429,9.797025,2,1683900813.8211248
-0.044768445,-0.0018501864,0.98229736,-0.0005340576,-0.0004005432,-0.0005340576,-0.43399072,-0.01872429,9.797025,2,1683900813.8262568
-0.044768445,-0.0018501864,0.98229736,-0.0005340576,-0.0004005432,0.0005340576,-0.43399072,-0.01872429,9.797025,2,1683900813.851861
-0.044768445,-0.0018501864,0.98229736,-0.0005340576,-0.0004005432,0.0005340576,-0.43390653,-0.019013045,9.797029,2,1683900813.856988
-0.0428121,-0.002335481,0.98522425,-0.0005340576,-0.0004005432,0.0005340576,-0.43390653,-0.019013045,9.797029,2,1683900813.8621285
-0.0428121,-0.002335481,0.98522425,-0.0005340576,0.0017356873,-0.0005340576,-0.43390653,-0.019013045,9.797029,2,1683900813.8671787
-0.0428121,-0.002335481,0.98522425,-0.0005340576,0.0017356873,-0.0005340576,-0.4342942,-0.019035501,9.79701,2,1683900813.8723114
-0.047210086,-0.0018501864,0.98352575,-0.0005340576,0.0017356873,-0.0005340576,-0.4342942,-0.019035501,9.79701,2,1683900813.8876648
-0.047210086,-0.0018501864,0.98352575,-0.0005340576,0.0017356873,-0.0005340576,-0.43386838,-0.018508311,9.79703,2,1683900813.897886
-0.04378269,-0.002335481,0.98132676,-0.0005340576,0.0017356873,-0.0005340576,-0.43386838,-0.018508311,9.79703,2,1683900813.9184005
-0.04378269,-0.002335481,0.98132676,-0.0005340576,0.000667572,0.0005340576,-0.43386838,-0.018508311,9.79703,2,1683900813.9235342
-0.04378269,-0.002335481,0.98132676,-0.0005340576,0.000667572,-0.0005340576,-0.43386838,-0.018508311,9.79703,2,1683900813.9286673
-0.04378269,-0.002335481,0.98132676,-0.0005340576,0.000667572,-0.0005340576,-0.4338569,-0.018723436,9.79703,2,1683900813.9440577
-0.04402534,-0.0033212362,0.98181206,-0.0005340576,0.000667572,-0.0005340576,-0.4338569,-0.018723436,9.79703,2,1683900813.949189
-0.0428121,0.00059145305,0.98304045,-0.0005340576,0.000667572,-0.0005340576,-0.4338569,-0.018723436,9.79703,2,1683900813.9799037
-0.0428121,0.00059145305,0.98304045,-0.0005340576,0.000667572,0.0016021729,-0.4338569,-0.018723436,9.79703,2,1683900813.9901657
-0.0428121,0.00059145305,0.98304045,-0.0005340576,0.000667572,0.0016021729,-0.4335375,-0.018753849,9.797045,2,1683900813.9952576
-0.042084157,-0.0057628755,0.97961307,-0.0005340576,0.000667572,0.0016021729,-0.4335375,-0.018753849,9.797045,2,1683900814.0209033
-0.042084157,-0.0057628755,0.97961307,-0.0005340576,0.000667572,0.0016021729,-0.43337303,-0.018977802,9.797051,2,1683900814.0260344
-0.042084157,-0.0057628755,0.97961307,0.0016021729,0.000667572,0.0005340576,-0.43337303,-0.018977802,9.797051,2,1683900814.0311654
-0.042326804,-0.0013648917,0.9832831,0.0016021729,0.000667572,0.0005340576,-0.43337303,-0.018977802,9.797051,2,1683900814.0362968
-0.042326804,-0.0013648917,0.9832831,0.0005340576,0.000667572,0.0016021729,-0.43337303,-0.018977802,9.797051,2,1683900814.0568166
-0.042326804,-0.0013648917,0.9832831,0.0005340576,0.000667572,0.0016021729,-0.43330944,-0.018903533,9.797054,2,1683900814.0619507
-0.042326804,-0.0013648917,0.9832831,0.0005340576,0.000667572,0.0005340576,-0.43330944,-0.018903533,9.797054,2,1683900814.0977967
-0.042326804,-0.0013648917,0.9832831,0.0005340576,0.000667572,0.0005340576,-0.4323679,-0.018674009,9.797096,2,1683900814.1029294
-0.03939987,-0.000394302,0.9815694,0.0005340576,0.000667572,0.0005340576,-0.4323679,-0.018674009,9.797096,2,1683900814.1080637
-0.040855754,-0.0013648917,0.98254,0.0005340576,0.000667572,0.0005340576,-0.4323679,-0.018674009,9.797096,2,1683900814.118307
-0.040855754,-0.0013648917,0.98254,0.0005340576,0.000667572,0.0005340576,-0.43288532,-0.018805439,9.797072,2,1683900814.1234307
-0.040855754,-0.0013648917,0.98254,0.0005340576,-0.0014686584,0.0005340576,-0.43288532,-0.018805439,9.797072,2,1683900814.1387837
-0.040855754,-0.0013648917,0.98254,-0.0016021729,0.000667572,0.0005340576,-0.43288532,-0.018805439,9.797072,2,1683900814.1591794
-0.042326804,-0.0013648917,0.98352575,-0.0016021729,0.000667572,0.0005340576,-0.43288532,-0.018805439,9.797072,2,1683900814.1694057
-0.04134105,0.0013193953,0.9779145,-0.0016021729,0.000667572,0.0005340576,-0.43288532,-0.018805439,9.797072,2,1683900814.1796658
-0.04134105,0.0013193953,0.9779145,-0.0005340576,-0.0004005432,-0.0005340576,-0.43288532,-0.018805439,9.797072,2,1683900814.1847966
-0.04134105,0.0013193953,0.9779145,-0.0005340576,-0.0004005432,-0.0005340576,-0.43310365,-0.019024491,9.797064,2,1683900814.1899307
-0.04134105,0.0013193953,0.9779145,-0.0005340576,-0.0004005432,-0.0005340576,-0.43298244,-0.019148832,9.797069,2,1683900814.2104077
-0.042084157,-0.003078589,0.9798557,-0.0005340576,-0.0004005432,-0.0005340576,-0.43298244,-0.019148832,9.797069,2,1683900814.2257993
-0.042084157,-0.003078589,0.9798557,-0.0005340576,-0.0004005432,-0.0005340576,-0.43256053,-0.01944179,9.797087,2,1683900814.2360697
-0.042084157,-0.003078589,0.9798557,0.0005340576,0.000667572,-0.0005340576,-0.43256053,-0.01944179,9.797087,2,1683900814.2513952
-0.042084157,-0.002335481,0.98229736,0.0005340576,0.000667572,-0.0005340576,-0.43256053,-0.01944179,9.797087,2,1683900814.2668207
-0.04672479,-0.0020928339,0.98181206,0.0005340576,0.000667572,-0.0005340576,-0.43256053,-0.01944179,9.797087,2,1683900814.2770753
-0.04672479,-0.0020928339,0.98181206,0.0005340576,0.000667572,-0.0005340576,-0.43279222,-0.019430578,9.797075,2,1683900814.2975578
-0.04672479,-0.0020928339,0.98181206,0.0005340576,0.000667572,-0.0016021729,-0.43279222,-0.019430578,9.797075,2,1683900814.3026917
-0.04672479,-0.0020928339,0.98181206,0.0005340576,0.000667572,-0.0016021729,-0.4327385,-0.019144952,9.797079,2,1683900814.3078249
-0.04305475,0.00180469,0.9842537,0.0005340576,0.000667572,-0.0016021729,-0.4327385,-0.019144952,9.797079,2,1683900814.3181345
-0.04305475,0.00180469,0.9842537,-0.0005340576,-0.0004005432,-0.0005340576,-0.4327385,-0.019144952,9.797079,2,1683900814.3283098
-0.04378269,-0.002335481,0.9810841,-0.0005340576,-0.0004005432,-0.0005340576,-0.4327385,-0.019144952,9.797079,2,1683900814.3641012
-0.04378269,-0.002335481,0.9810841,-0.0005340576,-0.0004005432,-0.0005340576,-0.43308005,-0.01907796,9.797064,2,1683900814.3692336
-0.04378269,-0.002335481,0.9810841,0.0016021729,0.000667572,0.0005340576,-0.43308005,-0.01907796,9.797064,2,1683900814.374367
-0.04305475,-0.0057628755,0.98352575,0.0016021729,0.000667572,0.0005340576,-0.43308005,-0.01907796,9.797064,2,1683900814.3948908
-0.04305475,-0.0057628755,0.98352575,0.0005340576,-0.0004005432,-0.0005340576,-0.43308005,-0.01907796,9.797064,2,1683900814.4000158
-0.04305475,-0.0057628755,0.98352575,0.0005340576,-0.0004005432,-0.0005340576,-0.43302658,-0.019372623,9.797066,2,1683900814.4051504
-0.04402534,-0.0011222442,0.9815694,0.0005340576,-0.0004005432,-0.0005340576,-0.43302658,-0.019372623,9.797066,2,1683900814.4154105
-0.04402534,-0.0011222442,0.9815694,-0.0005340576,-0.0004005432,0.0005340576,-0.43302658,-0.019372623,9.797066,2,1683900814.4410086
-0.04402534,-0.0011222442,0.9815694,-0.0005340576,-0.0004005432,0.0005340576,-0.43370292,-0.019211503,9.797036,2,1683900814.446144
-0.04428315,-0.0033212362,0.9837684,-0.0005340576,-0.0004005432,0.0005340576,-0.43370292,-0.019211503,9.797036,2,1683900814.4563584
-0.04428315,-0.0033212362,0.9837684,-0.0005340576,-0.0004005432,0.0005340576,-0.4326926,-0.020266028,9.797079,2,1683900814.4768937
-0.04428315,-0.0033212362,0.9837684,0.0016021729,-0.0004005432,-0.0005340576,-0.4326926,-0.020266028,9.797079,2,1683900814.4974105
-0.0428121,-0.003078589,0.9827826,0.0016021729,-0.0004005432,-0.0005340576,-0.4326926,-0.020266028,9.797079,2,1683900814.5127997
-0.0428121,-0.003078589,0.9827826,0.0016021729,-0.0004005432,-0.0005340576,-0.4326319,-0.020196615,9.797081,2,1683900814.5179331
-0.0428121,-0.003078589,0.9827826,0.002670288,0.000667572,0.0005340576,-0.4326319,-0.020196615,9.797081,2,1683900814.533329
-0.04525374,-0.000394302,0.98352575,0.002670288,0.000667572,0.0005340576,-0.4326319,-0.020196615,9.797081,2,1683900814.538458
-0.04525374,-0.000394302,0.98352575,0.002670288,0.000667572,0.0005340576,-0.43243727,-0.019362897,9.797092,2,1683900814.5692239
-0.04525374,-0.000394302,0.98352575,0.0005340576,0.000667572,0.0005340576,-0.43243727,-0.019362897,9.797092,2,1683900814.5743537
-0.0428121,-0.002335481,0.9798557,0.0005340576,0.000667572,0.0005340576,-0.43243727,-0.019362897,9.797092,2,1683900814.5948298
-0.0428121,-0.002335481,0.9798557,-0.0005340576,-0.0004005432,0.0005340576,-0.43243727,-0.019362897,9.797092,2,1683900814.6050553
-0.0428121,-0.002335481,0.9798557,-0.0005340576,-0.0004005432,0.0005340576,-0.43229914,-0.019064236,9.797098,2,1683900814.6101797
-0.042569455,-0.0018501864,0.98229736,-0.0005340576,-0.0004005432,0.0005340576,-0.43229914,-0.019064236,9.797098,2,1683900814.6255271
-0.042569455,-0.0018501864,0.98229736,-0.0005340576,-0.0004005432,0.0005340576,-0.4321628,-0.019097438,9.797105,2,1683900814.6357837
-0.043297395,0.0013193953,0.98449636,-0.0005340576,-0.0004005432,0.0005340576,-0.4321628,-0.019097438,9.797105,2,1683900814.6562696
-0.043297395,0.0013193953,0.98449636,-0.0005340576,0.000667572,0.0005340576,-0.4321628,-0.019097438,9.797105,2,1683900814.661401
-0.043297395,0.0013193953,0.98449636,-0.0005340576,0.000667572,0.0005340576,-0.4321379,-0.018944552,9.797105,2,1683900814.67166
-0.043297395,0.0013193953,0.98449636,-0.0005340576,0.000667572,0.0005340576,-0.43216103,-0.018701494,9.797106,2,1683900814.6972997
-0.042326804,-0.0013648917,0.9837684,-0.0005340576,0.000667572,0.0005340576,-0.43216103,-0.018701494,9.797106,2,1683900814.7075577
-0.042326804,-0.0013648917,0.9837684,-0.0005340576,-0.0004005432,0.0005340576,-0.43216103,-0.018701494,9.797106,2,1683900814.727988
-0.042326804,-0.001607539,0.9820547,-0.0005340576,-0.0004005432,0.0005340576,-0.43216103,-0.018701494,9.797106,2,1683900814.738241
-0.042326804,-0.001607539,0.9820547,-0.0005340576,-0.0014686584,0.0005340576,-0.43216103,-0.018701494,9.797106,2,1683900814.7433617
-0.042326804,-0.001607539,0.9820547,-0.0005340576,-0.0014686584,0.0005340576,-0.43144384,-0.01992288,9.797134,2,1683900814.763881
-0.042326804,-0.001607539,0.9820547,0.0016021729,-0.0004005432,0.0005340576,-0.43144384,-0.01992288,9.797134,2,1683900814.784364
-0.041598864,-0.0033212362,0.98254,0.0016021729,-0.0004005432,0.0005340576,-0.43144384,-0.01992288,9.797134,2,1683900814.789496
-0.041598864,-0.0033212362,0.98254,0.0016021729,-0.0004005432,0.0005340576,-0.4312912,-0.020044908,9.797141,2,1683900814.794632
-0.041598864,-0.0033212362,0.98254,0.0016021729,-0.0004005432,0.0005340576,-0.43158093,-0.02031177,9.797129,2,1683900814.8099766
-0.04622433,-0.005505063,0.9798557,0.0016021729,-0.0004005432,0.0005340576,-0.43158093,-0.02031177,9.797129,2,1683900814.8253446
-0.04622433,-0.005505063,0.9798557,0.0005340576,0.000667572,-0.0005340576,-0.43158093,-0.02031177,9.797129,2,1683900814.8304746
-0.04622433,-0.005505063,0.9798557,-0.0005340576,-0.0004005432,0.0005340576,-0.43158093,-0.02031177,9.797129,2,1683900814.9431818
-0.0428121,-0.0008795968,0.97961307,-0.0005340576,-0.0004005432,0.0005340576,-0.43158093,-0.02031177,9.797129,2,1683900814.9585648
-0.0428121,-0.0008795968,0.97961307,-0.0005340576,0.0017356873,-0.0016021729,-0.43158093,-0.02031177,9.797129,2,1683900814.9636955
-0.04305475,-0.004291826,0.9805988,-0.0005340576,0.0017356873,-0.0016021729,-0.43158093,-0.02031177,9.797129,2,1683900814.9688277
-0.04305475,-0.004291826,0.9805988,-0.0005340576,0.0017356873,-0.0016021729,-0.43201515,-0.019523297,9.797111,2,1683900814.9739513
-0.04305475,-0.004291826,0.9805988,-0.0005340576,0.0017356873,-0.0016021729,-0.43213755,-0.019874759,9.797105,2,1683900814.9790893
-0.04305475,-0.004291826,0.9805988,-0.0005340576,0.0017356873,-0.0016021729,-0.43220592,-0.020192962,9.797101,2,1683900814.9893465
-0.043540042,-0.005505063,0.9776567,-0.0005340576,0.0017356873,-0.0016021729,-0.43220592,-0.020192962,9.797101,2,1683900814.994478
-0.043540042,-0.005505063,0.9776567,-0.0005340576,-0.0004005432,0.0005340576,-0.43220592,-0.020192962,9.797101,2,1683900815.0150113
-0.043540042,-0.005505063,0.9776567,-0.0005340576,-0.0004005432,0.0005340576,-0.43312344,-0.021294272,9.797058,2,1683900815.0354621
-0.043297395,-0.0040491787,0.9798557,-0.0005340576,-0.0004005432,0.0005340576,-0.43312344,-0.021294272,9.797058,2,1683900815.045694
-0.0428121,-0.0020928339,0.9793704,-0.0005340576,-0.0004005432,0.0005340576,-0.43312344,-0.021294272,9.797058,2,1683900815.055943
-0.0428121,-0.0020928339,0.9793704,-0.0005340576,-0.0004005432,0.0005340576,-0.43296388,-0.021471888,9.797065,2,1683900815.0661979
-0.0428121,-0.0020928339,0.9793704,-0.0005340576,-0.0014686584,-0.0016021729,-0.43296388,-0.021471888,9.797065,2,1683900815.0712917
-0.0428121,-0.0020928339,0.9793704,-0.0005340576,-0.0014686584,-0.0016021729,-0.43319628,-0.021770032,9.797053,2,1683900815.0918028
-0.042569455,-0.0057628755,0.9837684,-0.0005340576,-0.0014686584,-0.0016021729,-0.43319628,-0.021770032,9.797053,2,1683900815.1020672
-0.042569455,-0.0057628755,0.9837684,0.0005340576,-0.0004005432,0.0016021729,-0.43319628,-0.021770032,9.797053,2,1683900815.1123211
-0.042569455,-0.0057628755,0.9837684,-0.0005340576,0.000667572,0.0005340576,-0.43319628,-0.021770032,9.797053,2,1683900815.1533525
-0.0445258,-0.001607539,0.98084146,-0.0005340576,0.000667572,0.0005340576,-0.43319628,-0.021770032,9.797053,2,1683900815.1584747
-0.0445258,-0.001607539,0.98084146,0.0005340576,-0.0004005432,0.0005340576,-0.43319628,-0.021770032,9.797053,2,1683900815.1841233
-0.0445258,-0.001607539,0.98084146,0.0005340576,-0.0004005432,0.0005340576,-0.43297935,-0.021975089,9.797063,2,1683900815.1892562
-0.045981683,-0.003078589,0.9827826,0.0005340576,-0.0004005432,0.0005340576,-0.43297935,-0.021975089,9.797063,2,1683900815.1943834
-0.045981683,-0.003078589,0.9827826,0.0005340576,-0.0004005432,0.0005340576,-0.4329378,-0.021635221,9.797066,2,1683900815.1995096
-0.04184151,-0.002820776,0.98132676,0.0005340576,-0.0004005432,0.0005340576,-0.4329378,-0.021635221,9.797066,2,1683900815.2251165
-0.04184151,-0.002820776,0.98132676,0.0005340576,-0.0004005432,0.0005340576,-0.4327926,-0.021611644,9.797071,2,1683900815.235335
-0.04184151,-0.002820776,0.98132676,0.0016021729,-0.0004005432,0.0005340576,-0.4327926,-0.021611644,9.797071,2,1683900815.2404182
-0.0445258,-0.002820776,0.980341,0.0016021729,-0.0004005432,0.0005340576,-0.4327926,-0.021611644,9.797071,2,1683900815.26091
-0.0445258,-0.002820776,0.980341,0.0005340576,-0.0004005432,0.0005340576,-0.4327926,-0.021611644,9.797071,2,1683900815.2660382
-0.0445258,-0.002820776,0.980341,0.0005340576,-0.0004005432,0.0005340576,-0.43286514,-0.021318743,9.797069,2,1683900815.2865727
-0.04402534,-0.0020928339,0.98132676,0.0005340576,-0.0004005432,0.0005340576,-0.43286514,-0.021318743,9.797069,2,1683900815.3018906
-0.041098405,-0.003078589,0.98132676,0.0005340576,-0.0004005432,0.0005340576,-0.43286514,-0.021318743,9.797069,2,1683900815.312185
-0.041098405,-0.003078589,0.98132676,-0.0016021729,-0.0004005432,0.0005340576,-0.43286514,-0.021318743,9.797069,2,1683900815.3224425
-0.041098405,-0.003078589,0.98132676,-0.0016021729,-0.0004005432,0.0005340576,-0.43280268,-0.022736905,9.797069,2,1683900815.3275735
-0.041098405,-0.003078589,0.98132676,0.0005340576,-0.0014686584,-0.0005340576,-0.43280268,-0.022736905,9.797069,2,1683900815.3583403
-0.041098405,-0.003078589,0.98132676,0.0005340576,-0.0014686584,-0.0005340576,-0.43271375,-0.02238224,9.797073,2,1683900815.363432
-0.04428315,0.0008341004,0.9837684,0.0005340576,-0.0014686584,-0.0005340576,-0.43271375,-0.02238224,9.797073,2,1683900815.368566
-0.047452733,-0.0011222442,0.9788851,0.0005340576,-0.0014686584,-0.0005340576,-0.43271375,-0.02238224,9.797073,2,1683900815.3891404
-0.047452733,-0.0011222442,0.9788851,0.0005340576,-0.0004005432,-0.0005340576,-0.43271375,-0.02238224,9.797073,2,1683900815.3942354
-0.047452733,-0.0011222442,0.9788851,0.0005340576,-0.0004005432,-0.0005340576,-0.43293142,-0.02215925,9.797065,2,1683900815.3993294
-0.047452733,-0.0011222442,0.9788851,0.0005340576,-0.0004005432,-0.0005340576,-0.4329955,-0.02208311,9.797062,2,1683900815.4250283
-0.042326804,-0.00013648917,0.98621005,0.0005340576,-0.0004005432,-0.0005340576,-0.4329955,-0.02208311,9.797062,2,1683900815.4507275
-0.042326804,-0.00013648917,0.98621005,0.0005340576,-0.0004005432,-0.0005340576,-0.4325703,-0.02165265,9.797081,2,1683900815.455886
-0.042326804,-0.00013648917,0.98621005,0.0005340576,-0.0014686584,-0.0005340576,-0.4325703,-0.02165265,9.797081,2,1683900815.461041
-0.045011092,-0.0060055233,0.9805988,0.0005340576,-0.0014686584,-0.0005340576,-0.4325703,-0.02165265,9.797081,2,1683900815.5123863
-0.045011092,-0.0060055233,0.9805988,0.0005340576,-0.0004005432,-0.0016021729,-0.4325703,-0.02165265,9.797081,2,1683900815.5227041
-0.045011092,-0.0060055233,0.9805988,0.0005340576,-0.0004005432,-0.0016021729,-0.4329763,-0.021979516,9.797062,2,1683900815.5278566
-0.045011092,-0.0060055233,0.9805988,0.0005340576,-0.0004005432,-0.0016021729,-0.43286046,-0.021788098,9.797069,2,1683900815.543289
-0.045011092,-0.0060055233,0.9805988,-0.0005340576,-0.0004005432,0.0016021729,-0.43286046,-0.021788098,9.797069,2,1683900815.558775
-0.04428315,-0.00063694944,0.9849816,-0.0005340576,-0.0004005432,0.0016021729,-0.43286046,-0.021788098,9.797069,2,1683900815.5638988
-0.04428315,-0.00063694944,0.9849816,-0.0005340576,0.000667572,0.0016021729,-0.43286046,-0.021788098,9.797069,2,1683900815.579296
-0.04428315,-0.00063694944,0.9849816,-0.0005340576,0.000667572,0.0016021729,-0.43274802,-0.019582791,9.797078,2,1683900815.5948198
-0.04402534,-0.000394302,0.98401105,-0.0005340576,0.000667572,0.0016021729,-0.43274802,-0.019582791,9.797078,2,1683900815.5999653
-0.04402534,-0.000394302,0.98401105,0.0005340576,-0.0004005432,-0.0005340576,-0.43274802,-0.019582791,9.797078,2,1683900815.6102529
-0.044768445,-0.002820776,0.9842537,0.0005340576,-0.0004005432,-0.0005340576,-0.43274802,-0.019582791,9.797078,2,1683900815.620511
-0.044768445,-0.002820776,0.9842537,0.0005340576,-0.0004005432,-0.0005340576,-0.43299353,-0.019287953,9.797068,2,1683900815.6359441
-0.044768445,-0.002820776,0.9842537,-0.0005340576,-0.0004005432,-0.0005340576,-0.43299353,-0.019287953,9.797068,2,1683900815.6461802
-0.03939987,-0.0025781286,0.98352575,-0.0005340576,-0.0004005432,-0.0005340576,-0.43299353,-0.019287953,9.797068,2,1683900815.6614857
-0.045011092,-0.0033212362,0.980341,-0.0005340576,-0.0004005432,-0.0005340576,-0.43299353,-0.019287953,9.797068,2,1683900815.687156
-0.045011092,-0.0033212362,0.980341,-0.0005340576,-0.0004005432,-0.0005340576,-0.43264222,-0.019805219,9.797082,2,1683900815.7127995
-0.043540042,-0.0035638837,0.98352575,-0.0005340576,-0.0004005432,-0.0005340576,-0.43264222,-0.019805219,9.797082,2,1683900815.733282
-0.043540042,-0.0035638837,0.98352575,-0.0005340576,-0.0004005432,-0.0005340576,-0.43332392,-0.01967666,9.797052,2,1683900815.7486284
-0.043540042,-0.0035638837,0.98352575,-0.0005340576,0.000667572,-0.0005340576,-0.43332392,-0.01967666,9.797052,2,1683900815.7537544
-0.043540042,-0.0035638837,0.98352575,-0.0005340576,-0.0014686584,0.0005340576,-0.43332392,-0.01967666,9.797052,2,1683900815.7640178
-0.043540042,-0.005505063,0.98449636,-0.0005340576,-0.0014686584,0.0005340576,-0.43332392,-0.01967666,9.797052,2,1683900815.7691503
-0.043540042,-0.005505063,0.98449636,-0.0005340576,-0.0014686584,0.0005340576,-0.43325418,-0.019995391,9.797055,2,1683900815.784495
-0.045981683,-0.003078589,0.98449636,-0.0005340576,-0.0014686584,0.0005340576,-0.43325418,-0.019995391,9.797055,2,1683900815.804969
-0.045981683,-0.003078589,0.98449636,-0.0005340576,-0.0014686584,0.0005340576,-0.43343326,-0.02061472,9.797046,2,1683900815.8203125
-0.045981683,-0.003078589,0.98449636,0.0005340576,0.0017356873,0.0005340576,-0.43343326,-0.02061472,9.797046,2,1683900815.8357089
-0.045981683,-0.003078589,0.98449636,-0.0005340576,0.000667572,0.0016021729,-0.43343326,-0.02061472,9.797046,2,1683900815.840804
-0.045981683,-0.003078589,0.98449636,-0.0005340576,0.000667572,0.0016021729,-0.43383232,-0.019871913,9.7970295,2,1683900815.856197
-0.044768445,-0.005505063,0.98473895,-0.0005340576,0.000667572,0.0016021729,-0.43383232,-0.019871913,9.7970295,2,1683900815.861334
-0.044768445,-0.005505063,0.98473895,-0.0005340576,0.000667572,-0.0016021729,-0.43383232,-0.019871913,9.7970295,2,1683900815.8664687
-0.0445258,-0.0008795968,0.9876659,-0.0005340576,0.000667572,-0.0016021729,-0.43383232,-0.019871913,9.7970295,2,1683900815.8921022
-0.0445258,-0.0008795968,0.9876659,-0.0005340576,0.000667572,-0.0016021729,-0.4335506,-0.02017277,9.797042,2,1683900815.897232
-0.0445258,-0.0008795968,0.9876659,0.0016021729,0.0017356873,0.0005340576,-0.4335506,-0.02017277,9.797042,2,1683900815.9023612
-0.04428315,-0.00013648917,0.9815694,0.0016021729,0.0017356873,0.0005340576,-0.4335506,-0.02017277,9.797042,2,1683900815.9228067
-0.04428315,-0.00013648917,0.9815694,0.0016021729,0.0017356873,0.0005340576,-0.4338959,-0.020010067,9.797027,2,1683900815.933072
-0.04428315,-0.00013648917,0.9815694,-0.0005340576,0.000667572,0.0005340576,-0.4338959,-0.020010067,9.797027,2,1683900815.9432952
-0.04428315,-0.00013648917,0.9815694,-0.0005340576,0.0017356873,-0.0005340576,-0.4338959,-0.020010067,9.797027,2,1683900815.9893992
-0.040613107,-0.0008795968,0.9820547,-0.0005340576,0.0017356873,-0.0005340576,-0.4338959,-0.020010067,9.797027,2,1683900815.99453
-0.040613107,-0.0008795968,0.9820547,-0.0005340576,0.0017356873,-0.0005340576,-0.4334825,-0.01974227,9.797045,2,1683900816.0099337
-0.042084157,-0.0018501864,0.9805988,-0.0005340576,0.0017356873,-0.0005340576,-0.4334825,-0.01974227,9.797045,2,1683900816.0201333
-0.042084157,-0.0018501864,0.9805988,-0.0005340576,0.0017356873,-0.0005340576,-0.4334951,-0.019719291,9.797045,2,1683900816.030396
-0.043540042,-0.00013648917,0.98449636,-0.0005340576,0.0017356873,-0.0005340576,-0.4334951,-0.019719291,9.797045,2,1683900816.0458136
-0.043540042,-0.00013648917,0.98449636,-0.0005340576,0.0017356873,-0.0005340576,-0.43347508,-0.019541694,9.797046,2,1683900816.0713894
-0.043540042,-0.00013648917,0.98449636,0.0005340576,-0.0004005432,-0.0005340576,-0.43347508,-0.019541694,9.797046,2,1683900816.0765269
-0.0428121,-0.002820776,0.98522425,0.0005340576,-0.0004005432,-0.0005340576,-0.43347508,-0.019541694,9.797046,2,1683900816.0867932
-0.0428121,-0.002820776,0.98522425,0.0005340576,-0.0004005432,-0.0005340576,-0.43326443,-0.01952278,9.797054,2,1683900816.1072738
-0.0428121,-0.002820776,0.98522425,0.0005340576,-0.0004005432,-0.0005340576,-0.43341827,-0.019649902,9.797049,2,1683900816.1329112
-0.0428121,-0.002820776,0.98522425,0.0005340576,0.000667572,0.0005340576,-0.43341827,-0.019649902,9.797049,2,1683900816.1380377
-0.0428121,-0.002820776,0.98522425,0.0005340576,-0.0004005432,0.0005340576,-0.43341827,-0.019649902,9.797049,2,1683900816.1585772
-0.04622433,-0.0038065312,0.98254,0.0005340576,-0.0004005432,0.0005340576,-0.43341827,-0.019649902,9.797049,2,1683900816.1637058
-0.04622433,-0.0038065312,0.98254,0.0005340576,-0.0004005432,0.0005340576,-0.43485117,-0.019250186,9.796985,2,1683900816.1688364
-0.04622433,-0.0038065312,0.98254,-0.0016021729,-0.0004005432,-0.0005340576,-0.43485117,-0.019250186,9.796985,2,1683900816.1842198
-0.042569455,-0.0035638837,0.9810841,-0.0016021729,-0.0004005432,-0.0005340576,-0.43485117,-0.019250186,9.796985,2,1683900816.1893518
-0.042569455,-0.0035638837,0.9810841,-0.0016021729,-0.0004005432,-0.0005340576,-0.43498063,-0.019413376,9.79698,2,1683900816.1995995
-0.042569455,-0.0035638837,0.9810841,0.0016021729,0.000667572,0.0005340576,-0.43498063,-0.019413376,9.79698,2,1683900816.2201142
-0.04402534,-0.003078589,0.98254,0.0016021729,0.000667572,0.0005340576,-0.43498063,-0.019413376,9.79698,2,1683900816.2252462
-0.04402534,-0.003078589,0.98254,0.0016021729,0.000667572,0.0005340576,-0.4350479,-0.01942788,9.796976,2,1683900816.2303765
-0.04402534,-0.003078589,0.98254,0.0005340576,-0.0004005432,-0.0016021729,-0.4350479,-0.01942788,9.796976,2,1683900816.24576
-0.04402534,-0.003078589,0.98254,0.0005340576,-0.0004005432,-0.0016021729,-0.43496996,-0.01950792,9.79698,2,1683900816.2508893
-0.042569455,-0.0025781286,0.98304045,0.0005340576,-0.0004005432,-0.0016021729,-0.43496996,-0.01950792,9.79698,2,1683900816.2662497
-0.042569455,-0.0025781286,0.98304045,0.0005340576,-0.0004005432,-0.0016021729,-0.43494046,-0.019338049,9.796981,2,1683900816.2969577
-0.04402534,0.0025477977,0.98254,0.0005340576,-0.0004005432,-0.0016021729,-0.43494046,-0.019338049,9.796981,2,1683900816.302089
-0.04402534,0.0025477977,0.98254,-0.0005340576,-0.0004005432,0.0005340576,-0.43494046,-0.019338049,9.796981,2,1683900816.307195
-0.04402534,0.0025477977,0.98254,0.0005340576,-0.0004005432,-0.0005340576,-0.43494046,-0.019338049,9.796981,2,1683900816.3276772
-0.04402534,0.0025477977,0.98254,0.0005340576,-0.0004005432,-0.0005340576,-0.43478632,-0.019494452,9.796988,2,1683900816.3327982
-0.042569455,-0.003078589,0.9810841,0.0005340576,-0.0004005432,-0.0005340576,-0.43478632,-0.019494452,9.796988,2,1683900816.3430154
-0.045011092,-0.000394302,0.9849816,0.0005340576,-0.0004005432,-0.0005340576,-0.43478632,-0.019494452,9.796988,2,1683900816.3532708
-0.045011092,-0.000394302,0.9849816,-0.0005340576,-0.0004005432,-0.0005340576,-0.43478632,-0.019494452,9.796988,2,1683900816.363525
-0.045011092,-0.000394302,0.9849816,-0.0005340576,-0.0004005432,-0.0005340576,-0.43496466,-0.019375606,9.79698,2,1683900816.3789318
-0.045011092,-0.000394302,0.9849816,-0.0005340576,-0.0014686584,-0.0005340576,-0.43496466,-0.019375606,9.79698,2,1683900816.394326
-0.04402534,-0.001607539,0.98181206,-0.0005340576,-0.0014686584,-0.0005340576,-0.43496466,-0.019375606,9.79698,2,1683900816.3994472
-0.04402534,-0.001607539,0.98181206,-0.0005340576,-0.0014686584,-0.0005340576,-0.43493155,-0.019375045,9.796982,2,1683900816.4097056
-0.045739036,-0.0020928339,0.98132676,-0.0005340576,-0.0014686584,-0.0005340576,-0.43493155,-0.019375045,9.796982,2,1683900816.4507203
-0.045739036,-0.0020928339,0.98132676,0.0005340576,0.000667572,-0.0016021729,-0.43493155,-0.019375045,9.796982,2,1683900816.455856
-0.040613107,-0.0067334655,0.98401105,0.0005340576,0.000667572,-0.0016021729,-0.43493155,-0.019375045,9.796982,2,1683900816.4609911
-0.040613107,-0.0067334655,0.98401105,-0.0005340576,0.000667572,0.0005340576,-0.43493155,-0.019375045,9.796982,2,1683900816.4661207
-0.040613107,-0.0067334655,0.98401105,-0.0005340576,0.000667572,0.0005340576,-0.43454012,-0.01959547,9.796998,2,1683900816.4711938
-0.040613107,-0.0067334655,0.98401105,-0.0005340576,0.000667572,0.0005340576,-0.43431884,-0.019735042,9.797008,2,1683900816.4865503
-0.041098405,-0.0033212362,0.98181206,-0.0005340576,0.000667572,0.0005340576,-0.43431884,-0.019735042,9.797008,2,1683900816.4968069
-0.041098405,-0.0033212362,0.98181206,-0.0005340576,-0.0004005432,-0.0005340576,-0.43431884,-0.019735042,9.797008,2,1683900816.5070686
-0.042084157,-0.0020928339,0.9832831,-0.0005340576,-0.0004005432,-0.0005340576,-0.43431884,-0.019735042,9.797008,2,1683900816.5224485
-0.042084157,-0.0020928339,0.9832831,-0.0005340576,-0.0004005432,-0.0005340576,-0.43421245,-0.019939838,9.797012,2,1683900816.5275776
-0.042084157,-0.0020928339,0.9832831,0.0016021729,0.000667572,0.0005340576,-0.43421245,-0.019939838,9.797012,2,1683900816.5327106
-0.042084157,-0.0020928339,0.9832831,-0.0005340576,0.000667572,-0.0005340576,-0.43421245,-0.019939838,9.797012,2,1683900816.542929
-0.045011092,-0.0011222442,0.9810841,-0.0005340576,0.000667572,-0.0005340576,-0.43421245,-0.019939838,9.797012,2,1683900816.5634432
-0.045011092,-0.0011222442,0.9810841,-0.0005340576,0.000667572,-0.0005340576,-0.43437248,-0.0198941,9.797005,2,1683900816.5685718
-0.045011092,-0.0011222442,0.9810841,-0.0005340576,0.000667572,-0.0005340576,-0.43442932,-0.019549599,9.797004,2,1683900816.5788345
-0.045011092,-0.0011222442,0.9810841,0.0005340576,-0.0004005432,0.0005340576,-0.43442932,-0.019549599,9.797004,2,1683900816.5839257
-0.045981683,-0.0013648917,0.9827826,0.0005340576,-0.0004005432,0.0005340576,-0.43442932,-0.019549599,9.797004,2,1683900816.5941863
-0.04378269,-0.0011222442,0.98352575,0.0005340576,-0.0004005432,0.0005340576,-0.43442932,-0.019549599,9.797004,2,1683900816.6248734
-0.04378269,-0.0011222442,0.98352575,0.0005340576,-0.0004005432,0.0005340576,-0.43424693,-0.019367259,9.797011,2,1683900816.6402614
-0.04378269,-0.0011222442,0.98352575,-0.0005340576,-0.0004005432,0.0005340576,-0.43424693,-0.019367259,9.797011,2,1683900816.6607437
-0.04378269,-0.0011222442,0.98352575,-0.0005340576,-0.0004005432,0.0005340576,-0.4340274,-0.019344032,9.797022,2,1683900816.686266
-0.04378269,-0.0011222442,0.98352575,-0.0005340576,-0.0004005432,0.0005340576,-0.4351444,-0.019074712,9.796973,2,1683900816.6964455
-0.046466976,-0.0033212362,0.9842537,-0.0005340576,-0.0004005432,0.0005340576,-0.4351444,-0.019074712,9.796973,2,1683900816.7117937
-0.046466976,-0.0033212362,0.9842537,-0.0005340576,-0.0004005432,0.0005340576,-0.43562037,-0.019548742,9.79695,2,1683900816.7322934
-0.046466976,-0.0033212362,0.9842537,0.0005340576,-0.0004005432,0.0005340576,-0.43562037,-0.019548742,9.79695,2,1683900816.7374253
-0.046466976,-0.0033212362,0.9842537,-0.0005340576,0.000667572,0.0005340576,-0.43562037,-0.019548742,9.79695,2,1683900816.7579458
-0.04428315,-0.0020928339,0.9810841,-0.0005340576,0.000667572,0.0005340576,-0.43562037,-0.019548742,9.79695,2,1683900816.763076
-0.04428315,-0.0020928339,0.9810841,-0.0005340576,0.000667572,0.0005340576,-0.435708,-0.019585177,9.796947,2,1683900816.773337
-0.042326804,-0.002335481,0.980341,-0.0005340576,0.000667572,0.0005340576,-0.435708,-0.019585177,9.796947,2,1683900816.778469
-0.042326804,-0.002335481,0.980341,-0.0005340576,0.000667572,0.0005340576,-0.43553755,-0.019920832,9.796953,2,1683900816.7835984
-0.042326804,-0.002335481,0.980341,0.0005340576,-0.0004005432,0.0005340576,-0.43553755,-0.019920832,9.796953,2,1683900816.798986
-0.042326804,-0.002335481,0.980341,0.0005340576,-0.0014686584,0.0005340576,-0.43553755,-0.019920832,9.796953,2,1683900816.8194547
-0.042569455,-0.000394302,0.98181206,0.0005340576,-0.0014686584,0.0005340576,-0.43553755,-0.019920832,9.796953,2,1683900816.8245504
-0.042569455,-0.000394302,0.98181206,0.0005340576,-0.0014686584,0.0005340576,-0.43545943,-0.019833153,9.796957,2,1683900816.8399384
-0.0445258,-0.0025781286,0.980341,0.0005340576,-0.0014686584,0.0005340576,-0.43545943,-0.019833153,9.796957,2,1683900816.8501997
-0.0445258,-0.0025781286,0.980341,-0.0005340576,-0.0004005432,0.0016021729,-0.43545943,-0.019833153,9.796957,2,1683900816.8655493
-0.0445258,-0.0025781286,0.980341,-0.0005340576,-0.0004005432,0.0016021729,-0.4355196,-0.019905487,9.796954,2,1683900816.8758073
-0.0445258,-0.0025781286,0.980341,-0.0005340576,-0.0004005432,0.0016021729,-0.43546435,-0.019679252,9.796957,2,1683900816.8963087
-0.045739036,-0.000394302,0.98181206,-0.0005340576,-0.0004005432,0.0016021729,-0.43546435,-0.019679252,9.796957,2,1683900816.9014428
-0.045739036,-0.000394302,0.98181206,-0.0005340576,-0.0004005432,-0.0005340576,-0.43546435,-0.019679252,9.796957,2,1683900816.906576
-0.045739036,-0.000394302,0.98181206,-0.0005340576,-0.0004005432,-0.0005340576,-0.43562007,-0.0195745,9.79695,2,1683900816.94757
-0.04378269,0.00010615824,0.9820547,-0.0005340576,-0.0004005432,-0.0005340576,-0.43562007,-0.0195745,9.79695,2,1683900816.9680767
-0.04378269,0.00010615824,0.9820547,0.0016021729,0.0017356873,-0.0005340576,-0.43562007,-0.0195745,9.79695,2,1683900816.9732094
-0.041598864,-0.002820776,0.9859674,0.0016021729,0.0017356873,-0.0005340576,-0.43562007,-0.0195745,9.79695,2,1683900816.9886024
-0.041598864,-0.002820776,0.9859674,0.0016021729,0.0017356873,-0.0005340576,-0.43532628,-0.018919494,9.796965,2,1683900816.993736
-0.041598864,-0.002820776,0.9859674,-0.0005340576,-0.0004005432,0.0005340576,-0.43532628,-0.018919494,9.796965,2,1683900817.0091171
-0.048180673,-0.0052624154,0.9798557,-0.0005340576,-0.0004005432,0.0005340576,-0.43532628,-0.018919494,9.796965,2,1683900817.0142512
-0.048180673,-0.0052624154,0.9798557,-0.0005340576,-0.0004005432,0.0005340576,-0.43596777,-0.019183984,9.796936,2,1683900817.024463
-0.043297395,-0.002820776,0.98181206,-0.0005340576,-0.0004005432,0.0005340576,-0.43596777,-0.019183984,9.796936,2,1683900817.0808187
-0.043297395,-0.002820776,0.98181206,-0.0005340576,-0.0004005432,0.0005340576,-0.4356965,-0.019349571,9.7969475,2,1683900817.085949
-0.043297395,-0.002820776,0.98181206,-0.0005340576,-0.0004005432,-0.0005340576,-0.4356965,-0.019349571,9.7969475,2,1683900817.091078
-0.043297395,-0.002820776,0.98181206,0.0005340576,-0.0004005432,-0.0005340576,-0.4356965,-0.019349571,9.7969475,2,1683900817.1320355
-0.043297395,-0.002820776,0.98181206,0.0005340576,-0.0004005432,-0.0005340576,-0.4355927,-0.01942591,9.796952,2,1683900817.1371763
-0.04378269,-0.004291826,0.9837684,0.0005340576,-0.0004005432,-0.0005340576,-0.4355927,-0.01942591,9.796952,2,1683900817.1423056
-0.04525374,-0.0008795968,0.98181206,0.0005340576,-0.0004005432,-0.0005340576,-0.4355927,-0.01942591,9.796952,2,1683900817.1525576
-0.04525374,-0.0008795968,0.98181206,0.0005340576,-0.0004005432,-0.0005340576,-0.43559495,-0.01944778,9.796952,2,1683900817.1781583
-0.04305475,-0.0008795968,0.9805988,0.0005340576,-0.0004005432,-0.0005340576,-0.43559495,-0.01944778,9.796952,2,1683900817.198629
-0.04305475,-0.0008795968,0.9805988,0.0005340576,-0.0004005432,-0.0005340576,-0.43575174,-0.019310035,9.796945,2,1683900817.203764
-0.04305475,-0.0008795968,0.9805988,-0.0016021729,0.000667572,0.0005340576,-0.43575174,-0.019310035,9.796945,2,1683900817.2088947
-0.04305475,-0.0008795968,0.9805988,-0.0016021729,0.000667572,0.0005340576,-0.43573874,-0.01919741,9.796947,2,1683900817.2242472
-0.04305475,-0.0008795968,0.9805988,0.0005340576,0.000667572,-0.0005340576,-0.43573874,-0.01919741,9.796947,2,1683900817.234512
-0.045981683,0.00034880562,0.9832831,0.0005340576,0.000667572,-0.0005340576,-0.43573874,-0.01919741,9.796947,2,1683900817.2498956
-0.045981683,0.00034880562,0.9832831,0.0016021729,0.000667572,0.0005340576,-0.43573874,-0.01919741,9.796947,2,1683900817.2550263
-0.045981683,0.00034880562,0.9832831,0.0016021729,0.000667572,0.0005340576,-0.43529078,-0.01992255,9.796965,2,1683900817.2754977
-0.044768445,-0.0013648917,0.98229736,0.0016021729,0.000667572,0.0005340576,-0.43529078,-0.01992255,9.796965,2,1683900817.2959363
-0.044768445,-0.0013648917,0.98229736,0.0016021729,0.000667572,0.0005340576,-0.43504757,-0.019762734,9.796975,2,1683900817.301064
-0.044768445,-0.0013648917,0.98229736,0.0005340576,-0.0014686584,-0.0005340576,-0.43504757,-0.019762734,9.796975,2,1683900817.32154
-0.044768445,-0.0013648917,0.98229736,0.0005340576,-0.0014686584,-0.0005340576,-0.4350068,-0.019611334,9.796977,2,1683900817.3266742
-0.04305475,-0.0013648917,0.98229736,0.0005340576,-0.0014686584,-0.0005340576,-0.4350068,-0.019611334,9.796977,2,1683900817.331805
-0.04305475,-0.0013648917,0.98229736,0.0005340576,-0.0014686584,-0.0005340576,-0.43469906,-0.019158661,9.796993,2,1683900817.3522565
-0.042569455,0.00180469,0.9832831,0.0005340576,-0.0014686584,-0.0005340576,-0.43469906,-0.019158661,9.796993,2,1683900817.362477
-0.042569455,0.00180469,0.9832831,0.0005340576,-0.0004005432,-0.0005340576,-0.43469906,-0.019158661,9.796993,2,1683900817.3676083
-0.043540042,-0.0033212362,0.9815694,0.0005340576,-0.0004005432,-0.0005340576,-0.43469906,-0.019158661,9.796993,2,1683900817.3983443
-0.043540042,-0.0033212362,0.9815694,0.0005340576,-0.0004005432,0.0005340576,-0.43469906,-0.019158661,9.796993,2,1683900817.4034703
-0.043540042,-0.0033212362,0.9815694,0.0005340576,-0.0004005432,0.0005340576,-0.43469205,-0.019166268,9.796993,2,1683900817.4137535
-0.043540042,-0.0033212362,0.9815694,0.0005340576,-0.0004005432,0.0016021729,-0.43469205,-0.019166268,9.796993,2,1683900817.4240203
-0.038914576,-0.0057628755,0.98401105,0.0005340576,-0.0004005432,0.0016021729,-0.43469205,-0.019166268,9.796993,2,1683900817.4393737
-0.038914576,-0.0057628755,0.98401105,0.0005340576,-0.0004005432,0.0016021729,-0.43422246,-0.01951691,9.797013,2,1683900817.4444978
-0.0445258,-0.0018501864,0.9827826,0.0005340576,-0.0004005432,0.0016021729,-0.43422246,-0.01951691,9.797013,2,1683900817.4547184
-0.0445258,-0.0018501864,0.9827826,0.0005340576,-0.0004005432,0.0016021729,-0.43439755,-0.01972215,9.797004,2,1683900817.4701123
-0.0445258,-0.0018501864,0.9827826,-0.0005340576,-0.0004005432,0.0005340576,-0.43439755,-0.01972215,9.797004,2,1683900817.4803233
-0.045011092,-0.005019768,0.9827826,-0.0005340576,-0.0004005432,0.0005340576,-0.43439755,-0.01972215,9.797004,2,1683900817.4854536
-0.045011092,-0.005019768,0.9827826,0.0005340576,0.000667572,0.0005340576,-0.43439755,-0.01972215,9.797004,2,1683900817.5110986
-0.045011092,-0.005019768,0.9827826,0.0005340576,0.000667572,0.0005340576,-0.4345498,-0.019948311,9.796997,2,1683900817.516229
-0.045011092,-0.005019768,0.9827826,0.0005340576,0.000667572,0.0005340576,-0.433034,-0.018099312,9.797068,2,1683900817.536747
-0.045011092,-0.0033212362,0.9810841,0.0005340576,0.000667572,0.0005340576,-0.433034,-0.018099312,9.797068,2,1683900817.541878
-0.045011092,-0.0033212362,0.9810841,-0.0005340576,-0.0004005432,-0.0005340576,-0.433034,-0.018099312,9.797068,2,1683900817.5675545
-0.045011092,-0.0033212362,0.9810841,-0.0005340576,-0.0004005432,0.0016021729,-0.433034,-0.018099312,9.797068,2,1683900817.5726912
-0.045011092,-0.0033212362,0.9810841,-0.0005340576,-0.0004005432,0.0016021729,-0.433033,-0.01818048,9.797068,2,1683900817.5880752
-0.04428315,-0.0008795968,0.98084146,-0.0005340576,-0.0004005432,0.0016021729,-0.433033,-0.01818048,9.797068,2,1683900817.5983355
-0.04305475,-0.004534473,0.9827826,-0.0005340576,-0.0004005432,0.0016021729,-0.433033,-0.01818048,9.797068,2,1683900817.613729
-0.04305475,-0.004534473,0.9827826,-0.0005340576,-0.0004005432,0.0016021729,-0.43310305,-0.018422281,9.797064,2,1683900817.629072
-0.04305475,-0.004534473,0.9827826,0.0005340576,0.000667572,0.0005340576,-0.43310305,-0.018422281,9.797064,2,1683900817.6342006
-0.04378269,-0.0040491787,0.9815694,0.0005340576,0.000667572,0.0005340576,-0.43310305,-0.018422281,9.797064,2,1683900817.6444216
-0.04378269,-0.0040491787,0.9815694,0.0005340576,-0.0004005432,-0.0005340576,-0.43310305,-0.018422281,9.797064,2,1683900817.6648912
-0.04378269,-0.0040491787,0.9815694,0.0005340576,-0.0004005432,-0.0005340576,-0.43311736,-0.018580742,9.797064,2,1683900817.6751485
-0.04305475,-0.003078589,0.9832831,0.0005340576,-0.0004005432,-0.0005340576,-0.43311736,-0.018580742,9.797064,2,1683900817.690534
-0.04305475,-0.003078589,0.9832831,0.0005340576,-0.0004005432,-0.0005340576,-0.43326226,-0.018337065,9.797058,2,1683900817.6956635
-0.04305475,-0.003078589,0.9832831,-0.0005340576,-0.0004005432,-0.0005340576,-0.43326226,-0.018337065,9.797058,2,1683900817.7059162
-0.04305475,-0.003078589,0.9832831,0.0005340576,-0.0004005432,0.0005340576,-0.43326226,-0.018337065,9.797058,2,1683900817.7571337
-0.042084157,0.00034880562,0.98229736,0.0005340576,-0.0004005432,0.0005340576,-0.43326226,-0.018337065,9.797058,2,1683900817.7673504
-0.042084157,0.00034880562,0.98229736,0.0005340576,0.000667572,-0.0005340576,-0.43326226,-0.018337065,9.797058,2,1683900817.7827342
-0.041598864,0.0013193953,0.9820547,0.0005340576,0.000667572,-0.0005340576,-0.43326226,-0.018337065,9.797058,2,1683900817.787864
-0.041598864,0.0013193953,0.9820547,0.0005340576,0.000667572,-0.0005340576,-0.43307,-0.018098138,9.797067,2,1683900817.792993
-0.041598864,0.0013193953,0.9820547,0.0005340576,0.000667572,-0.0005340576,-0.43285254,-0.01801913,9.797075,2,1683900817.8134732
-0.0428121,-0.002820776,0.98254,0.0005340576,0.000667572,-0.0005340576,-0.43285254,-0.01801913,9.797075,2,1683900817.8390837
-0.0428121,-0.002820776,0.98254,0.0005340576,0.000667572,-0.0005340576,-0.43305185,-0.018157521,9.797068,2,1683900817.8493388
-0.0428121,-0.002820776,0.98254,-0.0005340576,-0.0004005432,0.0005340576,-0.43305185,-0.018157521,9.797068,2,1683900817.8698123
-0.0428121,-0.002820776,0.98254,-0.0005340576,-0.0004005432,0.0005340576,-0.43286726,-0.01821761,9.797075,2,1683900817.874941
-0.045011092,-0.002820776,0.98229736,-0.0005340576,-0.0004005432,0.0005340576,-0.43286726,-0.01821761,9.797075,2,1683900817.8851988
-0.045011092,-0.002820776,0.98229736,-0.0005340576,-0.0004005432,0.0016021729,-0.43286726,-0.01821761,9.797075,2,1683900817.9057076
-0.0428121,-0.0035638837,0.97961307,-0.0005340576,-0.0004005432,0.0016021729,-0.43286726,-0.01821761,9.797075,2,1683900817.9365492
-0.0428121,-0.0035638837,0.97961307,-0.0005340576,-0.0004005432,0.0016021729,-0.43236586,-0.01783594,9.797098,2,1683900817.9416645
-0.0428121,-0.0035638837,0.97961307,0.0005340576,-0.0004005432,-0.0005340576,-0.43236586,-0.01783594,9.797098,2,1683900817.9671907
-0.0428121,-0.0035638837,0.97961307,0.0005340576,0.000667572,0.0005340576,-0.43236586,-0.01783594,9.797098,2,1683900817.9774468
-0.0428121,-0.0035638837,0.97961307,0.0005340576,0.000667572,0.0005340576,-0.432473,-0.017675387,9.797092,2,1683900817.9825418
-0.043297395,0.00010615824,0.98254,0.0005340576,0.000667572,0.0005340576,-0.432473,-0.017675387,9.797092,2,1683900817.9927666
-0.043297395,0.00010615824,0.98254,-0.0005340576,0.0017356873,-0.0005340576,-0.432473,-0.017675387,9.797092,2,1683900818.0030334
-0.043297395,0.00010615824,0.98254,-0.0005340576,0.0017356873,-0.0005340576,-0.43267158,-0.017364021,9.797085,2,1683900818.0132916
-0.044768445,0.0022899848,0.98304045,-0.0005340576,0.0017356873,-0.0005340576,-0.43267158,-0.017364021,9.797085,2,1683900818.0184245
-0.044768445,0.0022899848,0.98304045,0.0005340576,-0.0014686584,0.0005340576,-0.43267158,-0.017364021,9.797085,2,1683900818.0388718
-0.040613107,-0.003078589,0.98304045,0.0005340576,-0.0014686584,0.0005340576,-0.43267158,-0.017364021,9.797085,2,1683900818.0542583
-0.040613107,-0.003078589,0.98304045,0.0005340576,-0.0014686584,0.0005340576,-0.43230015,-0.01767994,9.797101,2,1683900818.0593863
-0.040613107,-0.003078589,0.98304045,-0.0016021729,0.0038719177,-0.0005340576,-0.43230015,-0.01767994,9.797101,2,1683900818.0901394
-0.040613107,-0.003078589,0.98304045,-0.0016021729,0.0038719177,-0.0005340576,-0.4332052,-0.015501424,9.797065,2,1683900818.1003659
-0.040613107,-0.003078589,0.98304045,-0.0016021729,0.0038719177,-0.0005340576,-0.43329936,-0.01721848,9.797057,2,1683900818.110623
-0.040613107,-0.003078589,0.98304045,-0.0005340576,-0.0025367737,0.0005340576,-0.43329936,-0.01721848,9.797057,2,1683900818.1259723
-0.04305475,-0.00721876,0.98401105,-0.0005340576,-0.0025367737,0.0005340576,-0.43329936,-0.01721848,9.797057,2,1683900818.1361995
-0.04305475,-0.00721876,0.98401105,-0.0005340576,-0.0025367737,0.0005340576,-0.4330155,-0.01744601,9.79707,2,1683900818.1516197
-0.04305475,-0.00721876,0.98401105,-0.0016021729,-0.004673004,0.0016021729,-0.4330155,-0.01744601,9.79707,2,1683900818.1567457
-0.042569455,-0.0035638837,0.9783998,-0.0016021729,-0.004673004,0.0016021729,-0.4330155,-0.01744601,9.79707,2,1683900818.1670065
-0.042569455,-0.0035638837,0.9783998,0.0016021729,0.004940033,-0.0005340576,-0.4330155,-0.01744601,9.79707,2,1683900818.177266
-0.042569455,-0.0035638837,0.9783998,0.0016021729,0.004940033,-0.0005340576,-0.43343708,-0.017717768,9.79705,2,1683900818.1875129
-0.049409077,-0.005019768,0.9798557,0.0016021729,0.004940033,-0.0005340576,-0.43343708,-0.017717768,9.79705,2,1683900818.197771
-0.049409077,-0.005019768,0.9798557,0.0016021729,-0.0014686584,0.0005340576,-0.43343708,-0.017717768,9.79705,2,1683900818.2439349
-0.049409077,-0.005019768,0.9798557,0.0016021729,-0.0014686584,0.0005340576,-0.4342457,-0.017849455,9.797015,2,1683900818.2541955
-0.04549639,-0.0011222442,0.9779145,0.0016021729,-0.0014686584,0.0005340576,-0.4342457,-0.017849455,9.797015,2,1683900818.2592835
-0.04549639,-0.0011222442,0.9779145,0.0005340576,0.0028038025,-0.0005340576,-0.4342457,-0.017849455,9.797015,2,1683900818.3208354
-0.04549639,-0.0011222442,0.9779145,0.0016021729,-0.0014686584,0.0005340576,-0.4342457,-0.017849455,9.797015,2,1683900818.3259668
-0.04549639,-0.0011222442,0.9779145,0.0016021729,-0.0014686584,0.0005340576,-0.43478858,-0.016542047,9.796992,2,1683900818.34136
-0.04549639,-0.0011222442,0.9779145,0.0016021729,-0.0014686584,0.0005340576,-0.4342457,-0.017849455,9.797015,2,1683900818.3567412
-0.043297395,0.0013193953,0.9837684,0.0016021729,-0.0014686584,0.0005340576,-0.4342457,-0.017849455,9.797015,2,1683900818.377255
-0.043297395,0.0013193953,0.9837684,0.0005340576,0.000667572,0.0005340576,-0.4342457,-0.017849455,9.797015,2,1683900818.3823872
-0.043297395,0.0013193953,0.9837684,-0.0005340576,-0.0014686584,0.0005340576,-0.4342457,-0.017849455,9.797015,2,1683900818.4080312
-0.04305475,-0.0062481705,0.97815716,-0.0005340576,-0.0014686584,0.0005340576,-0.4342457,-0.017849455,9.797015,2,1683900818.4131932
-0.04305475,-0.0062481705,0.97815716,-0.0005340576,-0.0014686584,0.0005340576,-0.43490398,-0.015358369,9.79699,2,1683900818.4183235
-0.04305475,-0.0062481705,0.97815716,-0.0005340576,-0.0014686584,0.0005340576,-0.43496463,-0.014870234,9.7969885,2,1683900818.4234169
-0.043540042,-0.0064908178,0.98084146,-0.0005340576,-0.0014686584,0.0005340576,-0.43496463,-0.014870234,9.7969885,2,1683900818.4387605
-0.043540042,-0.0064908178,0.98084146,-0.0005340576,-0.0004005432,0.0016021729,-0.43496463,-0.014870234,9.7969885,2,1683900818.4438975
-0.043540042,-0.0064908178,0.98084146,-0.0005340576,-0.0004005432,0.0016021729,-0.43488577,-0.015792476,9.796989,2,1683900818.464312
-0.043540042,-0.0064908178,0.98084146,0.0005340576,0.000667572,0.0005340576,-0.43488577,-0.015792476,9.796989,2,1683900818.479673
-0.041598864,0.0025477977,0.9783998,0.0005340576,0.000667572,0.0005340576,-0.43488577,-0.015792476,9.796989,2,1683900818.4950593
-0.041598864,0.0025477977,0.9783998,0.0005340576,0.000667572,0.0005340576,-0.4347829,-0.016102538,9.796994,2,1683900818.5001907
-0.04134105,0.00010615824,0.98449636,0.0005340576,0.000667572,0.0005340576,-0.4347829,-0.016102538,9.796994,2,1683900818.5412378
-0.04134105,0.00010615824,0.98449636,-0.0005340576,-0.0014686584,0.0005340576,-0.4347829,-0.016102538,9.796994,2,1683900818.5514848
-0.04134105,0.00010615824,0.98449636,-0.0005340576,-0.0014686584,0.0005340576,-0.43449613,-0.0152538605,9.797008,2,1683900818.556607
-0.04134105,0.00010615824,0.98449636,-0.0005340576,-0.0014686584,0.0005340576,-0.4338679,-0.015032467,9.797036,2,1683900818.577056
-0.038656764,0.00180469,0.9798557,-0.0005340576,-0.0014686584,0.0005340576,-0.4338679,-0.015032467,9.797036,2,1683900818.5923934
-0.041598864,-0.0018501864,0.9832831,-0.0005340576,-0.0014686584,0.0005340576,-0.4338679,-0.015032467,9.797036,2,1683900818.623155
-0.041598864,-0.0018501864,0.9832831,-0.0016021729,-0.0004005432,0.0005340576,-0.4338679,-0.015032467,9.797036,2,1683900818.6282897
-0.041598864,-0.0018501864,0.9832831,-0.0005340576,-0.0004005432,-0.0016021729,-0.4338679,-0.015032467,9.797036,2,1683900818.633419
-0.041598864,-0.0018501864,0.9832831,0.0005340576,0.0017356873,0.0005340576,-0.4338679,-0.015032467,9.797036,2,1683900818.6539595
-0.041598864,-0.0018501864,0.9832831,0.0005340576,0.0017356873,0.0005340576,-0.4332223,-0.017788082,9.797061,2,1683900818.6591022
-0.04184151,-0.0018501864,0.98352575,0.0005340576,0.0017356873,0.0005340576,-0.4332223,-0.017788082,9.797061,2,1683900818.6642354
-0.04184151,-0.0018501864,0.98352575,0.0005340576,0.0017356873,0.0005340576,-0.43310356,-0.017503537,9.797067,2,1683900818.679578
-0.042569455,0.00059145305,0.9854669,0.0005340576,0.0017356873,0.0005340576,-0.43310356,-0.017503537,9.797067,2,1683900818.6847012
-0.042569455,0.00059145305,0.9854669,0.0005340576,-0.0004005432,-0.0005340576,-0.43310356,-0.017503537,9.797067,2,1683900818.700045
-0.045739036,0.0013193953,0.98449636,0.0005340576,-0.0004005432,-0.0005340576,-0.43310356,-0.017503537,9.797067,2,1683900818.7154124
-0.045739036,0.0013193953,0.98449636,0.0005340576,-0.0004005432,-0.0005340576,-0.4332689,-0.017277032,9.797059,2,1683900818.720553
-0.04402534,0.0013193953,0.98473895,0.0005340576,-0.0004005432,-0.0005340576,-0.4332689,-0.017277032,9.797059,2,1683900818.7512374
-0.04402534,0.0013193953,0.98473895,-0.0005340576,-0.0004005432,-0.0005340576,-0.4332689,-0.017277032,9.797059,2,1683900818.7563636
-0.04402534,0.0013193953,0.98473895,-0.0005340576,-0.0004005432,-0.0005340576,-0.4331778,-0.016782945,9.797064,2,1683900818.7615087
-0.04402534,0.0013193953,0.98473895,-0.0005340576,-0.0004005432,-0.0005340576,-0.43333435,-0.017366368,9.797056,2,1683900818.7820108
-0.04402534,0.0013193953,0.98473895,-0.0005340576,-0.0004005432,0.0005340576,-0.43333435,-0.017366368,9.797056,2,1683900818.7871437
-0.04428315,-0.0033212362,0.98401105,-0.0005340576,-0.0004005432,0.0005340576,-0.43333435,-0.017366368,9.797056,2,1683900818.7973678
-0.043540042,-0.001607539,0.9810841,-0.0005340576,-0.0004005432,0.0005340576,-0.43333435,-0.017366368,9.797056,2,1683900818.8127515
-0.043540042,-0.001607539,0.9810841,-0.0005340576,0.000667572,-0.0005340576,-0.43333435,-0.017366368,9.797056,2,1683900818.8281395
-0.043540042,-0.001607539,0.9810841,-0.0005340576,0.000667572,-0.0005340576,-0.43337992,-0.017382484,9.797054,2,1683900818.833268
-0.0445258,-0.005019768,0.9832831,-0.0005340576,0.000667572,-0.0005340576,-0.43337992,-0.017382484,9.797054,2,1683900818.8384013
-0.0445258,-0.005019768,0.9832831,0.0005340576,-0.0004005432,-0.0005340576,-0.43337992,-0.017382484,9.797054,2,1683900818.8434906
-0.0445258,-0.005019768,0.9832831,0.0005340576,-0.0004005432,-0.0005340576,-0.43410468,-0.017769262,9.797021,2,1683900818.8588064
-0.0445258,-0.005019768,0.9832831,0.0005340576,-0.0004005432,-0.0005340576,-0.43384704,-0.01981001,9.797029,2,1683900818.9254673
-0.041598864,-0.0011222442,0.98181206,0.0005340576,-0.0004005432,-0.0005340576,-0.43384704,-0.01981001,9.797029,2,1683900818.9305952
-0.041598864,-0.0011222442,0.98181206,-0.0005340576,0.000667572,-0.0005340576,-0.43384704,-0.01981001,9.797029,2,1683900818.940864
-0.041598864,-0.0011222442,0.98181206,-0.0005340576,-0.0004005432,0.0005340576,-0.43384704,-0.01981001,9.797029,2,1683900818.9562614
-0.04378269,-0.0018501864,0.97912776,-0.0005340576,-0.0004005432,0.0005340576,-0.43384704,-0.01981001,9.797029,2,1683900818.9665267
-0.04378269,-0.0018501864,0.97912776,-0.0005340576,-0.0004005432,0.0005340576,-0.43365026,-0.019943101,9.797038,2,1683900818.9716578
-0.04378269,-0.0018501864,0.97912776,0.0005340576,-0.0004005432,-0.0016021729,-0.43365026,-0.019943101,9.797038,2,1683900818.9818823
-0.0445258,-0.0013648917,0.98229736,0.0005340576,-0.0004005432,-0.0016021729,-0.43365026,-0.019943101,9.797038,2,1683900818.9972773
-0.0445258,-0.0013648917,0.98229736,0.0005340576,-0.0004005432,-0.0016021729,-0.43371803,-0.019867929,9.797035,2,1683900819.0075035
-0.04305475,-0.001607539,0.9793704,0.0005340576,-0.0004005432,-0.0016021729,-0.43371803,-0.019867929,9.797035,2,1683900819.01776
-0.04305475,-0.001607539,0.9793704,0.0005340576,-0.0004005432,-0.0016021729,-0.4335182,-0.019589584,9.797044,2,1683900819.0331278
-0.04305475,-0.001607539,0.9793704,-0.0005340576,0.000667572,-0.0005340576,-0.4335182,-0.019589584,9.797044,2,1683900819.0485113
-0.042326804,-0.0013648917,0.98304045,-0.0005340576,0.000667572,-0.0005340576,-0.4335182,-0.019589584,9.797044,2,1683900819.0689135
-0.042326804,-0.0013648917,0.98304045,-0.0016021729,-0.0004005432,0.0005340576,-0.4335182,-0.019589584,9.797044,2,1683900819.0791829
-0.042326804,-0.0013648917,0.98304045,-0.0016021729,-0.0004005432,0.0005340576,-0.43315086,-0.019461267,9.797061,2,1683900819.0843172
-0.042326804,-0.0013648917,0.98304045,-0.0005340576,-0.0014686584,-0.0016021729,-0.43315086,-0.019461267,9.797061,2,1683900819.0945818
-0.04378269,-0.0038065312,0.9805988,-0.0005340576,-0.0014686584,-0.0016021729,-0.43315086,-0.019461267,9.797061,2,1683900819.1048076
-0.04378269,-0.0038065312,0.9805988,-0.0005340576,-0.0014686584,-0.0016021729,-0.43314016,-0.019110681,9.797061,2,1683900819.1150734
-0.04378269,-0.0038065312,0.9805988,0.0005340576,-0.0004005432,0.0005340576,-0.43314016,-0.019110681,9.797061,2,1683900819.120208
-0.04378269,-0.002820776,0.9798557,0.0005340576,-0.0004005432,0.0005340576,-0.43314016,-0.019110681,9.797061,2,1683900819.145831
-0.04378269,-0.002820776,0.9798557,0.0005340576,-0.0004005432,0.0005340576,-0.43292874,-0.019604689,9.79707,2,1683900819.15093
-0.042569455,-0.0040491787,0.98181206,0.0005340576,-0.0004005432,0.0005340576,-0.43292874,-0.019604689,9.79707,2,1683900819.161161
-0.042569455,-0.0040491787,0.98181206,0.0005340576,-0.0004005432,0.0005340576,-0.43289435,-0.019750865,9.797071,2,1683900819.1713796
-0.042569455,-0.0040491787,0.98181206,0.0005340576,0.000667572,0.0005340576,-0.43289435,-0.019750865,9.797071,2,1683900819.1765146
-0.041098405,-0.0033212362,0.98181206,0.0005340576,0.000667572,0.0005340576,-0.43289435,-0.019750865,9.797071,2,1683900819.191907
-0.041098405,-0.0033212362,0.98181206,-0.0005340576,-0.0014686584,0.0005340576,-0.43289435,-0.019750865,9.797071,2,1683900819.2124078
-0.041098405,-0.0033212362,0.98181206,-0.0005340576,-0.0014686584,0.0005340576,-0.4341241,-0.020111263,9.797016,2,1683900819.2175524
-0.041098405,-0.0033212362,0.98181206,0.0005340576,0.000667572,-0.0005340576,-0.4341241,-0.020111263,9.797016,2,1683900819.2226906
-0.042569455,-0.0038065312,0.98254,0.0005340576,0.000667572,-0.0005340576,-0.4341241,-0.020111263,9.797016,2,1683900819.2329538
-0.042569455,-0.0038065312,0.98254,0.0005340576,0.000667572,-0.0005340576,-0.4339164,-0.020527918,9.797025,2,1683900819.2534094
-0.042569455,-0.0038065312,0.98254,-0.0005340576,0.000667572,-0.0005340576,-0.4339164,-0.020527918,9.797025,2,1683900819.2636793
-0.043297395,-0.0018501864,0.98304045,-0.0005340576,0.000667572,-0.0005340576,-0.4339164,-0.020527918,9.797025,2,1683900819.2739038
-0.043297395,-0.0018501864,0.98304045,-0.0005340576,0.000667572,-0.0005340576,-0.43392968,-0.02053768,9.797024,2,1683900819.2790346
-0.0428121,-0.0013648917,0.98352575,-0.0005340576,0.000667572,-0.0005340576,-0.43392968,-0.02053768,9.797024,2,1683900819.294459
-0.0428121,-0.0013648917,0.98352575,-0.0005340576,0.000667572,-0.0005340576,-0.4335681,-0.020353977,9.797039,2,1683900819.309814
-0.0428121,-0.0013648917,0.98352575,-0.0005340576,-0.0004005432,-0.0005340576,-0.4335681,-0.020353977,9.797039,2,1683900819.3251684
-0.0428121,-0.0013648917,0.98352575,-0.0005340576,-0.0004005432,-0.0005340576,-0.43366727,-0.01985046,9.797036,2,1683900819.366171
-0.044768445,0.00010615824,0.9815694,-0.0005340576,-0.0004005432,-0.0005340576,-0.43366727,-0.01985046,9.797036,2,1683900819.371267
-0.044768445,0.00010615824,0.9815694,-0.0005340576,0.0017356873,0.0016021729,-0.43366727,-0.01985046,9.797036,2,1683900819.4225123
-0.045739036,-0.0025781286,0.98401105,-0.0005340576,0.0017356873,0.0016021729,-0.43366727,-0.01985046,9.797036,2,1683900819.4276469
-0.045739036,-0.0025781286,0.98401105,-0.0005340576,0.0017356873,0.0016021729,-0.43369353,-0.019995607,9.797034,2,1683900819.4327836
-0.046466976,-0.002335481,0.9815694,-0.0005340576,0.0017356873,0.0016021729,-0.43369353,-0.019995607,9.797034,2,1683900819.4379187
-0.046466976,-0.002335481,0.9815694,0.0016021729,0.000667572,-0.0005340576,-0.43369353,-0.019995607,9.797034,2,1683900819.4430296
-0.046466976,-0.002335481,0.9815694,0.0016021729,0.000667572,-0.0005340576,-0.43397734,-0.019947385,9.797023,2,1683900819.448155
-0.040613107,-0.00868981,0.9854669,0.0016021729,0.000667572,-0.0005340576,-0.43397734,-0.019947385,9.797023,2,1683900819.4686062
-0.040613107,-0.00868981,0.9854669,-0.0005340576,0.000667572,0.0005340576,-0.43397734,-0.019947385,9.797023,2,1683900819.47374
-0.040613107,-0.00868981,0.9854669,-0.0005340576,0.000667572,0.0005340576,-0.4354187,-0.019489981,9.79696,2,1683900819.4942172
-0.040613107,-0.00868981,0.9854669,-0.0016021729,-0.0025367737,-0.0005340576,-0.4354187,-0.019489981,9.79696,2,1683900819.509576
-0.04134105,-0.005505063,0.98132676,-0.0016021729,-0.0025367737,-0.0005340576,-0.4354187,-0.019489981,9.79696,2,1683900819.5198574
-0.04134105,-0.005505063,0.98132676,-0.0016021729,-0.0025367737,-0.0005340576,-0.43502843,-0.020606697,9.796975,2,1683900819.5249903
-0.040127814,-0.0057628755,0.9740018,-0.0016021729,-0.0025367737,-0.0005340576,-0.43502843,-0.020606697,9.796975,2,1683900819.5351818
-0.040127814,-0.0057628755,0.9740018,-0.0016021729,-0.0025367737,-0.0005340576,-0.43453768,-0.020930335,9.796996,2,1683900819.5454443
-0.040127814,-0.0057628755,0.9740018,0.0005340576,-0.0004005432,0.0005340576,-0.43453768,-0.020930335,9.796996,2,1683900819.5608196
-0.04378269,-0.0033212362,0.98669535,0.0005340576,-0.0004005432,0.0005340576,-0.43453768,-0.020930335,9.796996,2,1683900819.5659523
-0.04378269,-0.0033212362,0.98669535,0.002670288,0.0070762634,0.0005340576,-0.43453768,-0.020930335,9.796996,2,1683900819.5762157
-0.04378269,-0.0033212362,0.98669535,0.002670288,0.0070762634,0.0005340576,-0.4347338,-0.020982519,9.796987,2,1683900819.591608
-0.04378269,-0.001607539,0.98621005,0.002670288,0.0070762634,0.0005340576,-0.4347338,-0.020982519,9.796987,2,1683900819.601842
-0.04378269,-0.001607539,0.98621005,0.002670288,0.004940033,0.0005340576,-0.4347338,-0.020982519,9.796987,2,1683900819.6069753
-0.04378269,-0.001607539,0.98621005,0.002670288,0.004940033,0.0005340576,-0.43497565,-0.020810518,9.796976,2,1683900819.617239
-0.04378269,-0.001607539,0.98621005,0.002670288,0.004940033,0.0005340576,-0.4348123,-0.020076742,9.796986,2,1683900819.6683948
-0.04378269,-0.001607539,0.98621005,0.002670288,0.004940033,0.0005340576,-0.4355014,-0.019320393,9.796956,2,1683900819.6735528
-0.045739036,0.00180469,0.9793704,0.002670288,0.004940033,0.0005340576,-0.4355014,-0.019320393,9.796956,2,1683900819.6786795
-0.045739036,0.00180469,0.9793704,0.0005340576,0.0017356873,-0.0005340576,-0.4355014,-0.019320393,9.796956,2,1683900819.6889985
-0.045739036,0.00180469,0.9793704,0.0016021729,-0.0025367737,-0.0005340576,-0.4355014,-0.019320393,9.796956,2,1683900819.6941369
-0.0445258,0.0042463294,0.9805988,0.0016021729,-0.0025367737,-0.0005340576,-0.4355014,-0.019320393,9.796956,2,1683900819.6992059
-0.047938026,-0.000394302,0.98913693,0.0016021729,-0.0025367737,-0.0005340576,-0.4355014,-0.019320393,9.796956,2,1683900819.724943
-0.047938026,-0.000394302,0.98913693,0.0016021729,-0.0025367737,-0.0005340576,-0.4362053,-0.018454395,9.7969265,2,1683900819.7300982
-0.047938026,-0.000394302,0.98913693,-0.002670288,-0.004673004,0.0005340576,-0.4362053,-0.018454395,9.7969265,2,1683900819.7352057
-0.047938026,-0.000394302,0.98913693,-0.002670288,-0.004673004,0.0005340576,-0.43416986,-0.019168528,9.797016,2,1683900819.740334
-0.04842332,-0.002335481,0.98621005,-0.002670288,-0.004673004,0.0005340576,-0.43416986,-0.019168528,9.797016,2,1683900819.750592
-0.04842332,-0.002335481,0.98621005,-0.0005340576,0.000667572,-0.0005340576,-0.43416986,-0.019168528,9.797016,2,1683900819.7608943
-0.04842332,-0.002335481,0.98621005,-0.0005340576,0.000667572,-0.0005340576,-0.43479982,-0.018869223,9.7969885,2,1683900819.7712142
-0.04842332,-0.002335481,0.98621005,-0.0005340576,-0.0004005432,-0.0005340576,-0.43479982,-0.018869223,9.7969885,2,1683900819.7866602
-0.04549639,-0.0035638837,0.98132676,-0.0005340576,-0.0004005432,-0.0005340576,-0.43479982,-0.018869223,9.7969885,2,1683900819.7917812
-0.04549639,-0.0035638837,0.98132676,-0.0005340576,-0.0004005432,-0.0005340576,-0.4349426,-0.01903502,9.796982,2,1683900819.8021054
-0.04549639,-0.0035638837,0.98132676,-0.0005340576,0.000667572,0.0005340576,-0.4349426,-0.01903502,9.796982,2,1683900819.8175278
-0.04549639,-0.0035638837,0.98132676,-0.0005340576,0.000667572,0.0005340576,-0.43492952,-0.018709766,9.796983,2,1683900819.8381472
-0.04622433,0.0025477977,0.9827826,-0.0016021729,-0.0014686584,0.0005340576,-0.43571576,-0.018218158,9.796948,2,1683900819.8433897
-0.04622433,0.0025477977,0.9827826,-0.0016021729,-0.0014686584,0.0005340576,-0.43591592,-0.01839569,9.79694,2,1683900819.8587856
-0.0428121,-0.0020928339,0.97912776,-0.0016021729,-0.0014686584,0.0005340576,-0.43591592,-0.01839569,9.79694,2,1683900819.863929
-0.0428121,-0.0020928339,0.97912776,-0.0016021729,-0.0014686584,0.0005340576,-0.43520284,-0.019280272,9.796969,2,1683900819.8895779
-0.0428121,-0.0020928339,0.97912776,-0.002670288,-0.0025367737,-0.0005340576,-0.43520284,-0.019280272,9.796969,2,1683900819.8947108
-0.03939987,-0.007946703,0.9810841,-0.002670288,-0.0025367737,-0.0005340576,-0.43520284,-0.019280272,9.796969,2,1683900819.9049737
-0.040613107,-0.008932457,0.9798557,-0.002670288,-0.0025367737,-0.0005340576,-0.43520284,-0.019280272,9.796969,2,1683900819.9151852
-0.040613107,-0.008932457,0.9798557,0.0005340576,-0.0014686584,0.0005340576,-0.43520284,-0.019280272,9.796969,2,1683900819.9203126
-0.040613107,-0.008932457,0.9798557,0.0005340576,-0.0014686584,0.0005340576,-0.43489155,-0.019835165,9.796982,2,1683900819.9357495
-0.040613107,-0.008932457,0.9798557,0.0005340576,0.000667572,0.0016021729,-0.43489155,-0.019835165,9.796982,2,1683900819.9715972
-0.040613107,-0.008932457,0.9798557,0.0005340576,0.000667572,0.0016021729,-0.43470943,-0.018271612,9.796993,2,1683900819.9972131
-0.04525374,-0.002820776,0.9832831,0.0005340576,0.000667572,0.0016021729,-0.43470943,-0.018271612,9.796993,2,1683900820.002342
-0.044768445,0.00010615824,0.9798557,0.0005340576,0.000667572,0.0016021729,-0.43470943,-0.018271612,9.796993,2,1683900820.0228283
-0.044768445,0.00010615824,0.9798557,-0.0005340576,-0.0004005432,0.0005340576,-0.43470943,-0.018271612,9.796993,2,1683900820.0279603
-0.044768445,0.00010615824,0.9798557,-0.0005340576,-0.0004005432,0.0005340576,-0.43476444,-0.017788962,9.796991,2,1683900820.0330899
-0.044768445,0.00010615824,0.9798557,-0.0005340576,-0.0004005432,0.0005340576,-0.43465817,-0.017862331,9.796996,2,1683900820.053579
-0.044768445,0.00010615824,0.9798557,-0.0005340576,-0.0004005432,-0.0005340576,-0.43465817,-0.017862331,9.796996,2,1683900820.058707
-0.042569455,-0.002335481,0.98304045,-0.0005340576,-0.0004005432,-0.0005340576,-0.43465817,-0.017862331,9.796996,2,1683900820.068956
-0.042569455,-0.002335481,0.98304045,0.0005340576,0.000667572,0.0005340576,-0.43465817,-0.017862331,9.796996,2,1683900820.0996926
-0.041098405,0.00010615824,0.98181206,0.0005340576,0.000667572,0.0005340576,-0.43465817,-0.017862331,9.796996,2,1683900820.104822
-0.041098405,0.00010615824,0.98181206,0.0005340576,0.000667572,0.0005340576,-0.4339699,-0.017815448,9.797027,2,1683900820.1099384
-0.041098405,0.00010615824,0.98181206,0.0005340576,0.000667572,0.0005340576,-0.43372917,-0.017227186,9.797038,2,1683900820.130473
-0.043297395,0.00180469,0.98449636,0.0005340576,0.000667572,0.0005340576,-0.43372917,-0.017227186,9.797038,2,1683900820.1458132
-0.044768445,-0.00013648917,0.98229736,0.0005340576,0.000667572,0.0005340576,-0.43372917,-0.017227186,9.797038,2,1683900820.156082
-0.044768445,-0.00013648917,0.98229736,0.0005340576,0.000667572,0.0005340576,-0.43386835,-0.017068634,9.797033,2,1683900820.1714242
-0.046967436,-0.0018501864,0.9842537,0.0005340576,0.000667572,0.0005340576,-0.43386835,-0.017068634,9.797033,2,1683900820.1918414
-0.046967436,-0.0018501864,0.9842537,0.0005340576,0.000667572,-0.0005340576,-0.43386835,-0.017068634,9.797033,2,1683900820.2021039
-0.046967436,-0.0018501864,0.9842537,0.0005340576,0.000667572,-0.0005340576,-0.43407425,-0.01661767,9.797026,2,1683900820.2123652
-0.046967436,-0.0018501864,0.9842537,-0.0005340576,-0.0014686584,0.0005340576,-0.43407425,-0.01661767,9.797026,2,1683900820.2380204
-0.045011092,-0.0038065312,0.98181206,-0.0005340576,-0.0014686584,0.0005340576,-0.43407425,-0.01661767,9.797026,2,1683900820.2431965
-0.0445258,-0.0018501864,0.9805988,-0.0005340576,-0.0014686584,0.0005340576,-0.43407425,-0.01661767,9.797026,2,1683900820.2585213
-0.0445258,-0.0018501864,0.9805988,-0.0005340576,-0.0014686584,0.0005340576,-0.43444005,-0.017188683,9.797008,2,1683900820.2688017
-0.0445258,-0.0018501864,0.9805988,-0.0005340576,-0.0004005432,0.0005340576,-0.43444005,-0.017188683,9.797008,2,1683900820.2739325
-0.040613107,-0.002335481,0.9842537,-0.0005340576,-0.0004005432,0.0005340576,-0.43444005,-0.017188683,9.797008,2,1683900820.3047886
-0.040613107,-0.002335481,0.9842537,0.0005340576,-0.0004005432,0.0005340576,-0.43444005,-0.017188683,9.797008,2,1683900820.3099394
-0.040613107,-0.002335481,0.9842537,0.0005340576,-0.0004005432,0.0005340576,-0.43418512,-0.01710902,9.797019,2,1683900820.3202035
-0.040613107,-0.002335481,0.9842537,0.0005340576,-0.0004005432,0.0005340576,-0.43385085,-0.016971897,9.797034,2,1683900820.340688
-0.03964252,-0.000394302,0.980341,0.0005340576,-0.0004005432,0.0005340576,-0.43385085,-0.016971897,9.797034,2,1683900820.345826
-0.045981683,0.00010615824,0.9798557,0.0005340576,-0.0004005432,0.0005340576,-0.43385085,-0.016971897,9.797034,2,1683900820.3766072
-0.045981683,0.00010615824,0.9798557,0.0005340576,-0.0004005432,0.0005340576,-0.4339577,-0.01703605,9.797029,2,1683900820.381737
-0.045981683,0.00010615824,0.9798557,0.0005340576,-0.0004005432,-0.0005340576,-0.4339577,-0.01703605,9.797029,2,1683900820.3868835
-0.045981683,0.00010615824,0.9798557,-0.0005340576,-0.0004005432,-0.0005340576,-0.4339577,-0.01703605,9.797029,2,1683900820.4022803
-0.04672479,-0.0011222442,0.98401105,-0.0005340576,-0.0004005432,-0.0005340576,-0.4339577,-0.01703605,9.797029,2,1683900820.4228938
-0.046466976,0.0020473374,0.98449636,0.0005340576,0.000667572,0.0005340576,-0.43422207,-0.017251953,9.797017,2,1683900820.42807
-0.042326804,-0.0040491787,0.98132676,-0.0005340576,-0.0014686584,0.0005340576,-0.43486348,-0.016998721,9.796989,2,1683900820.4385693
-0.0445258,-0.002335481,0.98572475,0.0005340576,0.000667572,0.0005340576,-0.43698215,-0.017010989,9.796895,2,1683900820.4438205
-0.0445258,-0.002335481,0.98572475,0.0005340576,0.000667572,0.0005340576,-0.43630698,-0.016905222,9.796926,2,1683900820.479654
-0.0445258,-0.002335481,0.98572475,-0.0005340576,-0.0004005432,-0.0005340576,-0.43630698,-0.016905222,9.796926,2,1683900820.4847877
-0.039157223,-0.002820776,0.98009837,-0.0005340576,-0.0004005432,-0.0005340576,-0.43630698,-0.016905222,9.796926,2,1683900820.4899213
-0.041098405,-0.0008795968,0.980341,-0.0005340576,-0.0004005432,-0.0005340576,-0.43630698,-0.016905222,9.796926,2,1683900820.5053015
-0.041098405,-0.0008795968,0.980341,0.0005340576,-0.0004005432,-0.0016021729,-0.43630698,-0.016905222,9.796926,2,1683900820.5206482
-0.04525374,-0.002335481,0.9854669,0.0005340576,-0.0004005432,-0.0016021729,-0.43630698,-0.016905222,9.796926,2,1683900820.546295
-0.04525374,-0.002335481,0.9854669,0.0005340576,-0.0004005432,-0.0016021729,-0.43629465,-0.017275853,9.796925,2,1683900820.5565383
-0.04525374,-0.002335481,0.9854669,-0.0016021729,-0.0004005432,-0.0005340576,-0.43629465,-0.017275853,9.796925,2,1683900820.5667715
-0.04525374,-0.002335481,0.9854669,-0.0005340576,0.0017356873,-0.0005340576,-0.43629465,-0.017275853,9.796925,2,1683900820.6026633
-0.045739036,-0.0020928339,0.9793704,-0.0005340576,0.0017356873,-0.0005340576,-0.43629465,-0.017275853,9.796925,2,1683900820.61803
-0.045739036,-0.0020928339,0.9793704,-0.0005340576,0.0017356873,-0.0005340576,-0.43715814,-0.017206054,9.796886,2,1683900820.628273
-0.045739036,-0.0020928339,0.9793704,-0.0005340576,-0.0004005432,0.0005340576,-0.43715814,-0.017206054,9.796886,2,1683900820.6333756
-0.045739036,-0.0020928339,0.9793704,-0.0005340576,-0.0004005432,0.0005340576,-0.43681046,-0.01708211,9.796902,2,1683900820.6385045
-0.042326804,-0.002820776,0.9827826,-0.0005340576,-0.0004005432,0.0005340576,-0.43681046,-0.01708211,9.796902,2,1683900820.6436164
-0.04428315,0.0008341004,0.98304045,-0.0005340576,-0.0004005432,0.0005340576,-0.43681046,-0.01708211,9.796902,2,1683900820.6487417
-0.04428315,0.0008341004,0.98304045,-0.0005340576,-0.0004005432,0.0005340576,-0.43682906,-0.01689538,9.796902,2,1683900820.6743834
-0.04428315,0.0008341004,0.98304045,-0.0016021729,-0.0004005432,0.0005340576,-0.43682906,-0.01689538,9.796902,2,1683900820.6846387
-0.04428315,0.0008341004,0.98304045,-0.0016021729,-0.0004005432,0.0005340576,-0.43643543,-0.016829181,9.79692,2,1683900820.68977
-0.042569455,-0.0008795968,0.98401105,-0.0016021729,-0.0004005432,0.0005340576,-0.43643543,-0.016829181,9.79692,2,1683900820.720444
-0.042569455,-0.0008795968,0.98401105,0.0016021729,-0.0004005432,0.0005340576,-0.43643543,-0.016829181,9.79692,2,1683900820.7255762
-0.042569455,-0.0008795968,0.98401105,0.0016021729,-0.0004005432,0.0005340576,-0.43607306,-0.016439928,9.796936,2,1683900820.7307005
-0.041598864,-0.0008795968,0.9815694,0.0016021729,-0.0004005432,0.0005340576,-0.43607306,-0.016439928,9.796936,2,1683900820.751179
-0.04037046,-0.0020928339,0.98181206,0.0016021729,-0.0004005432,0.0005340576,-0.43607306,-0.016439928,9.796936,2,1683900820.7768106
-0.04037046,-0.0020928339,0.98181206,0.0016021729,-0.0004005432,0.0005340576,-0.43577835,-0.016502157,9.796949,2,1683900820.781943
-0.04037046,-0.0020928339,0.98181206,-0.0005340576,-0.0004005432,0.0005340576,-0.43577835,-0.016502157,9.796949,2,1683900820.7870622
-0.04037046,-0.0020928339,0.98181206,-0.0005340576,0.000667572,-0.0005340576,-0.43577835,-0.016502157,9.796949,2,1683900820.8127327
-0.04037046,-0.0020928339,0.98181206,-0.0005340576,0.000667572,-0.0005340576,-0.4360855,-0.016487068,9.796936,2,1683900820.817879
-0.044768445,-0.0020928339,0.9810841,-0.0005340576,0.000667572,-0.0005340576,-0.4360855,-0.016487068,9.796936,2,1683900820.8230193
-0.045011092,-0.0013648917,0.98449636,-0.0005340576,0.000667572,-0.0005340576,-0.4360855,-0.016487068,9.796936,2,1683900820.86958
-0.045011092,-0.0013648917,0.98449636,-0.0005340576,0.000667572,-0.0005340576,-0.43647972,-0.016552584,9.796918,2,1683900820.8800023
-0.04525374,-0.003078589,0.98254,-0.0005340576,0.000667572,-0.0005340576,-0.43647972,-0.016552584,9.796918,2,1683900820.885111
-0.04402534,-0.002820776,0.98522425,0.0005340576,-0.0014686584,0.0005340576,-0.43704888,-0.017634803,9.796891,2,1683900820.9037435
-0.04402534,-0.002820776,0.98522425,0.0005340576,-0.0014686584,0.0005340576,-0.4370371,-0.017807245,9.79689,2,1683900820.9262147
-0.04402534,-0.002820776,0.98522425,-0.0005340576,-0.0004005432,0.0005340576,-0.4370371,-0.017807245,9.79689,2,1683900820.9365325
-0.043297395,0.00010615824,0.9837684,-0.0005340576,-0.0004005432,0.0005340576,-0.4370371,-0.017807245,9.79689,2,1683900820.941667
-0.043297395,0.00010615824,0.9837684,-0.0005340576,-0.0004005432,0.0005340576,-0.4369702,-0.01767509,9.796894,2,1683900820.946889
-0.04305475,0.00034880562,0.9832831,-0.0005340576,-0.0004005432,0.0005340576,-0.4369702,-0.01767509,9.796894,2,1683900820.9779408
-0.04305475,0.00034880562,0.9832831,-0.0005340576,-0.0004005432,0.0005340576,-0.4366963,-0.01752226,9.796906,2,1683900820.993464
-0.04305475,0.00034880562,0.9832831,-0.0005340576,-0.0014686584,0.0005340576,-0.4366963,-0.01752226,9.796906,2,1683900820.9985988
-0.04305475,0.00034880562,0.9832831,-0.0005340576,-0.0014686584,0.0005340576,-0.43670264,-0.017710825,9.796906,2,1683900821.029515
-0.04305475,-0.00063694944,0.9827826,0.0005340576,-0.0004005432,-0.0005340576,-0.43717042,-0.016746849,9.796888,2,1683900821.0401385
-0.04305475,-0.00063694944,0.9827826,0.0005340576,-0.0004005432,-0.0005340576,-0.43697774,-0.016852155,9.796894,2,1683900821.0452695
-0.04305475,-0.00063694944,0.9827826,0.0016021729,-0.0004005432,-0.0005340576,-0.43697774,-0.016852155,9.796894,2,1683900821.050522
-0.0428121,-0.001607539,0.98401105,0.0016021729,-0.0004005432,-0.0005340576,-0.43697774,-0.016852155,9.796894,2,1683900821.055699
-0.0428121,-0.001607539,0.98401105,0.0005340576,0.000667572,-0.0005340576,-0.43697774,-0.016852155,9.796894,2,1683900821.0609095
-0.04402534,0.00034880562,0.9837684,0.0005340576,0.000667572,-0.0005340576,-0.43697774,-0.016852155,9.796894,2,1683900821.0763054
-0.04402534,0.00034880562,0.9837684,0.0005340576,0.000667572,-0.0005340576,-0.43690038,-0.016664965,9.796899,2,1683900821.081423
-0.040127814,-0.0013648917,0.97912776,0.0005340576,0.000667572,-0.0005340576,-0.43690038,-0.016664965,9.796899,2,1683900821.1020877
-0.040127814,-0.0013648917,0.97912776,0.0016021729,0.0028038025,0.0005340576,-0.43690038,-0.016664965,9.796899,2,1683900821.1072135
-0.040127814,-0.0013648917,0.97912776,0.0016021729,0.0028038025,0.0005340576,-0.4367434,-0.016561422,9.7969055,2,1683900821.1175184
-0.040127814,-0.0013648917,0.97912776,0.0016021729,0.0028038025,0.0005340576,-0.43684426,-0.01608762,9.796903,2,1683900821.1535559
-0.043297395,-0.00063694944,0.9832831,0.0016021729,0.0028038025,0.0005340576,-0.43684426,-0.01608762,9.796903,2,1683900821.1587138
-0.043297395,-0.00063694944,0.9832831,0.0005340576,0.0017356873,0.0005340576,-0.43684426,-0.01608762,9.796903,2,1683900821.1690698
-0.039885167,-0.0018501864,0.9827826,0.0005340576,0.0017356873,0.0005340576,-0.43684426,-0.01608762,9.796903,2,1683900821.174201
-0.039885167,-0.0018501864,0.9827826,0.0005340576,0.0017356873,0.0005340576,-0.43655097,-0.01608042,9.796916,2,1683900821.1845102
-0.042569455,-0.0013648917,0.9820547,0.0005340576,0.0017356873,0.0005340576,-0.43655097,-0.01608042,9.796916,2,1683900821.1948104
-0.042569455,-0.0013648917,0.9820547,0.0005340576,0.000667572,-0.0005340576,-0.43673593,-0.016028333,9.796907,2,1683900821.2001133
-0.04549639,-0.003078589,0.9827826,0.0005340576,0.000667572,-0.0005340576,-0.43673593,-0.016028333,9.796907,2,1683900821.2052553
-0.04549639,-0.003078589,0.9827826,-0.0005340576,-0.012149811,-0.0005340576,-0.43673593,-0.016028333,9.796907,2,1683900821.2156255
-0.042569455,-0.0020928339,0.98181206,-0.0005340576,-0.012149811,-0.0005340576,-0.43673593,-0.016028333,9.796907,2,1683900821.220869
