acc_x,acc_y,acc_z,gyr_x,gyr_y,gyr_z,grav_x,grav_y,grav_z,label,timestamp
-0.042326804,-0.0038065312,0.98181206,0.0005340576,-0.0004005432,-0.0016021729,-0.4363631,-0.016968647,9.796923,2,1683900830.434583
-0.042326804,-0.0038065312,0.98181206,0.0005340576,0.000667572,-0.0005340576,-0.4363631,-0.016968647,9.796923,2,1683900830.4400737
-0.045011092,0.00010615824,0.9810841,-0.0005340576,0.000667572,0.0016021729,-0.43618566,-0.016496899,9.796932,2,1683900830.4456255
-0.045011092,0.00010615824,0.9810841,-0.0005340576,0.000667572,0.0016021729,-0.43664935,-0.016722374,9.79691,2,1683900830.4612248
-0.04769538,-0.0025781286,0.98229736,0.0016021729,-0.0004005432,0.0005340576,-0.43716243,-0.016427886,9.796888,2,1683900830.4668062
-0.04769538,-0.0025781286,0.98229736,0.0016021729,-0.0004005432,0.0005340576,-0.43727016,-0.016328005,9.796884,2,1683900830.4812388
-0.04769538,-0.0025781286,0.98229736,0.0016021729,0.000667572,-0.0005340576,-0.43727016,-0.016328005,9.796884,2,1683900830.4915967
-0.04769538,-0.0025781286,0.98229736,-0.0005340576,-0.0004005432,0.0005340576,-0.43727016,-0.016328005,9.796884,2,1683900830.5074723
-0.04305475,-0.001607539,0.98352575,-0.0005340576,-0.0004005432,0.0005340576,-0.43727016,-0.016328005,9.796884,2,1683900830.512615
-0.04305475,-0.001607539,0.98352575,-0.0005340576,-0.0004005432,0.0005340576,-0.43750685,-0.016222674,9.796873,2,1683900830.5178268
-0.046967436,-0.0013648917,0.9805988,-0.0005340576,-0.0004005432,0.0005340576,-0.43750685,-0.016222674,9.796873,2,1683900830.5435588
-0.046967436,-0.0013648917,0.9805988,-0.0005340576,-0.0004005432,0.0005340576,-0.43741655,-0.016247988,9.796877,2,1683900830.5488093
-0.046967436,-0.0013648917,0.9805988,-0.0005340576,-0.0004005432,-0.0005340576,-0.43741655,-0.016247988,9.796877,2,1683900830.5541244
-0.046967436,-0.0013648917,0.9805988,-0.0005340576,-0.0004005432,-0.0005340576,-0.43787748,-0.016033873,9.796856,2,1683900830.559221
-0.04525374,0.00059145305,0.97961307,0.0005340576,0.000667572,0.0005340576,-0.43787748,-0.016033873,9.796856,2,1683900830.5643768
-0.043540042,0.0025477977,0.9815694,0.0005340576,-0.0004005432,0.0005340576,-0.43783188,-0.01566204,9.796859,2,1683900830.5752218
-0.043540042,0.0025477977,0.9815694,0.0005340576,-0.0004005432,0.0005340576,-0.43771058,-0.015204548,9.796865,2,1683900830.5907106
-0.044768445,-0.0018501864,0.98181206,-0.0005340576,-0.0004005432,0.0005340576,-0.43771058,-0.015204548,9.796865,2,1683900830.590723
-0.044768445,-0.0018501864,0.98181206,0.0005340576,-0.0004005432,-0.0016021729,-0.43771058,-0.015204548,9.796865,2,1683900830.595855
-0.04305475,0.0010767478,0.9815694,0.0005340576,-0.0004005432,-0.0016021729,-0.43771058,-0.015204548,9.796865,2,1683900830.6061575
-0.04305475,0.0010767478,0.9815694,0.0005340576,-0.0004005432,-0.0016021729,-0.4376475,-0.015218134,9.796868,2,1683900830.637052
-0.0428121,-0.0013648917,0.9842537,0.0005340576,-0.0004005432,-0.0016021729,-0.4376475,-0.015218134,9.796868,2,1683900830.6473289
-0.0428121,-0.0013648917,0.9842537,-0.0005340576,0.000667572,-0.0005340576,-0.4376475,-0.015218134,9.796868,2,1683900830.6525004
-0.0428121,-0.0013648917,0.9842537,-0.0005340576,0.000667572,-0.0005340576,-0.43737516,-0.015158542,9.79688,2,1683900830.657632
-0.0428121,-0.0013648917,0.9842537,0.0016021729,-0.0004005432,0.0005340576,-0.43737516,-0.015158542,9.79688,2,1683900830.66276
-0.042569455,-0.0013648917,0.98522425,0.0016021729,-0.0004005432,0.0005340576,-0.43737516,-0.015158542,9.79688,2,1683900830.6833394
-0.045739036,-0.003078589,0.9820547,0.0016021729,-0.0004005432,0.0005340576,-0.43737516,-0.015158542,9.79688,2,1683900830.6988232
-0.045739036,-0.003078589,0.9820547,-0.0005340576,0.000667572,-0.0005340576,-0.43737516,-0.015158542,9.79688,2,1683900830.7141294
-0.045739036,-0.003078589,0.9820547,-0.0005340576,0.000667572,-0.0005340576,-0.43750155,-0.014738359,9.796876,2,1683900830.7243855
-0.045739036,-0.003078589,0.9820547,-0.0005340576,0.000667572,-0.0005340576,-0.43752155,-0.0150738,9.796874,2,1683900830.7450235
-0.041598864,-0.0033212362,0.98572475,-0.0005340576,0.000667572,-0.0005340576,-0.43752155,-0.0150738,9.796874,2,1683900830.7552557
-0.041598864,-0.0033212362,0.98572475,-0.0005340576,0.000667572,0.0005340576,-0.43752155,-0.0150738,9.796874,2,1683900830.7603862
-0.041598864,-0.0033212362,0.98572475,-0.0005340576,0.000667572,0.0005340576,-0.43787855,-0.015707552,9.796857,2,1683900830.7655838
-0.047210086,-0.003078589,0.9832831,-0.0005340576,0.000667572,0.0005340576,-0.43787855,-0.015707552,9.796857,2,1683900830.7758727
-0.047210086,-0.003078589,0.9832831,-0.0016021729,0.000667572,0.0005340576,-0.43787855,-0.015707552,9.796857,2,1683900830.7810252
-0.047210086,-0.003078589,0.9832831,0.0005340576,-0.0004005432,-0.0005340576,-0.43787855,-0.015707552,9.796857,2,1683900830.8066816
-0.047210086,-0.003078589,0.9832831,0.0005340576,-0.0004005432,-0.0005340576,-0.43799284,-0.015726168,9.796852,2,1683900830.816941
-0.04549639,-0.0020928339,0.9820547,0.0005340576,-0.0004005432,-0.0005340576,-0.43799284,-0.015726168,9.796852,2,1683900830.827202
-0.04525374,-0.0052624154,0.98254,0.0005340576,-0.0004005432,-0.0005340576,-0.43799284,-0.015726168,9.796852,2,1683900830.8375134
-0.04525374,-0.0052624154,0.98254,-0.0005340576,-0.0004005432,0.0005340576,-0.43799284,-0.015726168,9.796852,2,1683900830.847778
-0.04525374,-0.0052624154,0.98254,-0.0005340576,-0.0004005432,0.0005340576,-0.4380456,-0.016251663,9.796848,2,1683900830.868374
-0.045011092,0.0022899848,0.98181206,-0.0005340576,-0.0004005432,0.0005340576,-0.4380456,-0.016251663,9.796848,2,1683900830.888868
-0.045011092,0.0022899848,0.98181206,-0.0005340576,-0.0004005432,0.0005340576,-0.4381707,-0.01590303,9.796844,2,1683900830.8940103
-0.045011092,0.0022899848,0.98181206,0.0005340576,0.000667572,-0.0016021729,-0.4381707,-0.01590303,9.796844,2,1683900830.8991885
-0.045011092,0.0022899848,0.98181206,0.0005340576,0.000667572,-0.0016021729,-0.4379148,-0.016192833,9.796854,2,1683900830.9094825
-0.045011092,0.0022899848,0.98181206,-0.0005340576,-0.0004005432,-0.0005340576,-0.4379148,-0.016192833,9.796854,2,1683900830.9197757
-0.043297395,-0.003078589,0.98084146,-0.0005340576,-0.0004005432,-0.0005340576,-0.4379148,-0.016192833,9.796854,2,1683900830.930024
-0.04184151,-0.0011222442,0.98304045,-0.0005340576,-0.0004005432,-0.0005340576,-0.4379148,-0.016192833,9.796854,2,1683900830.9505668
-0.04184151,-0.0011222442,0.98304045,0.0005340576,0.000667572,0.0005340576,-0.4379148,-0.016192833,9.796854,2,1683900830.960835
-0.04184151,-0.0011222442,0.98304045,0.0005340576,0.000667572,0.0005340576,-0.43744287,-0.016543001,9.796875,2,1683900830.9711118
-0.04184151,-0.0011222442,0.98304045,-0.0005340576,0.000667572,0.0005340576,-0.43744287,-0.016543001,9.796875,2,1683900830.976238
-0.04184151,-0.0011222442,0.98304045,-0.0005340576,0.000667572,0.0005340576,-0.43727028,-0.016965332,9.796882,2,1683900831.0019748
-0.041598864,-0.0020928339,0.9815694,-0.0005340576,0.000667572,0.0005340576,-0.43727028,-0.016965332,9.796882,2,1683900831.0071406
-0.045739036,-0.0013648917,0.9820547,-0.0005340576,0.000667572,0.0005340576,-0.43727028,-0.016965332,9.796882,2,1683900831.0277052
-0.045739036,-0.0013648917,0.9820547,0.0005340576,0.0017356873,-0.0005340576,-0.43727028,-0.016965332,9.796882,2,1683900831.0328698
-0.045739036,-0.0013648917,0.9820547,0.0005340576,0.0017356873,-0.0005340576,-0.43747237,-0.017034195,9.796872,2,1683900831.0431435
-0.042326804,-0.00063694944,0.98132676,0.0005340576,0.0017356873,-0.0005340576,-0.43747237,-0.017034195,9.796872,2,1683900831.0637672
-0.042326804,-0.00063694944,0.98132676,-0.0016021729,0.000667572,-0.0016021729,-0.43747237,-0.017034195,9.796872,2,1683900831.0740464
-0.045739036,0.00010615824,0.9815694,-0.0016021729,0.000667572,-0.0016021729,-0.43747237,-0.017034195,9.796872,2,1683900831.089502
-0.045739036,0.00010615824,0.9815694,-0.0016021729,0.000667572,-0.0016021729,-0.4373975,-0.016765062,9.796868,2,1683900831.0946388
-0.045739036,0.00010615824,0.9815694,-0.0005340576,0.000667572,-0.0016021729,-0.4373975,-0.016765062,9.796868,2,1683900831.1100247
-0.045739036,0.00010615824,0.9815694,-0.0005340576,0.000667572,-0.0016021729,-0.43758982,-0.016765062,9.796868,2,1683900831.1203182
-0.045739036,0.00010615824,0.9815694,-0.0005340576,0.000667572,-0.0016021729,-0.4379247,-0.01683295,9.796852,2,1683900831.1357284
-0.045739036,0.00010615824,0.9815694,0.0016021729,-0.0004005432,-0.0005340576,-0.4379247,-0.01683295,9.796852,2,1683900831.1408656
-0.044768445,-0.002820776,0.98181206,0.0016021729,-0.0004005432,-0.0005340576,-0.4379247,-0.01683295,9.796852,2,1683900831.1511457
-0.044768445,-0.002820776,0.98181206,0.0016021729,-0.0004005432,-0.0005340576,-0.43795192,-0.017153338,9.79685,2,1683900831.207529
-0.044768445,-0.002820776,0.98181206,-0.0005340576,0.000667572,-0.0005340576,-0.43795192,-0.017153338,9.79685,2,1683900831.2126577
-0.042326804,-0.0008795968,0.9842537,-0.0005340576,0.000667572,-0.0005340576,-0.43795192,-0.017153338,9.79685,2,1683900831.2177982
-0.042326804,-0.0008795968,0.9842537,0.0005340576,0.000667572,-0.0005340576,-0.43795192,-0.017153338,9.79685,2,1683900831.2228987
-0.044768445,-0.004777121,0.97864246,0.0005340576,0.000667572,-0.0005340576,-0.43795192,-0.017153338,9.79685,2,1683900831.233174
-0.044768445,-0.004777121,0.97864246,0.0005340576,0.000667572,-0.0005340576,-0.43824548,-0.01694039,9.796839,2,1683900831.2434285
-0.044768445,-0.004777121,0.97864246,0.0005340576,-0.0004005432,-0.0016021729,-0.43824548,-0.01694039,9.796839,2,1683900831.274238
-0.040613107,0.0008341004,0.980341,0.0005340576,-0.0004005432,-0.0016021729,-0.43824548,-0.01694039,9.796839,2,1683900831.2793589
-0.040613107,0.0008341004,0.980341,0.0005340576,-0.0004005432,-0.0016021729,-0.43766704,-0.016919058,9.7968645,2,1683900831.2896461
-0.040613107,0.0008341004,0.980341,0.0005340576,-0.0004005432,-0.0005340576,-0.43766704,-0.016919058,9.7968645,2,1683900831.299923
-0.040613107,0.0008341004,0.980341,0.0005340576,-0.0004005432,-0.0005340576,-0.43774572,-0.017117543,9.79686,2,1683900831.3101783
-0.042084157,-0.004291826,0.9815694,0.0005340576,-0.0004005432,-0.0005340576,-0.43774572,-0.017117543,9.79686,2,1683900831.3152835
-0.042084157,-0.004291826,0.9815694,-0.0005340576,-0.0014686584,-0.0005340576,-0.43774572,-0.017117543,9.79686,2,1683900831.3306787
-0.040127814,-0.0020928339,0.9827826,-0.0005340576,-0.0014686584,-0.0005340576,-0.43774572,-0.017117543,9.79686,2,1683900831.340959
-0.040127814,-0.0020928339,0.9827826,-0.0005340576,-0.0014686584,-0.0005340576,-0.43714112,-0.01712993,9.796887,2,1683900831.3511977
-0.04378269,-0.0013648917,0.9827826,-0.0005340576,-0.0014686584,-0.0005340576,-0.43714112,-0.01712993,9.796887,2,1683900831.376841
-0.04378269,-0.0013648917,0.9827826,-0.0005340576,-0.0014686584,-0.0005340576,-0.43711722,-0.017075706,9.796888,2,1683900831.392293
-0.04378269,-0.0013648917,0.9827826,0.0005340576,-0.0004005432,-0.0005340576,-0.43711722,-0.017075706,9.796888,2,1683900831.3974602
-0.04378269,-0.0013648917,0.9827826,0.0005340576,-0.0004005432,-0.0005340576,-0.43682742,-0.017018463,9.796902,2,1683900831.4180036
-0.04378269,-0.0013648917,0.9827826,-0.0005340576,0.000667572,0.0005340576,-0.43682742,-0.017018463,9.796902,2,1683900831.4231381
-0.042326804,-0.001607539,0.9832831,-0.0005340576,0.000667572,0.0005340576,-0.43682742,-0.017018463,9.796902,2,1683900831.4334884
-0.043297395,0.00034880562,0.98229736,-0.0005340576,0.000667572,0.0005340576,-0.43682742,-0.017018463,9.796902,2,1683900831.4386356
-0.043297395,0.00034880562,0.98229736,-0.0005340576,0.000667572,0.0005340576,-0.43680325,-0.016705213,9.796904,2,1683900831.4437685
-0.043297395,0.00034880562,0.98229736,0.0016021729,0.000667572,0.0005340576,-0.43680325,-0.016705213,9.796904,2,1683900831.4540336
-0.043297395,0.00034880562,0.98229736,-0.0005340576,-0.0004005432,-0.0005340576,-0.43680325,-0.016705213,9.796904,2,1683900831.4796858
-0.04525374,-0.0013648917,0.98132676,-0.0005340576,-0.0004005432,-0.0005340576,-0.43680325,-0.016705213,9.796904,2,1683900831.4899464
-0.04525374,-0.0013648917,0.98132676,-0.0005340576,-0.0004005432,-0.0005340576,-0.43726116,-0.017095735,9.796882,2,1683900831.505334
-0.045739036,-0.004534473,0.98352575,-0.0005340576,-0.0004005432,-0.0005340576,-0.43726116,-0.017095735,9.796882,2,1683900831.51046
-0.045739036,-0.004534473,0.98352575,-0.0005340576,-0.0004005432,0.0016021729,-0.43726116,-0.017095735,9.796882,2,1683900831.5258126
-0.042569455,-0.001607539,0.98522425,-0.0005340576,-0.0004005432,0.0016021729,-0.43726116,-0.017095735,9.796882,2,1683900831.5514562
-0.042569455,-0.001607539,0.98522425,-0.0005340576,-0.0004005432,0.0016021729,-0.4370319,-0.017109018,9.796892,2,1683900831.556581
-0.042569455,-0.001607539,0.98522425,-0.0005340576,0.000667572,-0.0016021729,-0.4370319,-0.017109018,9.796892,2,1683900831.5616722
-0.045739036,-0.0038065312,0.98254,-0.0005340576,0.000667572,-0.0016021729,-0.4370319,-0.017109018,9.796892,2,1683900831.5872695
-0.045739036,-0.0038065312,0.98254,-0.0005340576,0.000667572,-0.0016021729,-0.437206,-0.017322978,9.796885,2,1683900831.597536
-0.045739036,-0.0038065312,0.98254,0.0005340576,-0.0004005432,0.0016021729,-0.437206,-0.017322978,9.796885,2,1683900831.6026685
-0.0428121,-0.0008795968,0.98449636,0.0005340576,-0.0004005432,0.0016021729,-0.437206,-0.017322978,9.796885,2,1683900831.618052
-0.0428121,-0.0008795968,0.98449636,0.0005340576,-0.0004005432,0.0016021729,-0.4372646,-0.0172042,9.796882,2,1683900831.6283295
-0.0428121,-0.0008795968,0.98449636,-0.0005340576,0.000667572,-0.0005340576,-0.4372646,-0.0172042,9.796882,2,1683900831.6334589
-0.043540042,-0.0020928339,0.98229736,-0.0005340576,0.000667572,-0.0005340576,-0.4372646,-0.0172042,9.796882,2,1683900831.6488445
-0.043540042,-0.0020928339,0.98229736,0.0005340576,0.000667572,-0.0016021729,-0.4372646,-0.0172042,9.796882,2,1683900831.6539776
-0.043540042,-0.0020928339,0.98229736,0.0005340576,0.000667572,-0.0016021729,-0.43727413,-0.017107591,9.796882,2,1683900831.659112
-0.041598864,-0.003078589,0.9842537,0.0005340576,0.000667572,-0.0016021729,-0.43727413,-0.017107591,9.796882,2,1683900831.6847596
-0.041598864,-0.003078589,0.9842537,0.0005340576,-0.0004005432,0.0005340576,-0.43727413,-0.017107591,9.796882,2,1683900831.6898928
-0.041598864,-0.003078589,0.9842537,0.0005340576,-0.0004005432,0.0005340576,-0.43704417,-0.01740494,9.79689,2,1683900831.6950107
-0.041598864,-0.003078589,0.9842537,0.0005340576,-0.0004005432,0.0005340576,-0.43687412,-0.017318808,9.796899,2,1683900831.7155483
-0.042084157,-0.000394302,0.9842537,0.0005340576,-0.0004005432,0.0005340576,-0.43687412,-0.017318808,9.796899,2,1683900831.725818
-0.042084157,-0.000394302,0.9842537,-0.0005340576,-0.0004005432,-0.0005340576,-0.43687412,-0.017318808,9.796899,2,1683900831.741247
-0.04402534,-0.003078589,0.9788851,-0.0005340576,-0.0004005432,-0.0005340576,-0.43687412,-0.017318808,9.796899,2,1683900831.746392
-0.04402534,-0.003078589,0.9788851,-0.0005340576,-0.0004005432,-0.0005340576,-0.4367944,-0.017464317,9.796903,2,1683900831.7668228
-0.04402534,-0.003078589,0.9788851,0.0005340576,-0.0004005432,-0.0005340576,-0.4367944,-0.017464317,9.796903,2,1683900831.7770896
-0.04402534,-0.003078589,0.9788851,0.0005340576,-0.0004005432,0.0016021729,-0.4367944,-0.017464317,9.796903,2,1683900831.7872653
-0.04402534,-0.003078589,0.9788851,0.0005340576,-0.0004005432,0.0016021729,-0.43748844,-0.018049745,9.79687,2,1683900831.8077621
-0.0445258,-0.004777121,0.9842537,0.0005340576,-0.0004005432,0.0016021729,-0.43748844,-0.018049745,9.79687,2,1683900831.8128905
-0.0445258,-0.004777121,0.9842537,-0.0005340576,-0.0004005432,-0.0005340576,-0.43748844,-0.018049745,9.79687,2,1683900831.8231282
-0.0445258,-0.002335481,0.98132676,-0.0005340576,-0.0004005432,-0.0005340576,-0.43748844,-0.018049745,9.79687,2,1683900831.9000804
-0.0445258,-0.002335481,0.98132676,-0.0005340576,-0.0004005432,-0.0005340576,-0.4376193,-0.01812058,9.7968645,2,1683900831.905209
-0.0445258,-0.002335481,0.98132676,0.0005340576,-0.0004005432,0.0005340576,-0.4376193,-0.01812058,9.7968645,2,1683900831.9103422
-0.0445258,-0.002335481,0.98132676,0.0005340576,0.000667572,-0.0005340576,-0.4376193,-0.01812058,9.7968645,2,1683900831.9205647
-0.0445258,-0.002335481,0.98132676,0.0005340576,0.000667572,-0.0005340576,-0.43766874,-0.017440142,9.796864,2,1683900831.925696
-0.04428315,0.00059145305,0.9832831,0.0005340576,0.000667572,-0.0005340576,-0.43766874,-0.017440142,9.796864,2,1683900831.9359527
-0.040855754,-0.005505063,0.9805988,0.0005340576,0.000667572,-0.0005340576,-0.43766874,-0.017440142,9.796864,2,1683900831.9564192
-0.040855754,-0.005505063,0.9805988,0.0005340576,0.000667572,-0.0005340576,-0.4374576,-0.017728465,9.796872,2,1683900831.9666765
-0.046466976,-0.004777121,0.98401105,0.0005340576,0.000667572,-0.0005340576,-0.4374576,-0.017728465,9.796872,2,1683900831.997399
-0.046466976,-0.004777121,0.98401105,0.0005340576,-0.0004005432,-0.0005340576,-0.4374576,-0.017728465,9.796872,2,1683900832.0025263
-0.046466976,-0.004777121,0.98401105,0.0005340576,-0.0004005432,-0.0005340576,-0.43775982,-0.018019132,9.796858,2,1683900832.028173
-0.04378269,-0.0035638837,0.97864246,0.0005340576,-0.0004005432,-0.0005340576,-0.43775982,-0.018019132,9.796858,2,1683900832.0333035
-0.04378269,-0.0035638837,0.97864246,0.0005340576,-0.0004005432,-0.0005340576,-0.43778488,-0.018120313,9.796857,2,1683900832.0384328
-0.04378269,-0.0035638837,0.97864246,0.0005340576,-0.0004005432,-0.0016021729,-0.43778488,-0.018120313,9.796857,2,1683900832.0435693
-0.0445258,-0.002335481,0.9815694,0.0005340576,-0.0004005432,-0.0016021729,-0.43778488,-0.018120313,9.796857,2,1683900832.0589087
-0.0445258,-0.002335481,0.9815694,0.0005340576,-0.0004005432,-0.0016021729,-0.43776438,-0.016953796,9.79686,2,1683900832.0896478
-0.042084157,0.0013193953,0.9827826,0.0005340576,-0.0004005432,-0.0016021729,-0.43776438,-0.016953796,9.79686,2,1683900832.1101577
-0.042084157,0.0013193953,0.9827826,0.0005340576,-0.0004005432,-0.0016021729,-0.4378341,-0.01692725,9.796857,2,1683900832.1152513
-0.042084157,0.0013193953,0.9827826,0.0005340576,-0.0004005432,-0.0005340576,-0.4378341,-0.01692725,9.796857,2,1683900832.1203856
-0.04525374,-0.0018501864,0.98132676,0.0005340576,-0.0004005432,-0.0005340576,-0.4378341,-0.01692725,9.796857,2,1683900832.1255214
-0.04525374,-0.0018501864,0.98132676,0.0005340576,-0.0004005432,-0.0005340576,-0.43755996,-0.016772179,9.796869,2,1683900832.156304
-0.04525374,-0.0018501864,0.98132676,0.0005340576,-0.0004005432,0.0005340576,-0.43755996,-0.016772179,9.796869,2,1683900832.1665823
-0.04428315,-0.0020928339,0.9805988,0.0005340576,-0.0004005432,0.0005340576,-0.43755996,-0.016772179,9.796869,2,1683900832.181965
-0.04428315,-0.0020928339,0.9805988,0.0005340576,-0.0004005432,0.0005340576,-0.4378532,-0.016933633,9.796856,2,1683900832.1870966
-0.04525374,0.0025477977,0.98084146,0.0005340576,-0.0004005432,0.0005340576,-0.4378532,-0.016933633,9.796856,2,1683900832.2281027
-0.04305475,-0.0011222442,0.98009837,0.0005340576,-0.0004005432,0.0005340576,-0.4378532,-0.016933633,9.796856,2,1683900832.2434602
-0.04305475,-0.0011222442,0.98009837,0.0005340576,-0.0004005432,0.0005340576,-0.43785948,-0.016188532,9.796856,2,1683900832.2485852
-0.04305475,-0.0011222442,0.98009837,0.0005340576,0.000667572,0.0005340576,-0.43785948,-0.016188532,9.796856,2,1683900832.258849
-0.041098405,0.0015620426,0.98132676,0.0005340576,0.000667572,0.0005340576,-0.43785948,-0.016188532,9.796856,2,1683900832.269101
-0.041098405,0.0015620426,0.98132676,0.0005340576,-0.0004005432,-0.0005340576,-0.43785948,-0.016188532,9.796856,2,1683900832.2895782
-0.041098405,0.0015620426,0.98132676,0.0005340576,-0.0004005432,-0.0005340576,-0.4376123,-0.015898922,9.796868,2,1683900832.2946777
-0.045011092,0.002790445,0.9815694,0.0005340576,-0.0004005432,-0.0005340576,-0.4376123,-0.015898922,9.796868,2,1683900832.310078
-0.045011092,0.002790445,0.9815694,0.0005340576,-0.0004005432,-0.0005340576,-0.43789122,-0.015441954,9.796857,2,1683900832.3152022
-0.045011092,0.002790445,0.9815694,0.0016021729,0.000667572,0.0005340576,-0.43789122,-0.015441954,9.796857,2,1683900832.3203328
-0.045011092,0.002790445,0.9815694,0.0016021729,0.000667572,0.0005340576,-0.4379946,-0.014716749,9.796853,2,1683900832.3664508
-0.045011092,0.002790445,0.9815694,-0.0005340576,0.000667572,0.0005340576,-0.4379946,-0.014716749,9.796853,2,1683900832.371544
-0.040855754,-0.002335481,0.98132676,-0.0005340576,0.000667572,0.0005340576,-0.4379946,-0.014716749,9.796853,2,1683900832.3766782
-0.040855754,-0.002335481,0.98132676,-0.0005340576,0.000667572,0.0005340576,-0.43796718,-0.01485857,9.796854,2,1683900832.4074216
-0.040855754,-0.002335481,0.98132676,0.0005340576,0.000667572,-0.0005340576,-0.43796718,-0.01485857,9.796854,2,1683900832.4125519
-0.040855754,-0.002335481,0.98132676,-0.0005340576,0.000667572,-0.0005340576,-0.43796718,-0.01485857,9.796854,2,1683900832.4228055
-0.045011092,-0.0025781286,0.9798557,-0.0005340576,0.000667572,-0.0005340576,-0.43796718,-0.01485857,9.796854,2,1683900832.427941
-0.045011092,-0.0025781286,0.9798557,-0.0005340576,0.000667572,-0.0005340576,-0.4380998,-0.014666408,9.796848,2,1683900832.4535224
-0.045739036,0.00010615824,0.98229736,-0.0005340576,0.000667572,-0.0005340576,-0.4380998,-0.014666408,9.796848,2,1683900832.4586499
-0.045739036,0.00010615824,0.98229736,0.0005340576,0.000667572,-0.0016021729,-0.4380998,-0.014666408,9.796848,2,1683900832.46891
-0.04134105,-0.003078589,0.98132676,0.0005340576,0.000667572,-0.0016021729,-0.4380998,-0.014666408,9.796848,2,1683900832.4894545
-0.045011092,0.00327574,0.9842537,0.0005340576,0.000667572,-0.0016021729,-0.4380998,-0.014666408,9.796848,2,1683900832.4945831
-0.045011092,0.00327574,0.9842537,0.0005340576,0.000667572,-0.0016021729,-0.43792284,-0.014777191,9.796857,2,1683900832.5048423
-0.045011092,0.00327574,0.9842537,0.0016021729,-0.0004005432,0.0005340576,-0.43792284,-0.014777191,9.796857,2,1683900832.5202348
-0.045011092,0.00327574,0.9842537,0.0016021729,-0.0004005432,0.0005340576,-0.4379295,-0.014790198,9.796856,2,1683900832.525366
-0.0428121,-0.0011222442,0.9827826,0.0016021729,-0.0004005432,0.0005340576,-0.4379295,-0.014790198,9.796856,2,1683900832.561242
-0.0428121,-0.0011222442,0.9827826,-0.0005340576,-0.0004005432,0.0005340576,-0.4379295,-0.014790198,9.796856,2,1683900832.5766253
-0.0428121,-0.0011222442,0.9827826,-0.0005340576,-0.0004005432,0.0005340576,-0.43751562,-0.013931181,9.796875,2,1683900832.5868876
-0.0428121,-0.0011222442,0.9827826,-0.0005340576,-0.0004005432,0.0005340576,-0.4376286,-0.014353513,9.79687,2,1683900832.597143
-0.0428121,-0.0011222442,0.9827826,0.0005340576,-0.0004005432,-0.0016021729,-0.4376286,-0.014353513,9.79687,2,1683900832.612443
-0.040855754,0.0015620426,0.9810841,0.0005340576,-0.0004005432,-0.0016021729,-0.4376286,-0.014353513,9.79687,2,1683900832.6175628
-0.04134105,-0.004534473,0.9827826,0.0005340576,-0.0004005432,-0.0016021729,-0.4376286,-0.014353513,9.79687,2,1683900832.632951
-0.04134105,-0.004534473,0.9827826,0.0005340576,-0.0004005432,-0.0016021729,-0.4371935,-0.01440858,9.796888,2,1683900832.638076
-0.04134105,-0.004534473,0.9827826,0.0005340576,-0.0004005432,-0.0016021729,-0.4369466,-0.014729633,9.796901,2,1683900832.64831
-0.04134105,-0.004534473,0.9827826,-0.0005340576,-0.0004005432,0.0005340576,-0.4369466,-0.014729633,9.796901,2,1683900832.6585655
-0.04378269,0.00034880562,0.98084146,-0.0005340576,-0.0004005432,0.0005340576,-0.4369466,-0.014729633,9.796901,2,1683900832.673837
-0.04378269,0.00034880562,0.98084146,-0.0005340576,-0.0004005432,0.0005340576,-0.43693885,-0.014684695,9.796901,2,1683900832.6840985
-0.0445258,-0.0018501864,0.9815694,-0.0005340576,-0.0004005432,0.0005340576,-0.43693885,-0.014684695,9.796901,2,1683900832.6892257
-0.0445258,-0.0018501864,0.9815694,0.0016021729,-0.0014686584,-0.0005340576,-0.43693885,-0.014684695,9.796901,2,1683900832.6994166
-0.0445258,-0.0018501864,0.9815694,0.0016021729,-0.0014686584,-0.0005340576,-0.43709895,-0.014857852,9.796894,2,1683900832.7250202
-0.04672479,-0.002335481,0.9820547,0.0016021729,-0.0014686584,-0.0005340576,-0.43709895,-0.014857852,9.796894,2,1683900832.7301557
-0.04672479,-0.002335481,0.9820547,-0.0005340576,0.000667572,0.0005340576,-0.43709895,-0.014857852,9.796894,2,1683900832.735249
-0.045981683,0.0022899848,0.9849816,-0.0005340576,0.000667572,0.0005340576,-0.43709895,-0.014857852,9.796894,2,1683900832.750644
-0.045981683,0.0022899848,0.9849816,0.0005340576,0.000667572,0.0005340576,-0.43709895,-0.014857852,9.796894,2,1683900832.7557669
-0.045981683,0.0022899848,0.9849816,0.0005340576,0.000667572,0.0005340576,-0.4373015,-0.014515694,9.796884,2,1683900832.7609036
-0.04402534,-0.0011222442,0.9842537,0.0005340576,0.000667572,0.0005340576,-0.4373015,-0.014515694,9.796884,2,1683900832.7762473
-0.04402534,-0.0011222442,0.9842537,-0.0005340576,0.000667572,-0.0005340576,-0.4373015,-0.014515694,9.796884,2,1683900832.7864978
-0.04402534,-0.0011222442,0.9842537,-0.0005340576,0.000667572,-0.0005340576,-0.4374027,-0.014530908,9.79688,2,1683900832.8018777
-0.04402534,-0.0011222442,0.9842537,-0.0005340576,0.000667572,-0.0005340576,-0.43737233,-0.014394611,9.796882,2,1683900832.8120928
-0.04402534,-0.0011222442,0.9842537,0.0005340576,-0.0004005432,0.0005340576,-0.43737233,-0.014394611,9.796882,2,1683900832.8274772
-0.04378269,-0.00013648917,0.98401105,0.0005340576,-0.0004005432,0.0005340576,-0.43737233,-0.014394611,9.796882,2,1683900832.8377306
-0.04378269,-0.00013648917,0.98401105,0.0005340576,-0.0004005432,0.0005340576,-0.43755636,-0.014249889,9.796873,2,1683900832.8634403
-0.04305475,-0.0033212362,0.9827826,0.0005340576,-0.0004005432,0.0005340576,-0.43755636,-0.014249889,9.796873,2,1683900832.8685749
-0.04305475,-0.0033212362,0.9827826,-0.0005340576,0.000667572,-0.0005340576,-0.43755636,-0.014249889,9.796873,2,1683900832.8839622
-0.04305475,-0.0033212362,0.9827826,-0.0005340576,0.000667572,-0.0005340576,-0.43762216,-0.014271476,9.796871,2,1683900832.8992755
-0.04305475,-0.0033212362,0.9827826,0.0005340576,-0.0004005432,-0.0005340576,-0.43762216,-0.014271476,9.796871,2,1683900832.9043984
-0.0428121,-0.0013648917,0.9815694,0.0005340576,-0.0004005432,-0.0005340576,-0.43762216,-0.014271476,9.796871,2,1683900832.9146256
-0.0428121,-0.0013648917,0.9815694,0.0005340576,-0.0014686584,0.0005340576,-0.43762216,-0.014271476,9.796871,2,1683900832.9248474
-0.0428121,-0.0013648917,0.9815694,0.0005340576,-0.0014686584,0.0005340576,-0.43853438,-0.0142344935,9.796829,2,1683900832.9299467
-0.0428121,-0.0013648917,0.9815694,-0.0005340576,0.000667572,0.0016021729,-0.43853438,-0.0142344935,9.796829,2,1683900832.9402034
-0.043297395,-0.002335481,0.98132676,-0.0005340576,0.000667572,0.0016021729,-0.43853438,-0.0142344935,9.796829,2,1683900832.9709527
-0.043297395,0.00010615824,0.9837684,-0.0005340576,0.000667572,0.0016021729,-0.43853438,-0.0142344935,9.796829,2,1683900832.9862978
-0.043297395,0.00010615824,0.9837684,-0.0005340576,-0.0004005432,-0.0005340576,-0.43853438,-0.0142344935,9.796829,2,1683900833.0016887
-0.046967436,-0.0018501864,0.98401105,-0.0005340576,-0.0004005432,-0.0005340576,-0.43853438,-0.0142344935,9.796829,2,1683900833.0119843
-0.045011092,-0.0018501864,0.9815694,-0.0005340576,-0.0004005432,-0.0005340576,-0.43853438,-0.0142344935,9.796829,2,1683900833.017145
-0.045011092,-0.0018501864,0.9815694,0.0005340576,0.000667572,-0.0005340576,-0.43853438,-0.0142344935,9.796829,2,1683900833.0222793
-0.045011092,-0.0018501864,0.9815694,0.0005340576,0.000667572,-0.0005340576,-0.4381333,-0.01415143,9.796848,2,1683900833.02737
-0.045011092,-0.0018501864,0.9815694,0.0005340576,0.000667572,-0.0005340576,-0.43842918,-0.014078602,9.796835,2,1683900833.0428052
-0.043297395,-0.0013648917,0.98181206,0.0005340576,0.000667572,-0.0005340576,-0.43842918,-0.014078602,9.796835,2,1683900833.0530813
-0.043297395,-0.0013648917,0.98181206,-0.0005340576,0.000667572,0.0005340576,-0.43842918,-0.014078602,9.796835,2,1683900833.0633883
-0.043297395,-0.0013648917,0.98181206,-0.0005340576,0.000667572,0.0005340576,-0.43852493,-0.013972791,9.796831,2,1683900833.0839229
-0.04134105,-0.0020928339,0.9820547,-0.0005340576,0.000667572,0.0005340576,-0.43852493,-0.013972791,9.796831,2,1683900833.0993123
-0.04134105,-0.0020928339,0.9820547,0.0016021729,0.000667572,-0.0005340576,-0.43852493,-0.013972791,9.796831,2,1683900833.1146615
-0.04134105,-0.0020928339,0.9820547,0.0005340576,0.000667572,-0.0005340576,-0.43852493,-0.013972791,9.796831,2,1683900833.1197877
-0.04622433,-0.0025781286,0.98132676,0.0005340576,0.000667572,-0.0005340576,-0.43852493,-0.013972791,9.796831,2,1683900833.130048
-0.04622433,-0.0025781286,0.98132676,0.0005340576,0.000667572,-0.0005340576,-0.4386128,-0.013915541,9.796827,2,1683900833.160828
-0.042084157,-0.002820776,0.98009837,0.0005340576,0.000667572,-0.0005340576,-0.4386128,-0.013915541,9.796827,2,1683900833.165965
-0.042084157,-0.002820776,0.98009837,-0.0005340576,0.000667572,-0.0005340576,-0.4386128,-0.013915541,9.796827,2,1683900833.1762323
-0.042084157,-0.002820776,0.98009837,-0.0005340576,0.000667572,-0.0005340576,-0.43833297,-0.013872137,9.79684,2,1683900833.196705
-0.042084157,-0.002820776,0.98009837,-0.0005340576,0.000667572,-0.0005340576,-0.43806326,-0.013761876,9.796852,2,1683900833.2018328
-0.042084157,-0.002820776,0.98009837,-0.0005340576,0.000667572,-0.0005340576,-0.43873185,-0.015123452,9.79682,2,1683900833.206964
-0.042084157,-0.002820776,0.98009837,0.0005340576,-0.0004005432,-0.0016021729,-0.43873185,-0.015123452,9.79682,2,1683900833.2172256
-0.042084157,-0.002820776,0.98009837,0.0005340576,-0.0004005432,-0.0016021729,-0.4387631,-0.0152537115,9.796819,2,1683900833.2428567
-0.042084157,-0.002820776,0.98009837,-0.0005340576,-0.0004005432,-0.0005340576,-0.4387631,-0.0152537115,9.796819,2,1683900833.2582662
-0.042569455,-0.002820776,0.98229736,-0.0005340576,-0.0004005432,-0.0005340576,-0.4387631,-0.0152537115,9.796819,2,1683900833.2633603
-0.042569455,-0.002820776,0.98229736,0.0016021729,0.000667572,-0.0005340576,-0.4387631,-0.0152537115,9.796819,2,1683900833.2684906
-0.042569455,-0.002820776,0.98229736,0.0016021729,0.000667572,-0.0005340576,-0.4389152,-0.015184734,9.796812,2,1683900833.2838736
-0.0428121,0.00034880562,0.98229736,0.0016021729,0.000667572,-0.0005340576,-0.4389152,-0.015184734,9.796812,2,1683900833.294129
-0.043297395,-0.002335481,0.98181206,0.0016021729,0.000667572,-0.0005340576,-0.4389152,-0.015184734,9.796812,2,1683900833.3197148
-0.043297395,-0.002335481,0.98181206,-0.0005340576,-0.0004005432,0.0005340576,-0.4389152,-0.015184734,9.796812,2,1683900833.3248248
-0.043297395,-0.002335481,0.98181206,-0.0005340576,-0.0004005432,0.0005340576,-0.43880382,-0.015300078,9.796816,2,1683900833.3299522
-0.043297395,-0.002335481,0.98181206,0.0016021729,0.000667572,-0.0005340576,-0.43880382,-0.015300078,9.796816,2,1683900833.3453252
-0.043297395,-0.002820776,0.9832831,0.0016021729,0.000667572,-0.0005340576,-0.43880382,-0.015300078,9.796816,2,1683900833.3555832
-0.043297395,-0.002820776,0.9832831,0.0005340576,0.000667572,0.0005340576,-0.43880382,-0.015300078,9.796816,2,1683900833.3607087
-0.041098405,-0.0008795968,0.9832831,0.0005340576,0.000667572,0.0005340576,-0.43880382,-0.015300078,9.796816,2,1683900833.365837
-0.041098405,-0.0008795968,0.9832831,0.0005340576,0.000667572,0.0005340576,-0.43848863,-0.015350526,9.796829,2,1683900833.3914523
-0.041098405,-0.0008795968,0.9832831,0.0005340576,0.0017356873,-0.0005340576,-0.43848863,-0.015350526,9.796829,2,1683900833.4017177
-0.043297395,0.0015620426,0.9820547,0.0005340576,0.0017356873,-0.0005340576,-0.43848863,-0.015350526,9.796829,2,1683900833.406849
-0.043297395,0.0015620426,0.9820547,0.0005340576,0.0017356873,-0.0005340576,-0.4385191,-0.015067973,9.796829,2,1683900833.417109
-0.043297395,0.0015620426,0.9820547,0.0005340576,0.0017356873,-0.0005340576,-0.43823218,-0.014938498,9.796843,2,1683900833.4426665
-0.041598864,-0.001607539,0.98352575,0.0005340576,0.0017356873,-0.0005340576,-0.43823218,-0.014938498,9.796843,2,1683900833.4580631
-0.041598864,-0.001607539,0.98352575,0.0016021729,0.0017356873,0.0005340576,-0.43823218,-0.014938498,9.796843,2,1683900833.4631956
-0.045981683,-0.0020928339,0.9820547,0.0016021729,0.0017356873,0.0005340576,-0.43823218,-0.014938498,9.796843,2,1683900833.493981
-0.045981683,-0.0020928339,0.9820547,0.0016021729,0.0017356873,0.0005340576,-0.43768415,-0.016043032,9.7968645,2,1683900833.4991128
-0.045981683,-0.0020928339,0.9820547,0.0005340576,-0.0004005432,0.0005340576,-0.43768415,-0.016043032,9.7968645,2,1683900833.5093727
-0.041598864,-0.0013648917,0.98352575,0.0005340576,-0.0004005432,0.0005340576,-0.43768415,-0.016043032,9.7968645,2,1683900833.524758
-0.041598864,-0.0013648917,0.98352575,0.0005340576,-0.0004005432,0.0005340576,-0.43758592,-0.016176976,9.796869,2,1683900833.5298874
-0.041598864,-0.0013648917,0.98352575,-0.0005340576,0.000667572,-0.0005340576,-0.43758592,-0.016176976,9.796869,2,1683900833.5350661
-0.043297395,-0.0025781286,0.98181206,-0.0005340576,0.000667572,-0.0005340576,-0.43758592,-0.016176976,9.796869,2,1683900833.56068
-0.043297395,-0.0025781286,0.98181206,-0.0005340576,0.0017356873,-0.0005340576,-0.43758592,-0.016176976,9.796869,2,1683900833.565817
-0.045011092,-0.0011222442,0.9820547,-0.0005340576,0.0017356873,-0.0005340576,-0.43758592,-0.016176976,9.796869,2,1683900833.606741
-0.045011092,-0.0011222442,0.9820547,0.0005340576,-0.0004005432,0.0005340576,-0.43758592,-0.016176976,9.796869,2,1683900833.6118379
-0.045011092,-0.0011222442,0.9820547,0.0005340576,-0.0004005432,0.0005340576,-0.43778893,-0.016032465,9.796861,2,1683900833.6169684
-0.045739036,-0.000394302,0.98254,0.0005340576,-0.0004005432,0.0005340576,-0.43778893,-0.016032465,9.796861,2,1683900833.6271937
-0.045739036,-0.000394302,0.98254,0.0005340576,0.0017356873,-0.0016021729,-0.43778893,-0.016032465,9.796861,2,1683900833.637389
-0.045739036,-0.000394302,0.98254,0.0005340576,0.0017356873,-0.0016021729,-0.437878,-0.015958581,9.796857,2,1683900833.642517
-0.045739036,-0.000394302,0.98254,0.0005340576,-0.0004005432,-0.0005340576,-0.437878,-0.015958581,9.796857,2,1683900833.6629698
-0.045739036,-0.000394302,0.98254,0.0005340576,-0.0004005432,-0.0005340576,-0.43778577,-0.016195005,9.796861,2,1683900833.6731942
-0.042084157,-0.0033212362,0.98229736,0.0005340576,-0.0004005432,-0.0005340576,-0.43778577,-0.016195005,9.796861,2,1683900833.6885414
-0.042084157,-0.0033212362,0.98229736,-0.0016021729,0.000667572,-0.0005340576,-0.43778577,-0.016195005,9.796861,2,1683900833.698727
-0.042084157,-0.0033212362,0.98229736,-0.0016021729,0.000667572,-0.0005340576,-0.43772024,-0.016377347,9.796864,2,1683900833.7089167
-0.042084157,-0.0033212362,0.98229736,-0.0016021729,0.000667572,-0.0005340576,-0.43756762,-0.016340988,9.79687,2,1683900833.7191715
-0.041598864,-0.0008795968,0.9810841,-0.0016021729,0.000667572,-0.0005340576,-0.43756762,-0.016340988,9.79687,2,1683900833.7396507
-0.041598864,-0.0008795968,0.9810841,-0.0005340576,0.000667572,-0.0005340576,-0.43756762,-0.016340988,9.79687,2,1683900833.749905
-0.042326804,-0.0038065312,0.98229736,-0.0005340576,0.000667572,-0.0005340576,-0.43756762,-0.016340988,9.79687,2,1683900833.7601657
-0.042326804,-0.0038065312,0.98229736,-0.0005340576,-0.0004005432,0.0005340576,-0.43756762,-0.016340988,9.79687,2,1683900833.7755454
-0.04549639,-0.0040491787,0.9827826,-0.0005340576,-0.0004005432,0.0005340576,-0.43756762,-0.016340988,9.79687,2,1683900833.7858067
-0.04549639,-0.0040491787,0.9827826,-0.0005340576,-0.0004005432,0.0005340576,-0.43758208,-0.016711524,9.796869,2,1683900833.7909331
-0.04549639,-0.0040491787,0.9827826,-0.0005340576,-0.0004005432,0.0005340576,-0.4376045,-0.017151216,9.796866,2,1683900833.8011947
-0.04549639,-0.0040491787,0.9827826,0.0005340576,0.000667572,0.0005340576,-0.4376045,-0.017151216,9.796866,2,1683900833.8267922
-0.039885167,-0.002820776,0.98132676,0.0005340576,0.000667572,0.0005340576,-0.4376045,-0.017151216,9.796866,2,1683900833.8319292
-0.039885167,-0.002820776,0.98132676,0.0005340576,0.000667572,0.0005340576,-0.43707776,-0.017341433,9.796889,2,1683900833.8523958
-0.039885167,-0.002820776,0.98132676,0.0005340576,0.000667572,0.0005340576,-0.4368934,-0.017528065,9.796898,2,1683900833.8729155
-0.039885167,-0.002820776,0.98132676,0.0005340576,0.000667572,-0.0005340576,-0.4368934,-0.017528065,9.796898,2,1683900833.8780506
-0.042084157,-0.003078589,0.9842537,0.0005340576,0.000667572,-0.0005340576,-0.4368934,-0.017528065,9.796898,2,1683900833.8831792
-0.042084157,-0.003078589,0.9842537,0.0005340576,0.000667572,-0.0005340576,-0.43688858,-0.017610144,9.796898,2,1683900833.8985217
-0.042084157,-0.003078589,0.9842537,0.0005340576,0.0017356873,0.0005340576,-0.43688858,-0.017610144,9.796898,2,1683900833.9087732
-0.0428121,-0.003078589,0.9842537,0.0005340576,0.0017356873,0.0005340576,-0.43688858,-0.017610144,9.796898,2,1683900833.9139018
-0.0428121,-0.003078589,0.9842537,-0.0005340576,0.000667572,0.0005340576,-0.43688858,-0.017610144,9.796898,2,1683900833.9344096
-0.04402534,0.00059145305,0.9832831,-0.0005340576,0.000667572,0.0005340576,-0.43688858,-0.017610144,9.796898,2,1683900833.939536
-0.04402534,0.00059145305,0.9832831,-0.0005340576,0.000667572,0.0005340576,-0.43717715,-0.017294072,9.7968855,2,1683900833.9446647
-0.04402534,0.00059145305,0.9832831,0.0005340576,-0.0004005432,0.0005340576,-0.43717715,-0.017294072,9.7968855,2,1683900833.9549246
-0.047452733,-0.002335481,0.9805988,0.0005340576,-0.0004005432,0.0005340576,-0.43717715,-0.017294072,9.7968855,2,1683900833.965327
-0.047452733,-0.002335481,0.9805988,0.0005340576,-0.0004005432,0.0005340576,-0.43773204,-0.017506655,9.796861,2,1683900833.9704564
-0.04402534,-0.003078589,0.9805988,0.0005340576,-0.0004005432,0.0005340576,-0.43773204,-0.017506655,9.796861,2,1683900834.036721
-0.04402534,-0.003078589,0.9805988,0.0005340576,-0.0004005432,0.0005340576,-0.43781686,-0.018015984,9.796855,2,1683900834.057052
-0.04305475,-0.00063694944,0.98254,0.0005340576,-0.0004005432,0.0005340576,-0.43781686,-0.018015984,9.796855,2,1683900834.0672116
-0.04305475,-0.00063694944,0.98254,0.0005340576,0.000667572,0.0005340576,-0.43781686,-0.018015984,9.796855,2,1683900834.0723138
-0.04305475,-0.00063694944,0.98254,0.0016021729,0.000667572,-0.0005340576,-0.43781686,-0.018015984,9.796855,2,1683900834.0825841
-0.042569455,0.00059145305,0.9815694,0.0016021729,0.000667572,-0.0005340576,-0.43781686,-0.018015984,9.796855,2,1683900834.0980048
-0.042569455,0.00059145305,0.9815694,0.0016021729,0.000667572,-0.0005340576,-0.43769827,-0.01770899,9.796861,2,1683900834.1031406
-0.0445258,-0.0033212362,0.9842537,0.0016021729,0.000667572,-0.0005340576,-0.43769827,-0.01770899,9.796861,2,1683900834.128766
-0.0445258,-0.0033212362,0.9842537,0.0016021729,0.000667572,-0.0005340576,-0.4374779,-0.01784313,9.79687,2,1683900834.1339056
-0.0445258,-0.0033212362,0.9842537,0.0005340576,-0.0004005432,0.0005340576,-0.4374779,-0.01784313,9.79687,2,1683900834.144121
-0.0445258,-0.0033212362,0.9842537,-0.0005340576,0.000667572,-0.0005340576,-0.4374779,-0.01784313,9.79687,2,1683900834.149257
-0.044768445,-0.0011222442,0.9820547,-0.0005340576,0.000667572,-0.0005340576,-0.4374779,-0.01784313,9.79687,2,1683900834.1594665
-0.044768445,-0.0011222442,0.9820547,-0.0005340576,0.000667572,-0.0005340576,-0.43762323,-0.017973986,9.7968645,2,1683900834.1697366
-0.044768445,-0.0020928339,0.9805988,-0.0005340576,0.000667572,-0.0005340576,-0.43762323,-0.017973986,9.7968645,2,1683900834.1954558
-0.044768445,-0.0020928339,0.9805988,-0.0005340576,-0.0004005432,0.0005340576,-0.43762323,-0.017973986,9.7968645,2,1683900834.2006264
-0.044768445,-0.0020928339,0.9805988,-0.0005340576,-0.0004005432,0.0005340576,-0.43760785,-0.018374495,9.7968645,2,1683900834.205816
-0.042084157,-0.0038065312,0.9805988,-0.0005340576,-0.0004005432,0.0005340576,-0.43760785,-0.018374495,9.7968645,2,1683900834.2264068
-0.042084157,-0.0038065312,0.9805988,-0.0005340576,-0.0004005432,0.0005340576,-0.43750772,-0.018607736,9.796869,2,1683900834.231532
-0.042084157,-0.0038065312,0.9805988,0.0005340576,-0.0004005432,0.0005340576,-0.43750772,-0.018607736,9.796869,2,1683900834.241777
-0.042084157,-0.0038065312,0.9805988,0.0005340576,0.000667572,-0.0005340576,-0.43750772,-0.018607736,9.796869,2,1683900834.2674851
-0.042084157,-0.0038065312,0.9805988,0.0005340576,0.000667572,-0.0005340576,-0.43791932,-0.018665235,9.79685,2,1683900834.2726676
-0.047452733,-0.0011222442,0.9810841,0.0005340576,0.000667572,-0.0005340576,-0.43791932,-0.018665235,9.79685,2,1683900834.2778285
-0.047452733,-0.0011222442,0.9810841,-0.0016021729,-0.0004005432,0.0005340576,-0.43791932,-0.018665235,9.79685,2,1683900834.2932677
-0.04549639,-0.002335481,0.98522425,-0.0016021729,-0.0004005432,0.0005340576,-0.43791932,-0.018665235,9.79685,2,1683900834.2984116
-0.04549639,-0.002335481,0.98522425,-0.0016021729,-0.0004005432,0.0005340576,-0.43819314,-0.018736705,9.796838,2,1683900834.3138528
-0.0428121,-0.00013648917,0.9827826,-0.0016021729,-0.0004005432,0.0005340576,-0.43819314,-0.018736705,9.796838,2,1683900834.3241549
-0.0428121,-0.00013648917,0.9827826,-0.0005340576,0.000667572,0.0005340576,-0.43819314,-0.018736705,9.796838,2,1683900834.3344507
-0.0428121,-0.00013648917,0.9827826,-0.0005340576,0.000667572,0.0005340576,-0.43730783,-0.018717404,9.796876,2,1683900834.375602
-0.040613107,-0.00013648917,0.98132676,-0.0005340576,0.000667572,0.0005340576,-0.43730783,-0.018717404,9.796876,2,1683900834.385887
-0.040613107,-0.00013648917,0.98132676,-0.0005340576,0.000667572,0.0005340576,-0.43733427,-0.018635971,9.796876,2,1683900834.4013875
-0.040613107,-0.00013648917,0.98132676,0.0005340576,0.000667572,-0.0005340576,-0.43733427,-0.018635971,9.796876,2,1683900834.4116962
-0.040613107,-0.00013648917,0.98132676,0.0005340576,0.000667572,-0.0005340576,-0.4371971,-0.018641455,9.796882,2,1683900834.4374485
-0.040613107,-0.00013648917,0.98132676,-0.0005340576,0.000667572,0.0005340576,-0.4371971,-0.018641455,9.796882,2,1683900834.4425976
-0.0445258,-0.002335481,0.9827826,-0.0005340576,0.000667572,0.0005340576,-0.4371971,-0.018641455,9.796882,2,1683900834.4477232
-0.04428315,-0.005505063,0.9798557,-0.0005340576,0.000667572,0.0005340576,-0.4371971,-0.018641455,9.796882,2,1683900834.4631271
-0.04428315,-0.005505063,0.9798557,-0.0005340576,0.0017356873,0.0005340576,-0.4371971,-0.018641455,9.796882,2,1683900834.4682734
-0.04428315,-0.005505063,0.9798557,-0.0005340576,0.0017356873,0.0005340576,-0.4374155,-0.019032871,9.796871,2,1683900834.478553
-0.04428315,-0.005505063,0.9798557,-0.0005340576,0.0017356873,0.0005340576,-0.4371825,-0.018790154,9.796883,2,1683900834.4888394
-0.04428315,-0.005505063,0.9798557,0.0005340576,-0.0004005432,0.0005340576,-0.4371825,-0.018790154,9.796883,2,1683900834.504288
-0.040127814,-0.00013648917,0.97815716,0.0005340576,-0.0004005432,0.0005340576,-0.4371825,-0.018790154,9.796883,2,1683900834.5145996
-0.040127814,-0.00013648917,0.97815716,-0.0016021729,0.000667572,-0.0005340576,-0.4371825,-0.018790154,9.796883,2,1683900834.524931
-0.045739036,-0.0033212362,0.98304045,-0.0016021729,0.000667572,-0.0005340576,-0.4371825,-0.018790154,9.796883,2,1683900834.540336
-0.045739036,-0.0033212362,0.98304045,-0.0016021729,0.000667572,-0.0005340576,-0.43717158,-0.019160563,9.796883,2,1683900834.545499
-0.04134105,-0.0025781286,0.9810841,-0.0016021729,0.000667572,-0.0005340576,-0.43717158,-0.019160563,9.796883,2,1683900834.5764163
-0.04134105,-0.0025781286,0.9810841,-0.0016021729,0.000667572,-0.0005340576,-0.4370031,-0.01918907,9.796889,2,1683900834.5866957
-0.04134105,-0.0025781286,0.9810841,0.0005340576,0.000667572,0.0005340576,-0.4370031,-0.01918907,9.796889,2,1683900834.591788
-0.04402534,-0.0020928339,0.9832831,0.0005340576,0.000667572,0.0005340576,-0.4370031,-0.01918907,9.796889,2,1683900834.6123135
-0.04402534,-0.0020928339,0.9832831,0.0005340576,0.000667572,0.0005340576,-0.4378276,-0.018162435,9.796855,2,1683900834.6174073
-0.04402534,-0.0020928339,0.9832831,-0.0005340576,0.000667572,0.0005340576,-0.4378276,-0.018162435,9.796855,2,1683900834.6276405
-0.043297395,-0.001607539,0.9810841,-0.0005340576,0.000667572,0.0005340576,-0.4378276,-0.018162435,9.796855,2,1683900834.648159
-0.043297395,-0.001607539,0.9810841,-0.002670288,-0.0004005432,0.0005340576,-0.4378276,-0.018162435,9.796855,2,1683900834.6532621
-0.043297395,-0.001607539,0.9810841,-0.002670288,-0.0004005432,0.0005340576,-0.43771705,-0.018222928,9.796859,2,1683900834.6738014
-0.043297395,-0.001607539,0.9810841,-0.0005340576,-0.0004005432,-0.0005340576,-0.43771705,-0.018222928,9.796859,2,1683900834.6840246
-0.04134105,-0.0011222442,0.9820547,-0.0005340576,-0.0004005432,-0.0005340576,-0.43771705,-0.018222928,9.796859,2,1683900834.6942945
-0.04134105,-0.0011222442,0.9820547,-0.0005340576,-0.0004005432,-0.0005340576,-0.43735546,-0.018019196,9.796876,2,1683900834.7096665
-0.0445258,-0.002820776,0.98229736,-0.0005340576,-0.0004005432,-0.0005340576,-0.43735546,-0.018019196,9.796876,2,1683900834.719948
-0.0445258,-0.002820776,0.98229736,-0.0005340576,-0.0004005432,-0.0005340576,-0.43732518,-0.018156022,9.796877,2,1683900834.7250893
-0.0445258,-0.002820776,0.98229736,0.0005340576,0.0017356873,-0.0005340576,-0.43732518,-0.018156022,9.796877,2,1683900834.7301853
-0.0445258,-0.002820776,0.98229736,0.0005340576,0.0017356873,-0.0005340576,-0.43758062,-0.018053023,9.796866,2,1683900834.7558627
-0.046466976,-0.0008795968,0.9810841,0.0005340576,0.0017356873,-0.0005340576,-0.43758062,-0.018053023,9.796866,2,1683900834.7609916
-0.046466976,-0.0008795968,0.9810841,0.0005340576,0.000667572,-0.0005340576,-0.43758062,-0.018053023,9.796866,2,1683900834.7711782
-0.046466976,-0.0008795968,0.9810841,0.0005340576,0.000667572,-0.0005340576,-0.4375974,-0.017744405,9.796866,2,1683900834.7865615
-0.04378269,0.00010615824,0.98304045,0.0005340576,0.000667572,-0.0005340576,-0.4375974,-0.017744405,9.796866,2,1683900834.7968235
-0.04378269,0.00010615824,0.98304045,-0.0016021729,0.000667572,-0.0005340576,-0.4375974,-0.017744405,9.796866,2,1683900834.8070827
-0.04378269,0.00010615824,0.98304045,-0.0005340576,-0.0004005432,-0.0016021729,-0.4375974,-0.017744405,9.796866,2,1683900834.8173501
-0.04378269,0.00010615824,0.98304045,-0.0005340576,-0.0004005432,-0.0016021729,-0.43761286,-0.017698808,9.796865,2,1683900834.832734
-0.04428315,-0.0008795968,0.9820547,-0.0005340576,-0.0004005432,-0.0016021729,-0.43761286,-0.017698808,9.796865,2,1683900834.8480768
-0.04549639,-0.001607539,0.9827826,-0.0005340576,-0.0004005432,-0.0016021729,-0.43761286,-0.017698808,9.796865,2,1683900834.858334
-0.04549639,-0.001607539,0.9827826,0.0005340576,0.000667572,-0.0005340576,-0.43761286,-0.017698808,9.796865,2,1683900834.8634255
-0.04549639,-0.001607539,0.9827826,0.0005340576,0.000667572,-0.0005340576,-0.4378343,-0.017424902,9.796856,2,1683900834.8685558
-0.04549639,-0.001607539,0.9827826,-0.0005340576,-0.0004005432,-0.0005340576,-0.4378343,-0.017424902,9.796856,2,1683900834.8736866
-0.04549639,-0.001607539,0.9827826,-0.0005340576,-0.0004005432,-0.0005340576,-0.4374995,-0.017894024,9.796869,2,1683900834.8839452
-0.044768445,-0.003078589,0.9810841,-0.0005340576,-0.0004005432,-0.0005340576,-0.4374995,-0.017894024,9.796869,2,1683900834.8890803
-0.044768445,-0.003078589,0.9810841,-0.0016021729,-0.0014686584,0.0005340576,-0.4374995,-0.017894024,9.796869,2,1683900834.9044323
-0.044768445,-0.003078589,0.9810841,-0.0016021729,-0.0014686584,0.0005340576,-0.43781927,-0.017308118,9.796857,2,1683900834.9095721
-0.044768445,-0.003078589,0.9810841,-0.0005340576,-0.0004005432,-0.0005340576,-0.43781927,-0.017308118,9.796857,2,1683900834.930079
-0.044768445,-0.003078589,0.9810841,-0.0005340576,-0.0004005432,-0.0005340576,-0.43752342,-0.017208409,9.79687,2,1683900834.9351878
-0.0428121,-0.00063694944,0.9827826,-0.0005340576,-0.0004005432,-0.0005340576,-0.43752342,-0.017208409,9.79687,2,1683900834.9454482
-0.0428121,-0.00063694944,0.9827826,0.0016021729,0.000667572,0.0005340576,-0.43752342,-0.017208409,9.79687,2,1683900834.9659312
-0.0428121,-0.00063694944,0.9827826,0.0016021729,0.000667572,0.0005340576,-0.43746474,-0.017154267,9.796872,2,1683900834.9812765
-0.04428315,-0.0025781286,0.9832831,0.0016021729,0.000667572,0.0005340576,-0.43746474,-0.017154267,9.796872,2,1683900835.001768
-0.04428315,-0.0025781286,0.9832831,0.0016021729,0.000667572,0.0005340576,-0.4375493,-0.017090576,9.796869,2,1683900835.0068924
-0.04428315,-0.0025781286,0.9832831,0.0005340576,-0.0004005432,-0.0016021729,-0.4375493,-0.017090576,9.796869,2,1683900835.0222845
-0.04428315,-0.00063694944,0.98084146,0.0005340576,-0.0004005432,-0.0016021729,-0.4375493,-0.017090576,9.796869,2,1683900835.0376573
-0.04428315,-0.00063694944,0.98084146,0.0005340576,-0.0004005432,-0.0016021729,-0.4371842,-0.017219938,9.7968855,2,1683900835.0684178
-0.040613107,-0.00063694944,0.98084146,0.0005340576,-0.0004005432,-0.0016021729,-0.4371842,-0.017219938,9.7968855,2,1683900835.0786722
-0.040613107,-0.00063694944,0.98084146,-0.0005340576,-0.0004005432,-0.0005340576,-0.4371842,-0.017219938,9.7968855,2,1683900835.0838034
-0.04402534,-0.0020928339,0.97961307,-0.0005340576,-0.0004005432,-0.0005340576,-0.4371842,-0.017219938,9.7968855,2,1683900835.114481
-0.04402534,-0.0020928339,0.97961307,0.0005340576,-0.0004005432,0.0016021729,-0.4371842,-0.017219938,9.7968855,2,1683900835.1247382
-0.04402534,-0.0020928339,0.97961307,0.0005340576,-0.0004005432,0.0016021729,-0.43694332,-0.017349415,9.796895,2,1683900835.1298685
-0.04402534,-0.0020928339,0.97961307,0.0005340576,-0.0014686584,0.0005340576,-0.43694332,-0.017349415,9.796895,2,1683900835.1401265
-0.04402534,-0.002820776,0.9837684,0.0005340576,-0.0014686584,0.0005340576,-0.43694332,-0.017349415,9.796895,2,1683900835.1503835
-0.045739036,-0.002335481,0.9842537,0.0005340576,-0.0014686584,0.0005340576,-0.43694332,-0.017349415,9.796895,2,1683900835.1606338
-0.045739036,-0.002335481,0.9842537,0.0005340576,-0.0014686584,0.0005340576,-0.43707678,-0.017774971,9.796888,2,1683900835.1811604
-0.045739036,-0.002335481,0.9842537,0.0005340576,-0.0004005432,0.0005340576,-0.43707678,-0.017774971,9.796888,2,1683900835.1862936
-0.045739036,-0.002335481,0.9842537,0.0005340576,-0.0004005432,0.0005340576,-0.43659973,-0.01798834,9.79691,2,1683900835.20167
-0.040855754,-0.002820776,0.9832831,0.0005340576,-0.0004005432,0.0005340576,-0.43659973,-0.01798834,9.79691,2,1683900835.211921
-0.04402534,-0.000394302,0.98254,0.0005340576,-0.0004005432,0.0005340576,-0.43659973,-0.01798834,9.79691,2,1683900835.22728
-0.04402534,-0.000394302,0.98254,0.0005340576,-0.0004005432,-0.0005340576,-0.43659973,-0.01798834,9.79691,2,1683900835.2375343
-0.04402534,-0.000394302,0.98254,0.0005340576,-0.0004005432,-0.0005340576,-0.43658692,-0.017756226,9.79691,2,1683900835.2477965
-0.044768445,0.00010615824,0.9820547,0.0005340576,-0.0004005432,-0.0005340576,-0.43658692,-0.017756226,9.79691,2,1683900835.2631876
-0.044768445,0.00010615824,0.9820547,-0.0005340576,-0.0004005432,0.0005340576,-0.43658692,-0.017756226,9.79691,2,1683900835.278576
-0.044768445,0.00010615824,0.9820547,-0.0005340576,-0.0004005432,0.0005340576,-0.4366515,-0.017624862,9.796908,2,1683900835.2837088
-0.044768445,0.00010615824,0.9820547,0.0005340576,0.000667572,0.0005340576,-0.4366515,-0.017624862,9.796908,2,1683900835.3041577
-0.045981683,-0.0020928339,0.9820547,0.0005340576,0.000667572,0.0005340576,-0.4366515,-0.017624862,9.796908,2,1683900835.30929
-0.045981683,-0.0020928339,0.9820547,0.0005340576,0.000667572,0.0005340576,-0.4368526,-0.01771709,9.796899,2,1683900835.3144455
-0.04525374,-0.004291826,0.98181206,0.0005340576,0.000667572,0.0005340576,-0.4368526,-0.01771709,9.796899,2,1683900835.3400853
-0.04525374,-0.004291826,0.98181206,0.0005340576,0.000667572,0.0005340576,-0.43692786,-0.018183216,9.796895,2,1683900835.3605962
-0.04525374,-0.004291826,0.98181206,-0.0005340576,-0.0004005432,-0.0005340576,-0.43692786,-0.018183216,9.796895,2,1683900835.365694
-0.04525374,-0.004291826,0.98181206,0.0005340576,-0.0004005432,-0.0005340576,-0.43692786,-0.018183216,9.796895,2,1683900835.375908
-0.04525374,-0.004291826,0.98181206,0.0005340576,-0.0004005432,-0.0005340576,-0.43677607,-0.0182193,9.796901,2,1683900835.3810065
-0.043540042,-0.002335481,0.98473895,0.0005340576,-0.0004005432,-0.0005340576,-0.43677607,-0.0182193,9.796901,2,1683900835.396347
-0.043540042,-0.002335481,0.98473895,0.0005340576,0.000667572,-0.0005340576,-0.43677607,-0.0182193,9.796901,2,1683900835.4116635
-0.043540042,-0.002335481,0.98473895,0.0005340576,0.000667572,-0.0005340576,-0.43773422,-0.017517908,9.79686,2,1683900835.4219248
-0.043297395,-0.0025781286,0.98449636,0.0005340576,0.000667572,-0.0005340576,-0.43773422,-0.017517908,9.79686,2,1683900835.4321024
-0.043297395,-0.0025781286,0.98449636,0.0005340576,-0.0004005432,-0.0016021729,-0.43773422,-0.017517908,9.79686,2,1683900835.437245
-0.043297395,-0.0025781286,0.98449636,0.0005340576,0.000667572,0.0005340576,-0.43773422,-0.017517908,9.79686,2,1683900835.457639
-0.043297395,-0.0025781286,0.98449636,0.0005340576,0.000667572,0.0005340576,-0.43797386,-0.017214438,9.79685,2,1683900835.4627664
-0.046466976,0.0015620426,0.98449636,0.0005340576,0.000667572,0.0005340576,-0.43797386,-0.017214438,9.79685,2,1683900835.4781237
-0.042084157,-0.00013648917,0.9820547,0.0005340576,0.000667572,0.0005340576,-0.43797386,-0.017214438,9.79685,2,1683900835.4934394
-0.042084157,-0.00013648917,0.9820547,-0.0005340576,-0.0004005432,0.0016021729,-0.43797386,-0.017214438,9.79685,2,1683900835.5037
-0.042084157,-0.00013648917,0.9820547,-0.0005340576,-0.0004005432,0.0016021729,-0.4378155,-0.01707098,9.796858,2,1683900835.508831
-0.042084157,-0.00013648917,0.9820547,-0.0005340576,-0.0004005432,0.0016021729,-0.4375274,-0.016806213,9.79687,2,1683900835.539568
-0.042084157,-0.00013648917,0.9820547,0.0005340576,0.000667572,0.0005340576,-0.4375274,-0.016806213,9.79687,2,1683900835.5446975
-0.045011092,-0.0008795968,0.9810841,0.0005340576,0.000667572,0.0005340576,-0.4375274,-0.016806213,9.79687,2,1683900835.5549588
-0.04378269,-0.000394302,0.9832831,0.0005340576,0.000667572,0.0005340576,-0.4375274,-0.016806213,9.79687,2,1683900835.5703478
-0.04378269,-0.000394302,0.9832831,0.0005340576,-0.0004005432,0.0005340576,-0.4375274,-0.016806213,9.79687,2,1683900835.5857248
-0.043540042,-0.002820776,0.9798557,0.0005340576,-0.0004005432,0.0005340576,-0.4375274,-0.016806213,9.79687,2,1683900835.6010718
-0.043540042,-0.002820776,0.9798557,0.0005340576,-0.0004005432,0.0005340576,-0.43767634,-0.016610708,9.7968645,2,1683900835.6062012
-0.043540042,-0.002820776,0.9798557,-0.0005340576,-0.0004005432,-0.0005340576,-0.43767634,-0.016610708,9.7968645,2,1683900835.611292
-0.043540042,-0.002820776,0.9798557,-0.0005340576,-0.0004005432,-0.0005340576,-0.43759918,-0.016863845,9.796867,2,1683900835.6215508
-0.043540042,-0.002820776,0.9798557,0.0005340576,0.000667572,0.0005340576,-0.43759918,-0.016863845,9.796867,2,1683900835.6369278
-0.042569455,-0.001607539,0.9810841,0.0005340576,0.000667572,0.0005340576,-0.43759918,-0.016863845,9.796867,2,1683900835.652273
-0.042569455,-0.001607539,0.9810841,0.0005340576,0.000667572,0.0005340576,-0.43764734,-0.016869454,9.796865,2,1683900835.6625245
-0.04378269,-0.003078589,0.9837684,0.0005340576,0.000667572,0.0005340576,-0.43764734,-0.016869454,9.796865,2,1683900835.6676567
-0.04378269,-0.003078589,0.9837684,0.0005340576,0.000667572,0.0005340576,-0.43766737,-0.017010987,9.7968645,2,1683900835.6932492
-0.04428315,-0.004777121,0.9810841,0.0005340576,0.000667572,0.0005340576,-0.43766737,-0.017010987,9.7968645,2,1683900835.7240574
-0.04428315,-0.004777121,0.9810841,-0.0005340576,-0.0004005432,0.0005340576,-0.43766737,-0.017010987,9.7968645,2,1683900835.7291918
-0.04428315,-0.004777121,0.9810841,-0.0005340576,-0.0004005432,0.0005340576,-0.4389335,-0.016814426,9.796808,2,1683900835.734318
-0.04428315,-0.004777121,0.9810841,-0.0005340576,-0.0004005432,0.0005340576,-0.4388658,-0.017167065,9.796811,2,1683900835.7394161
-0.043297395,-0.002820776,0.98181206,-0.0005340576,-0.0004005432,0.0005340576,-0.4388658,-0.017167065,9.796811,2,1683900835.7445471
-0.043297395,-0.002820776,0.98181206,0.0005340576,-0.0004005432,-0.0016021729,-0.4388658,-0.017167065,9.796811,2,1683900835.7547674
-0.04402534,-0.003078589,0.9842537,0.0005340576,-0.0004005432,-0.0016021729,-0.4388658,-0.017167065,9.796811,2,1683900835.785427
-0.04402534,-0.003078589,0.9842537,0.0016021729,0.000667572,0.0016021729,-0.4388658,-0.017167065,9.796811,2,1683900835.7956529
-0.04402534,-0.003078589,0.9842537,0.0016021729,0.000667572,0.0016021729,-0.43887648,-0.017410213,9.796808,2,1683900835.8007774
-0.045011092,0.00059145305,0.98084146,0.0016021729,0.000667572,0.0016021729,-0.43887648,-0.017410213,9.796808,2,1683900835.8161533
-0.045011092,0.00059145305,0.98084146,0.0016021729,0.000667572,0.0016021729,-0.43900698,-0.017142788,9.796804,2,1683900835.8212812
-0.045011092,0.00059145305,0.98084146,0.0005340576,0.000667572,0.0016021729,-0.43900698,-0.017142788,9.796804,2,1683900835.8315566
-0.045011092,0.00059145305,0.98084146,0.0005340576,0.000667572,0.0016021729,-0.43891862,-0.016962685,9.796807,2,1683900835.8469307
-0.04525374,0.00010615824,0.98084146,0.0005340576,0.000667572,0.0016021729,-0.43891862,-0.016962685,9.796807,2,1683900835.857186
-0.04525374,0.00010615824,0.98084146,-0.0005340576,0.000667572,0.0005340576,-0.43891862,-0.016962685,9.796807,2,1683900835.8674164
-0.04525374,0.00010615824,0.98084146,0.0005340576,-0.0014686584,0.0005340576,-0.43891862,-0.016962685,9.796807,2,1683900835.8930624
-0.043297395,-0.0025781286,0.9820547,0.0005340576,-0.0014686584,0.0005340576,-0.43891862,-0.016962685,9.796807,2,1683900835.8982024
-0.043297395,-0.0025781286,0.9820547,0.0005340576,-0.0014686584,0.0005340576,-0.4387452,-0.01706887,9.796816,2,1683900835.9084198
-0.04305475,-0.000394302,0.98304045,0.0005340576,-0.0014686584,0.0005340576,-0.4387452,-0.01706887,9.796816,2,1683900835.9391606
-0.04305475,-0.000394302,0.98304045,0.0005340576,0.000667572,-0.0005340576,-0.4387452,-0.01706887,9.796816,2,1683900835.9442883
-0.04305475,-0.000394302,0.98304045,0.0005340576,0.000667572,-0.0005340576,-0.4386668,-0.016974889,9.79682,2,1683900835.9494112
-0.043540042,-0.0025781286,0.9815694,0.0005340576,0.000667572,-0.0005340576,-0.4386668,-0.016974889,9.79682,2,1683900835.9596689
-0.043540042,-0.0025781286,0.9815694,0.0005340576,0.000667572,-0.0005340576,-0.43854168,-0.0168422,9.796824,2,1683900835.9699314
-0.043540042,-0.0025781286,0.9815694,0.0005340576,0.000667572,-0.0005340576,-0.43850994,-0.016646247,9.796827,2,1683900836.000645
-0.044768445,-0.002335481,0.9815694,0.0005340576,0.000667572,-0.0005340576,-0.43850994,-0.016646247,9.796827,2,1683900836.0160372
-0.044768445,-0.002335481,0.9815694,-0.0005340576,-0.0004005432,-0.0016021729,-0.43850994,-0.016646247,9.796827,2,1683900836.0262945
-0.044768445,-0.002335481,0.9815694,-0.0005340576,-0.0004005432,-0.0016021729,-0.43857765,-0.01655224,9.796824,2,1683900836.0313833
-0.041598864,0.0010767478,0.9788851,-0.0005340576,-0.0004005432,-0.0016021729,-0.43857765,-0.01655224,9.796824,2,1683900836.0416348
-0.041598864,0.0010767478,0.9788851,-0.0005340576,-0.0004005432,-0.0016021729,-0.43835512,-0.016334604,9.796834,2,1683900836.0671725
-0.041598864,0.0010767478,0.9788851,-0.0005340576,-0.0004005432,-0.0005340576,-0.43835512,-0.016334604,9.796834,2,1683900836.0876825
-0.043540042,-0.0033212362,0.98181206,-0.0005340576,-0.0004005432,-0.0005340576,-0.43835512,-0.016334604,9.796834,2,1683900836.092808
-0.043540042,-0.0033212362,0.98181206,-0.0005340576,-0.0004005432,-0.0005340576,-0.4382484,-0.016702311,9.796838,2,1683900836.103064
-0.043297395,-0.0008795968,0.9842537,-0.0005340576,-0.0004005432,-0.0005340576,-0.4382484,-0.016702311,9.796838,2,1683900836.118418
-0.043297395,-0.0008795968,0.9842537,-0.0005340576,-0.0004005432,0.0016021729,-0.4382484,-0.016702311,9.796838,2,1683900836.133781
-0.043297395,-0.0008795968,0.9842537,-0.0005340576,-0.0004005432,0.0016021729,-0.4381695,-0.016658178,9.796842,2,1683900836.13891
-0.04378269,-0.002335481,0.98132676,-0.0005340576,-0.0004005432,0.0016021729,-0.4381695,-0.016658178,9.796842,2,1683900836.149164
-0.04378269,-0.002335481,0.98132676,-0.0005340576,-0.0004005432,0.0016021729,-0.43815306,-0.016777232,9.796843,2,1683900836.1645494
-0.04378269,-0.002335481,0.98132676,0.0016021729,0.000667572,-0.0005340576,-0.43815306,-0.016777232,9.796843,2,1683900836.1799293
-0.04378269,-0.002335481,0.98132676,0.0005340576,0.000667572,-0.0005340576,-0.43815306,-0.016777232,9.796843,2,1683900836.1850543
-0.043540042,-0.00013648917,0.98254,0.0005340576,0.000667572,-0.0005340576,-0.43815306,-0.016777232,9.796843,2,1683900836.2003274
-0.043540042,-0.00013648917,0.98254,0.0005340576,0.000667572,-0.0005340576,-0.43820342,-0.016634587,9.796841,2,1683900836.2157223
-0.042084157,0.00034880562,0.98449636,0.0005340576,0.000667572,-0.0005340576,-0.43820342,-0.016634587,9.796841,2,1683900836.2259812
-0.042084157,0.00034880562,0.98449636,-0.0005340576,0.000667572,0.0005340576,-0.43820342,-0.016634587,9.796841,2,1683900836.2361948
-0.042084157,0.00034880562,0.98449636,-0.0005340576,0.000667572,0.0005340576,-0.43791443,-0.016266331,9.796854,2,1683900836.25158
-0.04305475,-0.00063694944,0.980341,-0.0005340576,0.000667572,0.0005340576,-0.43791443,-0.016266331,9.796854,2,1683900836.2669642
-0.04305475,-0.00063694944,0.980341,-0.0005340576,-0.0004005432,-0.0005340576,-0.43791443,-0.016266331,9.796854,2,1683900836.2720916
-0.04305475,-0.00063694944,0.980341,-0.0005340576,-0.0004005432,-0.0005340576,-0.43785107,-0.016137814,9.796858,2,1683900836.323313
-0.045011092,-0.0025781286,0.98352575,-0.0005340576,-0.0004005432,-0.0005340576,-0.43785107,-0.016137814,9.796858,2,1683900836.3335698
-0.045011092,-0.0025781286,0.98352575,-0.0005340576,-0.0004005432,-0.0005340576,-0.43809247,-0.016276585,9.796846,2,1683900836.3387017
-0.045011092,-0.0025781286,0.98352575,0.0005340576,0.000667572,-0.0005340576,-0.43809247,-0.016276585,9.796846,2,1683900836.3489678
-0.04305475,0.0008341004,0.98132676,0.0005340576,0.000667572,-0.0005340576,-0.43809247,-0.016276585,9.796846,2,1683900836.3899329
-0.04305475,0.0008341004,0.98132676,-0.0005340576,0.000667572,-0.0005340576,-0.43809247,-0.016276585,9.796846,2,1683900836.3950558
-0.04305475,0.0008341004,0.98132676,-0.0005340576,0.000667572,-0.0005340576,-0.43801928,-0.01597775,9.79685,2,1683900836.400188
-0.04402534,-0.0052624154,0.9832831,-0.0005340576,0.000667572,-0.0005340576,-0.43801928,-0.01597775,9.79685,2,1683900836.4155393
-0.04402534,-0.0052624154,0.9832831,0.0005340576,0.000667572,-0.0005340576,-0.43801928,-0.01597775,9.79685,2,1683900836.420678
-0.04402534,-0.0052624154,0.9832831,0.0005340576,0.000667572,-0.0005340576,-0.4380685,-0.016186098,9.796847,2,1683900836.4309309
-0.04402534,-0.0052624154,0.9832831,0.0005340576,0.0017356873,-0.0005340576,-0.4380685,-0.016186098,9.796847,2,1683900836.4565563
-0.04402534,-0.0052624154,0.9832831,-0.0016021729,0.000667572,-0.0005340576,-0.4380685,-0.016186098,9.796847,2,1683900836.466812
-0.04622433,-0.0011222442,0.98229736,-0.0016021729,0.000667572,-0.0005340576,-0.4385039,-0.01634679,9.796828,2,1683900836.4719794
-0.044768445,-0.002820776,0.98254,-0.0016021729,0.000667572,-0.0005340576,-0.4385039,-0.01634679,9.796828,2,1683900836.4923923
-0.044768445,-0.002820776,0.98254,-0.0016021729,0.000667572,-0.0005340576,-0.43865445,-0.01652236,9.796821,2,1683900836.4974816
-0.044768445,-0.002820776,0.98254,-0.0016021729,0.0017356873,0.0005340576,-0.43865445,-0.01652236,9.796821,2,1683900836.5129044
-0.044768445,-0.002820776,0.98254,-0.0016021729,0.0017356873,0.0005340576,-0.4379284,-0.01734869,9.796852,2,1683900836.51803
-0.04402534,-0.002335481,0.98304045,-0.0016021729,0.0017356873,0.0005340576,-0.4379284,-0.01734869,9.796852,2,1683900836.5231664
-0.04402534,-0.002335481,0.98304045,-0.0005340576,-0.0004005432,-0.0016021729,-0.4379284,-0.01734869,9.796852,2,1683900836.5334246
-0.0445258,-0.001607539,0.9820547,-0.0005340576,-0.0004005432,-0.0016021729,-0.4379284,-0.01734869,9.796852,2,1683900836.5539289
-0.0445258,-0.001607539,0.9820547,-0.0005340576,-0.0004005432,-0.0016021729,-0.43756208,-0.017116686,9.796868,2,1683900836.5590668
-0.04134105,-0.001607539,0.98084146,-0.0005340576,-0.0004005432,-0.0016021729,-0.43756208,-0.017116686,9.796868,2,1683900836.5641942
-0.04134105,-0.001607539,0.98084146,0.0016021729,-0.0004005432,-0.0005340576,-0.43756208,-0.017116686,9.796868,2,1683900836.5795639
-0.04134105,-0.001607539,0.98084146,0.0005340576,0.000667572,-0.0005340576,-0.43756208,-0.017116686,9.796868,2,1683900836.5898209
-0.04134105,-0.001607539,0.98084146,0.0005340576,0.000667572,-0.0005340576,-0.43780673,-0.017000126,9.796858,2,1683900836.6000824
-0.04402534,-0.0020928339,0.9815694,0.0005340576,0.000667572,-0.0005340576,-0.43780673,-0.017000126,9.796858,2,1683900836.630846
-0.04402534,-0.0020928339,0.9815694,-0.0005340576,0.000667572,-0.0016021729,-0.43780673,-0.017000126,9.796858,2,1683900836.635976
-0.04402534,-0.0020928339,0.9815694,-0.0005340576,0.000667572,-0.0016021729,-0.43770593,-0.017140878,9.796863,2,1683900836.6411014
-0.04402534,-0.0020928339,0.9815694,-0.0005340576,-0.0004005432,-0.0005340576,-0.43770593,-0.017140878,9.796863,2,1683900836.6564436
-0.04402534,-0.0020928339,0.9815694,-0.0005340576,-0.0004005432,-0.0005340576,-0.43746728,-0.017144088,9.796873,2,1683900836.6615775
-0.04378269,-0.0013648917,0.98304045,-0.0005340576,-0.0004005432,-0.0005340576,-0.43746728,-0.017144088,9.796873,2,1683900836.6769657
-0.04378269,-0.0013648917,0.98304045,-0.0005340576,-0.0004005432,-0.0005340576,-0.4374813,-0.016883092,9.796872,2,1683900836.6923246
-0.04378269,-0.0013648917,0.98304045,0.0005340576,0.000667572,0.0005340576,-0.4374813,-0.016883092,9.796872,2,1683900836.702584
-0.04378269,-0.00013648917,0.98181206,0.0005340576,0.000667572,0.0005340576,-0.4374813,-0.016883092,9.796872,2,1683900836.7077181
-0.04402534,-0.0020928339,0.98132676,0.0005340576,0.000667572,0.0005340576,-0.4374813,-0.016883092,9.796872,2,1683900836.7230484
-0.04402534,-0.0020928339,0.98132676,0.0005340576,0.000667572,0.0005340576,-0.43762362,-0.016536286,9.796866,2,1683900836.72818
-0.04402534,-0.0020928339,0.98132676,0.0005340576,0.000667572,-0.0005340576,-0.43762362,-0.016536286,9.796866,2,1683900836.7384305
-0.04402534,-0.0020928339,0.98132676,0.0005340576,-0.0004005432,0.0005340576,-0.43762362,-0.016536286,9.796866,2,1683900836.7538075
-0.04402534,-0.0020928339,0.98132676,0.0005340576,-0.0004005432,0.0005340576,-0.43743408,-0.016326608,9.796876,2,1683900836.7589426
-0.042569455,-0.0013648917,0.9827826,0.0005340576,-0.0004005432,0.0005340576,-0.43743408,-0.016326608,9.796876,2,1683900836.7692
-0.042569455,-0.0013648917,0.9827826,0.0005340576,0.000667572,0.0005340576,-0.43743408,-0.016326608,9.796876,2,1683900836.7999146
-0.042569455,-0.0013648917,0.9827826,0.0005340576,0.000667572,0.0005340576,-0.43731838,-0.016263098,9.796881,2,1683900836.8050618
-0.042326804,-0.0025781286,0.98181206,0.0005340576,0.000667572,0.0005340576,-0.43731838,-0.016263098,9.796881,2,1683900836.8152716
-0.042326804,-0.0025781286,0.98181206,0.0005340576,0.000667572,-0.0005340576,-0.43731838,-0.016263098,9.796881,2,1683900836.8203979
-0.042326804,-0.0025781286,0.98181206,0.0005340576,0.000667572,-0.0005340576,-0.4369914,-0.016420748,9.796896,2,1683900836.825492
-0.042569455,-0.0025781286,0.98254,0.0005340576,0.000667572,-0.0005340576,-0.4369914,-0.016420748,9.796896,2,1683900836.8357153
-0.042569455,-0.0025781286,0.98254,-0.0005340576,-0.0004005432,0.0005340576,-0.4369914,-0.016420748,9.796896,2,1683900836.845938
-0.042569455,-0.0025781286,0.98254,-0.0005340576,-0.0004005432,0.0005340576,-0.43677995,-0.016455902,9.796905,2,1683900836.8510664
-0.046967436,-0.002335481,0.98304045,-0.0005340576,-0.0004005432,0.0005340576,-0.43677995,-0.016455902,9.796905,2,1683900836.8664548
-0.041098405,-0.0020928339,0.98352575,-0.0005340576,-0.0004005432,0.0005340576,-0.43677995,-0.016455902,9.796905,2,1683900836.886965
-0.041098405,-0.0020928339,0.98352575,0.0005340576,-0.0004005432,-0.0005340576,-0.43677995,-0.016455902,9.796905,2,1683900836.8920999
-0.041098405,-0.0020928339,0.98352575,0.0005340576,-0.0004005432,-0.0005340576,-0.4370343,-0.016469931,9.796893,2,1683900836.9023225
-0.042326804,-0.001607539,0.9827826,0.0005340576,-0.0004005432,-0.0005340576,-0.4370343,-0.016469931,9.796893,2,1683900836.9125738
-0.042326804,-0.001607539,0.9827826,-0.0005340576,-0.0004005432,-0.0005340576,-0.4370343,-0.016469931,9.796893,2,1683900836.917698
-0.042326804,-0.001607539,0.9827826,-0.0005340576,-0.0004005432,-0.0005340576,-0.4367771,-0.016362516,9.7969055,2,1683900836.9228303
-0.045981683,-0.0033212362,0.9810841,-0.0005340576,-0.0004005432,-0.0005340576,-0.4367771,-0.016362516,9.7969055,2,1683900836.9945807
-0.045981683,-0.0033212362,0.9810841,-0.0005340576,-0.0004005432,-0.0016021729,-0.4367771,-0.016362516,9.7969055,2,1683900837.0151072
-0.045981683,-0.0033212362,0.9810841,-0.0005340576,-0.0004005432,-0.0016021729,-0.4369328,-0.016313864,9.796899,2,1683900837.0201995
-0.04549639,-0.0011222442,0.9820547,-0.0005340576,-0.0004005432,-0.0016021729,-0.4369328,-0.016313864,9.796899,2,1683900837.0253308
-0.04549639,-0.0011222442,0.9820547,-0.0005340576,-0.0004005432,-0.0016021729,-0.437154,-0.016067935,9.796888,2,1683900837.0407157
-0.04549639,-0.0011222442,0.9820547,-0.0005340576,-0.0004005432,-0.0016021729,-0.43765923,-0.014273993,9.796869,2,1683900837.0714357
-0.044768445,0.0010767478,0.9837684,-0.0005340576,-0.0004005432,-0.0016021729,-0.43765923,-0.014273993,9.796869,2,1683900837.0765963
-0.044768445,0.0010767478,0.9837684,-0.0005340576,0.000667572,-0.0005340576,-0.43765923,-0.014273993,9.796869,2,1683900837.0817623
-0.0428121,-0.0020928339,0.98181206,-0.0005340576,0.000667572,-0.0005340576,-0.43765923,-0.014273993,9.796869,2,1683900837.1125236
-0.0428121,-0.0020928339,0.98181206,-0.0005340576,0.000667572,-0.0005340576,-0.43779576,-0.0143871,9.796863,2,1683900837.1176496
-0.0428121,-0.0020928339,0.98181206,-0.0005340576,0.000667572,0.0005340576,-0.43779576,-0.0143871,9.796863,2,1683900837.1227872
-0.04525374,-0.0011222442,0.9832831,-0.0005340576,0.000667572,0.0005340576,-0.43779576,-0.0143871,9.796863,2,1683900837.1382565
-0.04525374,-0.0011222442,0.9832831,-0.0005340576,-0.0004005432,-0.0016021729,-0.43779576,-0.0143871,9.796863,2,1683900837.1485167
-0.04525374,-0.0011222442,0.9832831,-0.0005340576,-0.0004005432,-0.0016021729,-0.43773928,-0.014287482,9.796865,2,1683900837.153641
-0.045739036,-0.0011222442,0.9837684,-0.0005340576,-0.0004005432,-0.0016021729,-0.43773928,-0.014287482,9.796865,2,1683900837.1639302
-0.045739036,-0.0011222442,0.9837684,-0.0016021729,0.000667572,0.0005340576,-0.43773928,-0.014287482,9.796865,2,1683900837.1690667
-0.045739036,-0.0011222442,0.9837684,-0.0016021729,0.000667572,0.0005340576,-0.43771753,-0.014459736,9.796865,2,1683900837.1741986
-0.045739036,-0.0011222442,0.9837684,-0.0016021729,0.000667572,0.0005340576,-0.4378969,-0.014600713,9.796858,2,1683900837.199785
-0.04184151,-0.0018501864,0.9815694,-0.0016021729,0.000667572,0.0005340576,-0.4378969,-0.014600713,9.796858,2,1683900837.210045
-0.04184151,-0.0018501864,0.9815694,-0.0005340576,-0.0004005432,-0.0005340576,-0.4378969,-0.014600713,9.796858,2,1683900837.2356913
-0.04866597,-0.0025781286,0.9805988,-0.0005340576,-0.0004005432,-0.0005340576,-0.4378969,-0.014600713,9.796858,2,1683900837.2408245
-0.04866597,-0.0025781286,0.9805988,-0.0005340576,-0.0004005432,-0.0005340576,-0.43826395,-0.014748796,9.796842,2,1683900837.2459455
-0.04866597,-0.0025781286,0.9805988,-0.0005340576,-0.0004005432,-0.0005340576,-0.43880245,-0.0147861615,9.796818,2,1683900837.271553
-0.04866597,-0.004534473,0.98009837,-0.0005340576,-0.0004005432,-0.0005340576,-0.43880245,-0.0147861615,9.796818,2,1683900837.2766418
-0.04866597,-0.004534473,0.98009837,0.0005340576,0.000667572,-0.0016021729,-0.43880245,-0.0147861615,9.796818,2,1683900837.2868917
-0.043297395,-0.001607539,0.98254,0.0005340576,0.000667572,-0.0016021729,-0.43880245,-0.0147861615,9.796818,2,1683900837.3125458
-0.043297395,-0.001607539,0.98254,0.0005340576,0.000667572,0.0005340576,-0.43880245,-0.0147861615,9.796818,2,1683900837.3279376
-0.043297395,-0.001607539,0.98254,0.0005340576,0.000667572,0.0005340576,-0.43864793,-0.014648098,9.796824,2,1683900837.3330686
-0.04428315,-0.004534473,0.98522425,0.0005340576,0.000667572,0.0005340576,-0.43864793,-0.014648098,9.796824,2,1683900837.353566
-0.04428315,-0.004534473,0.98522425,0.0005340576,0.000667572,0.0005340576,-0.43906182,-0.015349058,9.796805,2,1683900837.3586986
-0.04428315,-0.004534473,0.98522425,0.0005340576,0.000667572,0.0005340576,-0.43926677,-0.015053294,9.796796,2,1683900837.3740268
-0.043540042,-0.0013648917,0.9815694,0.0005340576,0.000667572,0.0005340576,-0.43926677,-0.015053294,9.796796,2,1683900837.3791645
-0.043540042,-0.0013648917,0.9815694,0.0005340576,-0.0004005432,-0.0005340576,-0.43926677,-0.015053294,9.796796,2,1683900837.3944755
-0.0445258,-0.001607539,0.98229736,0.0005340576,-0.0004005432,-0.0005340576,-0.43926677,-0.015053294,9.796796,2,1683900837.430358
-0.04305475,-0.0033212362,0.9837684,0.0005340576,-0.0004005432,-0.0005340576,-0.43926677,-0.015053294,9.796796,2,1683900837.4406114
-0.04305475,-0.0033212362,0.9837684,0.0005340576,-0.0004005432,-0.0005340576,-0.43920386,-0.015307033,9.796799,2,1683900837.4457073
-0.04305475,-0.0033212362,0.9837684,0.0005340576,0.000667572,-0.0005340576,-0.43920386,-0.015307033,9.796799,2,1683900837.4610312
-0.0428121,-0.000394302,0.9815694,0.0005340576,0.000667572,-0.0005340576,-0.43920386,-0.015307033,9.796799,2,1683900837.481544
-0.0428121,-0.000394302,0.9815694,-0.0005340576,0.000667572,-0.0005340576,-0.43920386,-0.015307033,9.796799,2,1683900837.4918094
-0.0428121,-0.000394302,0.9815694,-0.0005340576,0.000667572,-0.0005340576,-0.43913808,-0.01523877,9.796801,2,1683900837.4969413
-0.0428121,-0.000394302,0.9815694,-0.0005340576,-0.0004005432,-0.0005340576,-0.43913808,-0.01523877,9.796801,2,1683900837.5122662
-0.043540042,-0.0011222442,0.98254,-0.0005340576,-0.0004005432,-0.0005340576,-0.43913808,-0.01523877,9.796801,2,1683900837.5173945
-0.043540042,-0.0011222442,0.98254,-0.0005340576,-0.0004005432,-0.0005340576,-0.43913603,-0.015193916,9.796801,2,1683900837.522493
-0.04402534,0.0010767478,0.98304045,-0.0005340576,-0.0004005432,-0.0005340576,-0.43913603,-0.015193916,9.796801,2,1683900837.5480728
-0.04402534,0.0010767478,0.98304045,-0.0005340576,0.000667572,0.0016021729,-0.43913603,-0.015193916,9.796801,2,1683900837.5634599
-0.04402534,0.0010767478,0.98304045,-0.0005340576,0.000667572,0.0016021729,-0.439232,-0.015030925,9.796797,2,1683900837.5685558
-0.04402534,0.0010767478,0.98304045,-0.0005340576,-0.0004005432,-0.0005340576,-0.439232,-0.015030925,9.796797,2,1683900837.594183
-0.0445258,-0.0008795968,0.98352575,-0.0005340576,-0.0004005432,-0.0005340576,-0.439232,-0.015030925,9.796797,2,1683900837.6044152
-0.045011092,0.00010615824,0.98304045,-0.0005340576,-0.0004005432,-0.0005340576,-0.439232,-0.015030925,9.796797,2,1683900837.6146789
-0.045011092,0.00010615824,0.98304045,-0.0005340576,-0.0004005432,-0.0005340576,-0.4388996,-0.01554645,9.796812,2,1683900837.6249466
-0.045011092,0.00010615824,0.98304045,0.0005340576,0.0017356873,0.0005340576,-0.4388996,-0.01554645,9.796812,2,1683900837.6300821
-0.0428121,-0.0013648917,0.98352575,0.0005340576,0.0017356873,0.0005340576,-0.4388996,-0.01554645,9.796812,2,1683900837.6453447
-0.0428121,-0.0013648917,0.98352575,0.0005340576,0.0017356873,0.0005340576,-0.43900654,-0.015446622,9.796807,2,1683900837.6658216
-0.0428121,-0.0013648917,0.98352575,0.0005340576,-0.0005340576,-0.0004005432,-0.43900654,-0.015446622,9.796807,2,1683900837.6709585
-0.0428121,-0.0013648917,0.98352575,0.002670288,-0.0005340576,0.000667572,-0.43900654,-0.015446622,9.796807,2,1683900837.6760864
-0.0428121,-0.0013648917,0.98352575,0.002670288,-0.0005340576,0.000667572,-0.43861303,-0.015428619,9.796824,2,1683900837.6914644
-0.042326804,-0.0035638837,0.9827826,0.002670288,-0.0005340576,0.000667572,-0.43861303,-0.015428619,9.796824,2,1683900837.7170424
-0.042326804,-0.0035638837,0.9827826,-0.0005340576,0.0005340576,0.000667572,-0.43861303,-0.015428619,9.796824,2,1683900837.7221923
-0.042326804,-0.0035638837,0.9827826,-0.0005340576,0.0005340576,0.000667572,-0.4385259,-0.015504787,9.796828,2,1683900837.7375064
-0.04525374,-0.0018501864,0.98132676,-0.0005340576,0.0005340576,0.000667572,-0.4385259,-0.015504787,9.796828,2,1683900837.7477255
-0.04525374,-0.0018501864,0.98132676,-0.0005340576,0.0016021729,-0.0004005432,-0.4385259,-0.015504787,9.796828,2,1683900837.7579885
-0.04525374,-0.0018501864,0.98132676,-0.0005340576,0.0016021729,-0.0004005432,-0.43886927,-0.015651807,9.796813,2,1683900837.7682507
-0.04525374,-0.0018501864,0.98132676,-0.0005340576,0.0016021729,-0.0004005432,-0.4385103,-0.015485912,9.796829,2,1683900837.783649
-0.04525374,-0.0018501864,0.98132676,0.0005340576,0.0005340576,-0.0004005432,-0.4385103,-0.015485912,9.796829,2,1683900837.7887795
-0.03939987,0.00010615824,0.9827826,0.0005340576,0.0005340576,-0.0004005432,-0.4385103,-0.015485912,9.796829,2,1683900837.8041651
-0.03939987,0.00010615824,0.9827826,0.0005340576,0.0005340576,-0.0004005432,-0.4385978,-0.015824245,9.796824,2,1683900837.8195615
-0.043540042,-0.0069761127,0.98254,0.0005340576,0.0005340576,-0.0004005432,-0.4385978,-0.015824245,9.796824,2,1683900837.8246963
-0.043540042,-0.0069761127,0.98254,-0.0005340576,0.0005340576,-0.0004005432,-0.4385978,-0.015824245,9.796824,2,1683900837.845222
-0.043540042,-0.0069761127,0.98254,-0.0005340576,0.0005340576,-0.0004005432,-0.43873793,-0.015827537,9.796818,2,1683900837.8708532
-0.04428315,-0.0013648917,0.98084146,-0.0005340576,0.0005340576,-0.0004005432,-0.43873793,-0.015827537,9.796818,2,1683900837.8759851
-0.04428315,-0.0013648917,0.98084146,-0.0005340576,0.0005340576,0.000667572,-0.43873793,-0.015827537,9.796818,2,1683900837.8862405
-0.04428315,-0.0013648917,0.98084146,0.0005340576,0.0005340576,-0.0004005432,-0.43873793,-0.015827537,9.796818,2,1683900837.8965032
-0.042084157,-0.0020928339,0.98522425,0.0005340576,0.0005340576,-0.0004005432,-0.43873793,-0.015827537,9.796818,2,1683900837.9067636
-0.042084157,-0.0020928339,0.98522425,0.0005340576,0.0005340576,-0.0004005432,-0.43703705,-0.015114331,9.796896,2,1683900837.9118907
-0.042084157,-0.0020928339,0.98522425,0.0005340576,0.0005340576,-0.0004005432,-0.4370518,-0.014705361,9.796895,2,1683900837.9272494
-0.042084157,-0.0020928339,0.98522425,-0.002670288,-0.0005340576,0.000667572,-0.4370518,-0.014705361,9.796895,2,1683900837.937497
-0.04525374,0.0025477977,0.98229736,-0.002670288,-0.0005340576,0.000667572,-0.4370518,-0.014705361,9.796895,2,1683900837.952886
-0.04525374,0.0025477977,0.98229736,-0.002670288,-0.0005340576,0.000667572,-0.43700495,-0.014681217,9.796897,2,1683900837.9631422
-0.042569455,0.00034880562,0.98254,-0.002670288,-0.0005340576,0.000667572,-0.43700495,-0.014681217,9.796897,2,1683900837.9682758
-0.042569455,0.00034880562,0.98254,0.0005340576,0.0005340576,-0.0004005432,-0.43700495,-0.014681217,9.796897,2,1683900837.9785247
-0.042569455,0.00034880562,0.98254,0.0005340576,0.0005340576,-0.0004005432,-0.43655524,-0.014980504,9.796917,2,1683900838.0093043
-0.041098405,-0.0018501864,0.98229736,0.0005340576,0.0005340576,-0.0004005432,-0.43655524,-0.014980504,9.796917,2,1683900838.014464
-0.041098405,-0.0018501864,0.98229736,0.0005340576,0.0005340576,-0.0004005432,-0.43663135,-0.014820363,9.796913,2,1683900838.0400918
-0.045739036,-0.0025781286,0.9810841,0.0005340576,0.0005340576,-0.0004005432,-0.43663135,-0.014820363,9.796913,2,1683900838.045225
-0.045739036,-0.0025781286,0.9810841,0.0005340576,0.0005340576,-0.0004005432,-0.43684703,-0.014991127,9.796905,2,1683900838.070867
-0.04378269,-0.0018501864,0.98254,0.0005340576,0.0005340576,-0.0004005432,-0.43684703,-0.014991127,9.796905,2,1683900838.0760198
-0.04378269,-0.0018501864,0.98254,-0.0016021729,0.0005340576,-0.0004005432,-0.43684703,-0.014991127,9.796905,2,1683900838.0862768
-0.04378269,-0.0018501864,0.98254,-0.0005340576,-0.0005340576,0.000667572,-0.43684703,-0.014991127,9.796905,2,1683900838.1273203
-0.04378269,-0.0018501864,0.98254,-0.0005340576,-0.0005340576,0.000667572,-0.43689588,-0.014883539,9.796902,2,1683900838.1324563
-0.04378269,-0.000394302,0.98449636,-0.0005340576,-0.0005340576,0.000667572,-0.43689588,-0.014883539,9.796902,2,1683900838.147818
-0.04378269,-0.000394302,0.98449636,-0.0005340576,-0.0005340576,0.000667572,-0.43680567,-0.014909451,9.7969055,2,1683900838.1529436
-0.04378269,-0.000394302,0.98449636,-0.0005340576,0.0005340576,0.000667572,-0.43680567,-0.014909451,9.7969055,2,1683900838.1631613
-0.04378269,-0.000394302,0.98449636,-0.0005340576,0.0005340576,0.000667572,-0.43728235,-0.015573986,9.796884,2,1683900838.1785557
-0.04622433,-0.004534473,0.98181206,-0.0005340576,0.0005340576,0.000667572,-0.43728235,-0.015573986,9.796884,2,1683900838.1939337
-0.04622433,-0.004534473,0.98181206,0.0005340576,-0.0005340576,0.000667572,-0.43728235,-0.015573986,9.796884,2,1683900838.1990695
-0.04622433,-0.004534473,0.98181206,0.0005340576,-0.0005340576,0.000667572,-0.43705392,-0.015504566,9.796894,2,1683900838.219586
-0.04184151,-0.00063694944,0.9810841,0.0005340576,-0.0005340576,0.000667572,-0.43705392,-0.015504566,9.796894,2,1683900838.2298481
-0.04184151,-0.00063694944,0.9810841,0.0005340576,-0.0005340576,-0.0004005432,-0.43705392,-0.015504566,9.796894,2,1683900838.2349808
-0.04184151,-0.00063694944,0.9810841,0.0005340576,-0.0005340576,-0.0004005432,-0.43698117,-0.015461307,9.796897,2,1683900838.2452388
-0.043297395,-0.0013648917,0.98304045,0.0005340576,-0.0005340576,-0.0004005432,-0.43698117,-0.015461307,9.796897,2,1683900838.255493
-0.0445258,-0.00063694944,0.9837684,0.0005340576,-0.0005340576,-0.0004005432,-0.43698117,-0.015461307,9.796897,2,1683900838.2760172
-0.0445258,-0.00063694944,0.9837684,0.0005340576,-0.0005340576,-0.0004005432,-0.43704957,-0.015492931,9.796894,2,1683900838.2964926
-0.0445258,-0.00063694944,0.9837684,0.0005340576,0.0005340576,-0.0004005432,-0.43704957,-0.015492931,9.796894,2,1683900838.3016198
-0.0445258,-0.00063694944,0.9837684,0.0005340576,0.0005340576,-0.0004005432,-0.43716103,-0.0154816955,9.796889,2,1683900838.3118815
-0.04305475,-0.0025781286,0.98229736,0.0005340576,0.0005340576,-0.0004005432,-0.43716103,-0.0154816955,9.796889,2,1683900838.3170102
-0.043540042,-0.0033212362,0.98304045,0.0005340576,0.0005340576,-0.0004005432,-0.43716103,-0.0154816955,9.796889,2,1683900838.3476887
-0.043540042,-0.0033212362,0.98304045,0.0005340576,0.0005340576,-0.0004005432,-0.43713048,-0.015503052,9.79689,2,1683900838.363071
-0.043540042,-0.0033212362,0.98304045,0.0005340576,0.0005340576,0.000667572,-0.43713048,-0.015503052,9.79689,2,1683900838.3784742
-0.043540042,-0.0033212362,0.98304045,0.0005340576,0.0005340576,0.000667572,-0.43708515,-0.015547985,9.796893,2,1683900838.3887281
-0.043540042,-0.0033212362,0.98304045,-0.002670288,0.0005340576,0.000667572,-0.43708515,-0.015547985,9.796893,2,1683900838.398987
-0.042326804,0.00010615824,0.98084146,-0.002670288,0.0005340576,0.000667572,-0.43708515,-0.015547985,9.796893,2,1683900838.4143672
-0.042326804,0.00010615824,0.98084146,-0.0005340576,0.0005340576,-0.0004005432,-0.43708515,-0.015547985,9.796893,2,1683900838.434808
-0.042326804,0.00010615824,0.98084146,-0.0005340576,0.0005340576,-0.0004005432,-0.4372113,-0.015394228,9.796886,2,1683900838.4450724
-0.04525374,0.00034880562,0.9815694,-0.0005340576,0.0005340576,-0.0004005432,-0.4372113,-0.015394228,9.796886,2,1683900838.4552908
-0.04525374,0.00034880562,0.9815694,0.0005340576,-0.0005340576,-0.0004005432,-0.4372113,-0.015394228,9.796886,2,1683900838.4706929
-0.04525374,0.00034880562,0.9815694,0.0005340576,-0.0005340576,-0.0004005432,-0.43815464,-0.01612872,9.796844,2,1683900838.4809422
-0.043297395,-0.0008795968,0.98181206,0.0005340576,-0.0005340576,-0.0004005432,-0.43815464,-0.01612872,9.796844,2,1683900838.50146
-0.043297395,-0.0008795968,0.98181206,0.0005340576,-0.0005340576,-0.0004005432,-0.4378353,-0.016052635,9.796858,2,1683900838.5065968
-0.043297395,-0.0008795968,0.98181206,0.0005340576,0.0005340576,-0.0004005432,-0.4378353,-0.016052635,9.796858,2,1683900838.51173
-0.042569455,-0.000394302,0.9827826,0.0005340576,0.0005340576,-0.0004005432,-0.4378353,-0.016052635,9.796858,2,1683900838.542526
-0.042569455,-0.000394302,0.9827826,0.0005340576,0.0005340576,-0.0004005432,-0.4378999,-0.015731402,9.796856,2,1683900838.5476637
-0.04378269,0.00180469,0.9832831,0.0005340576,0.0005340576,-0.0004005432,-0.4378999,-0.015731402,9.796856,2,1683900838.5527947
-0.04378269,0.00180469,0.9832831,0.0005340576,0.0005340576,-0.0004005432,-0.4379605,-0.015840536,9.796853,2,1683900838.5682638
-0.04378269,0.00180469,0.9832831,0.0005340576,-0.0016021729,-0.0004005432,-0.4379605,-0.015840536,9.796853,2,1683900838.5734153
-0.04378269,0.00180469,0.9832831,0.0005340576,-0.0005340576,0.000667572,-0.4379605,-0.015840536,9.796853,2,1683900838.588909
-0.04378269,0.00180469,0.9832831,0.0005340576,-0.0005340576,0.000667572,-0.4375391,-0.016187944,9.796871,2,1683900838.594074
-0.03964252,-0.001607539,0.9837684,0.0005340576,-0.0005340576,0.000667572,-0.4375391,-0.016187944,9.796871,2,1683900838.5991826
-0.03964252,-0.001607539,0.9837684,-0.0005340576,0.0005340576,-0.0014686584,-0.4375391,-0.016187944,9.796871,2,1683900838.6249673
-0.03964252,-0.001607539,0.9837684,-0.0005340576,-0.0005340576,-0.0004005432,-0.4375391,-0.016187944,9.796871,2,1683900838.6301227
-0.03964252,-0.001607539,0.9837684,-0.0005340576,-0.0005340576,-0.0004005432,-0.43714482,-0.016756576,9.796887,2,1683900838.6352413
-0.04184151,-0.0035638837,0.9805988,-0.0005340576,-0.0005340576,-0.0004005432,-0.43714482,-0.016756576,9.796887,2,1683900838.6455
-0.047452733,-0.0020928339,0.98181206,-0.0005340576,-0.0005340576,-0.0004005432,-0.43714482,-0.016756576,9.796887,2,1683900838.7174785
-0.04184151,-0.0035638837,0.9820547,-0.0005340576,-0.0005340576,-0.0004005432,-0.43714482,-0.016756576,9.796887,2,1683900838.727796
-0.04184151,-0.0035638837,0.9820547,0.0005340576,-0.0016021729,-0.0004005432,-0.43714482,-0.016756576,9.796887,2,1683900838.732943
-0.04184151,-0.0035638837,0.9820547,0.0005340576,-0.0016021729,-0.0004005432,-0.43730512,-0.017843595,9.796878,2,1683900838.7380688
-0.04184151,-0.0035638837,0.9820547,0.0005340576,-0.0016021729,-0.0004005432,-0.43754932,-0.01809691,9.796867,2,1683900838.7740762
-0.045739036,-0.0035638837,0.9820547,0.0005340576,-0.0016021729,-0.0004005432,-0.43754932,-0.01809691,9.796867,2,1683900838.7843535
-0.045739036,-0.0035638837,0.9820547,-0.0016021729,0.0005340576,0.000667572,-0.43754932,-0.01809691,9.796867,2,1683900838.7946525
-0.045739036,-0.0035638837,0.9820547,0.0005340576,0.0005340576,-0.0004005432,-0.43754932,-0.01809691,9.796867,2,1683900838.8049493
-0.043297395,-0.0013648917,0.9837684,0.0005340576,0.0005340576,-0.0004005432,-0.43754932,-0.01809691,9.796867,2,1683900838.8100746
-0.043297395,-0.0013648917,0.9837684,0.0005340576,0.0005340576,-0.0004005432,-0.43753958,-0.017981391,9.796867,2,1683900838.8203206
-0.041098405,0.00010615824,0.9832831,0.0005340576,0.0005340576,-0.0004005432,-0.43753958,-0.017981391,9.796867,2,1683900838.8356857
-0.041098405,0.00010615824,0.9832831,0.0016021729,0.0005340576,-0.0004005432,-0.43753958,-0.017981391,9.796867,2,1683900838.8408387
-0.041098405,0.00010615824,0.9832831,0.0016021729,0.0005340576,-0.0004005432,-0.43737584,-0.017821722,9.796876,2,1683900838.8613408
-0.041098405,0.00010615824,0.9832831,0.0016021729,0.0005340576,-0.0004005432,-0.4375819,-0.017736664,9.796866,2,1683900838.871626
-0.041098405,0.00010615824,0.9832831,0.0016021729,-0.0005340576,-0.0004005432,-0.4375819,-0.017736664,9.796866,2,1683900838.8767805
-0.04428315,-0.000394302,0.9815694,0.0016021729,-0.0005340576,-0.0004005432,-0.4375819,-0.017736664,9.796866,2,1683900838.8870502
-0.04428315,-0.000394302,0.9815694,-0.0005340576,0.0005340576,-0.0004005432,-0.4375819,-0.017736664,9.796866,2,1683900838.9231625
-0.04549639,0.00059145305,0.98254,-0.0005340576,0.0005340576,-0.0004005432,-0.4375819,-0.017736664,9.796866,2,1683900838.9283001
-0.04549639,0.00059145305,0.98254,-0.0005340576,0.0005340576,-0.0004005432,-0.43785366,-0.017554754,9.796855,2,1683900838.9334269
-0.04549639,-0.0018501864,0.98352575,-0.0005340576,0.0005340576,-0.0004005432,-0.43785366,-0.017554754,9.796855,2,1683900838.9488242
-0.04549639,-0.0018501864,0.98352575,-0.0005340576,-0.0005340576,-0.0004005432,-0.43785366,-0.017554754,9.796855,2,1683900838.9590924
-0.04549639,-0.0018501864,0.98352575,-0.0005340576,-0.0005340576,-0.0004005432,-0.43791,-0.0175786,9.796852,2,1683900838.9693565
-0.04549639,-0.0018501864,0.98352575,-0.0005340576,-0.0005340576,-0.0004005432,-0.43761897,-0.017659754,9.7968645,2,1683900838.984754
-0.04549639,-0.0018501864,0.98352575,-0.0005340576,-0.0005340576,-0.0004005432,-0.43755704,-0.018437805,9.796866,2,1683900839.0103858
-0.04549639,0.0008341004,0.98229736,-0.0005340576,-0.0005340576,-0.0004005432,-0.43755704,-0.018437805,9.796866,2,1683900839.0258017
-0.04549639,0.0008341004,0.98229736,-0.0005340576,-0.0005340576,-0.0004005432,-0.43782467,-0.018033413,9.796855,2,1683900839.0309322
-0.04549639,0.0008341004,0.98229736,0.0005340576,0.0048065186,0.0017356873,-0.43782467,-0.018033413,9.796855,2,1683900839.056592
-0.04549639,0.0008341004,0.98229736,0.0005340576,0.0048065186,-0.0004005432,-0.43782467,-0.018033413,9.796855,2,1683900839.071972
-0.04549639,0.0008341004,0.98229736,0.0005340576,0.0048065186,-0.0004005432,-0.43798128,-0.018009517,9.796848,2,1683900839.0771062
-0.04305475,-0.0018501864,0.98401105,0.0005340576,0.0048065186,-0.0004005432,-0.43798128,-0.018009517,9.796848,2,1683900839.0822456
-0.04305475,-0.0018501864,0.98401105,0.0005340576,0.0005340576,0.000667572,-0.43798128,-0.018009517,9.796848,2,1683900839.0976121
-0.043297395,-0.002335481,0.98254,0.0005340576,0.0005340576,0.000667572,-0.43798128,-0.018009517,9.796848,2,1683900839.1027431
-0.043297395,-0.002335481,0.98254,0.0005340576,0.0005340576,0.000667572,-0.43818706,-0.018138612,9.796838,2,1683900839.1283712
-0.04549639,-0.0011222442,0.9805988,0.0005340576,0.0005340576,0.000667572,-0.43818706,-0.018138612,9.796838,2,1683900839.1335485
-0.04549639,-0.0011222442,0.9805988,0.0005340576,0.0005340576,0.000667572,-0.43862545,-0.018118436,9.796819,2,1683900839.1386833
-0.04549639,-0.0011222442,0.9805988,0.0005340576,0.002670288,-0.0004005432,-0.43862545,-0.018118436,9.796819,2,1683900839.1591983
-0.04842332,-0.002335481,0.98009837,0.0005340576,0.002670288,-0.0004005432,-0.43862545,-0.018118436,9.796819,2,1683900839.1694567
-0.04842332,-0.002335481,0.98009837,0.0005340576,0.002670288,-0.0004005432,-0.43935445,-0.017784275,9.796787,2,1683900839.1796732
-0.04842332,-0.002335481,0.98009837,0.0016021729,0.002670288,0.000667572,-0.43935445,-0.017784275,9.796787,2,1683900839.1950746
-0.04402534,-0.004777121,0.98401105,0.0016021729,0.002670288,0.000667572,-0.43935445,-0.017784275,9.796787,2,1683900839.2208405
-0.04402534,-0.004777121,0.98401105,-0.0005340576,0.002670288,-0.0014686584,-0.43935445,-0.017784275,9.796787,2,1683900839.2259834
-0.04402534,-0.004777121,0.98401105,-0.0005340576,0.002670288,-0.0014686584,-0.43986416,-0.018015811,9.796764,2,1683900839.2363095
-0.04402534,-0.004777121,0.98401105,-0.0005340576,0.0037384033,0.000667572,-0.43986416,-0.018015811,9.796764,2,1683900839.2517493
-0.0428121,-0.002335481,0.9793704,-0.0005340576,0.0037384033,0.000667572,-0.43986416,-0.018015811,9.796764,2,1683900839.2620974
-0.0428121,-0.002335481,0.9793704,0.0005340576,0.0016021729,-0.0004005432,-0.43986416,-0.018015811,9.796764,2,1683900839.2724051
-0.0445258,0.0015620426,0.9827826,-0.0005340576,0.0005340576,-0.0004005432,-0.43986416,-0.018015811,9.796764,2,1683900839.277582
-0.0445258,0.0015620426,0.9827826,-0.0005340576,0.0005340576,-0.0004005432,-0.4418472,-0.016721569,9.796677,2,1683900839.2878585
-0.0445258,0.0015620426,0.9827826,0.0005340576,0.0016021729,-0.0004005432,-0.4418472,-0.016721569,9.796677,2,1683900839.3083897
-0.042326804,-0.000394302,0.980341,0.0005340576,0.0016021729,-0.0004005432,-0.4418472,-0.016721569,9.796677,2,1683900839.313537
-0.042326804,-0.000394302,0.980341,0.0005340576,0.0016021729,-0.0004005432,-0.44188783,-0.016704118,9.796675,2,1683900839.3289084
-0.042326804,-0.000394302,0.980341,0.0005340576,0.0005340576,-0.0004005432,-0.44188783,-0.016704118,9.796675,2,1683900839.3340385
-0.04378269,0.0010767478,0.98522425,0.0005340576,0.0005340576,-0.0004005432,-0.44188783,-0.016704118,9.796675,2,1683900839.3391798
-0.04378269,0.0010767478,0.98522425,0.0005340576,0.0005340576,-0.0004005432,-0.44176987,-0.01643948,9.79668,2,1683900839.344313
-0.045981683,-0.00013648917,0.98229736,0.0005340576,0.0005340576,-0.0004005432,-0.44176987,-0.01643948,9.79668,2,1683900839.3700302
-0.045981683,-0.00013648917,0.98229736,0.0005340576,0.0005340576,-0.0004005432,-0.44188955,-0.016297204,9.796676,2,1683900839.3906362
-0.045981683,-0.00013648917,0.98229736,-0.0005340576,0.0005340576,-0.0004005432,-0.44188955,-0.016297204,9.796676,2,1683900839.4009602
-0.045981683,-0.00013648917,0.98229736,-0.0005340576,0.0005340576,-0.0004005432,-0.44151935,-0.016226543,9.796693,2,1683900839.4111648
-0.042084157,-0.0011222442,0.98840904,-0.0005340576,0.0005340576,-0.0004005432,-0.44151935,-0.016226543,9.796693,2,1683900839.431684
-0.042084157,-0.0011222442,0.98840904,0.0005340576,0.0048065186,-0.0004005432,-0.44151935,-0.016226543,9.796693,2,1683900839.441911
-0.04402534,-0.0013648917,0.9779145,0.0005340576,0.0048065186,-0.0004005432,-0.44151935,-0.016226543,9.796693,2,1683900839.4470096
-0.04402534,-0.0013648917,0.9779145,0.0005340576,0.0048065186,-0.0004005432,-0.44171345,-0.016093181,9.796684,2,1683900839.4674897
-0.04402534,-0.0013648917,0.9779145,0.0005340576,-0.0016021729,-0.0004005432,-0.44171345,-0.016093181,9.796684,2,1683900839.4777184
-0.044768445,0.00059145305,0.98401105,0.0005340576,-0.0016021729,-0.0004005432,-0.44171345,-0.016093181,9.796684,2,1683900839.4879596
-0.044768445,0.00059145305,0.98401105,0.0005340576,-0.0016021729,-0.0004005432,-0.44199103,-0.015654815,9.796672,2,1683900839.4982216
-0.04305475,-0.0020928339,0.98084146,0.0005340576,-0.0016021729,-0.0004005432,-0.44199103,-0.015654815,9.796672,2,1683900839.508454
-0.04305475,-0.0020928339,0.98084146,0.0005340576,-0.0016021729,-0.0004005432,-0.44230133,-0.015821347,9.796658,2,1683900839.5238242
-0.04305475,-0.0020928339,0.98084146,0.0016021729,0.0016021729,-0.0004005432,-0.44230133,-0.015821347,9.796658,2,1683900839.539198
-0.04305475,-0.0020928339,0.98084146,0.0016021729,0.0016021729,-0.0004005432,-0.44289252,-0.013849725,9.796634,2,1683900839.5494182
-0.04305475,-0.0020928339,0.98009837,0.0016021729,0.0016021729,-0.0004005432,-0.44289252,-0.013849725,9.796634,2,1683900839.5647721
-0.040613107,0.0008341004,1.0067137,0.0016021729,0.0016021729,-0.0004005432,-0.44289252,-0.013849725,9.796634,2,1683900839.580172
-0.040613107,0.0008341004,1.0067137,-0.0048065186,-0.024032593,-0.0014686584,-0.44289252,-0.013849725,9.796634,2,1683900839.5853066
-0.040613107,0.0008341004,1.0067137,-0.0048065186,-0.024032593,-0.0014686584,-0.4405942,-0.014691717,9.796736,2,1683900839.6058397
