acc_x,acc_y,acc_z,gyr_x,gyr_y,gyr_z,grav_x,grav_y,grav_z,label,timestamp
0.5407023,0.56137425,1.2630615,4.6292896,-7.3494725,-1.3904821,3.434328,5.787781,7.137443,1,1683969659.3743672
0.70351666,0.7737037,1.0251818,5.754198,-7.352985,-1.3865114,4.327942,6.671348,5.744401,1,1683969659.4173098
0.86584324,0.9774961,0.4561242,6.090632,-7.475616,-1.7024814,4.327942,6.671348,5.744401,1,1683969659.4224286
0.86584324,0.9774961,0.4561242,6.3302436,-7.7477565,-2.3658812,4.8480597,7.5662355,3.9350376,1,1683969659.4275644
0.79949784,0.97822785,0.33227548,6.355747,-8.315403,-2.850908,4.9160166,7.8963766,3.117069,1,1683969659.4327302
0.79949784,0.97822785,0.33227548,6.3508606,-8.56204,-3.138931,4.9160166,7.8963766,3.117069,1,1683969659.4378183
0.63826895,0.8211454,0.6019254,6.3508606,-8.56204,-3.138931,4.9160166,7.8963766,3.117069,1,1683969659.4480934
0.298554,0.61534077,0.90218675,6.3508606,-8.56204,-3.138931,4.9160166,7.8963766,3.117069,1,1683969659.4634745
0.298554,0.61534077,0.90218675,6.3508606,-8.56204,-3.138931,4.8608356,8.313848,1.8677107,1,1683969659.473733
0.298554,0.61534077,0.90218675,6.3146667,-7.7289724,-2.8845057,4.8608356,8.313848,1.8677107,1,1683969659.4839919
-0.18299848,0.36752144,0.845781,6.3146667,-7.7289724,-2.8845057,4.8608356,8.313848,1.8677107,1,1683969659.4942567
-0.18299848,0.36752144,0.845781,6.3146667,-7.7289724,-2.8845057,4.750345,8.512425,1.0995152,1,1683969659.5096083
-0.18299848,0.36752144,0.845781,5.9014163,-5.3633966,-1.7867808,4.750345,8.512425,1.0995152,1,1683969659.5198615
-0.37880257,0.32453114,0.17751035,5.9014163,-5.3633966,-1.7867808,4.750345,8.512425,1.0995152,1,1683969659.530125
-0.37880257,0.32453114,0.17751035,4.8435507,-3.7304013,-0.9016371,4.750345,8.512425,1.0995152,1,1683969659.540315
-0.37880257,0.32453114,0.17751035,4.8435507,-3.7304013,-0.9016371,4.6424212,8.630255,0.4502672,1,1683969659.555713
-0.4170975,0.42343935,0.240014,4.8435507,-3.7304013,-0.9016371,4.6424212,8.630255,0.4502672,1,1683969659.571052
-0.4170975,0.42343935,0.240014,1.0961977,0.32788193,0.79366666,4.6424212,8.630255,0.4502672,1,1683969659.5813167
-0.4170975,0.42343935,0.240014,1.0961977,0.32788193,0.79366666,4.5888042,8.67019,-0.08234692,1,1683969659.5864484
0.01597654,0.44587967,0.24098967,1.0961977,0.32788193,0.79366666,4.5888042,8.67019,-0.08234692,1,1683969659.6018538
0.01597654,0.44587967,0.24098967,1.0961977,0.32788193,0.79366666,4.663519,8.630595,-0.023319282,1,1683969659.6172643
0.01597654,0.44587967,0.24098967,-0.9288206,4.577824,1.6572775,4.663519,8.630595,-0.023319282,1,1683969659.627536
0.01597654,0.44587967,0.24098967,-0.9288206,4.577824,1.6572775,4.726433,8.595432,0.124437526,1,1683969659.6378026
0.01597654,0.44587967,0.24098967,-2.438574,7.1000867,1.9952387,4.726433,8.595432,0.124437526,1,1683969659.653201
0.6144261,0.8369391,-0.48295498,-2.438574,7.1000867,1.9952387,4.726433,8.595432,0.124437526,1,1683969659.6686077
0.6144261,0.8369391,-0.48295498,-4.7433686,9.504453,2.0511327,4.726433,8.595432,0.124437526,1,1683969659.6737432
0.6144261,0.8369391,-0.48295498,-4.7433686,9.504453,2.0511327,4.85727,8.499543,0.6331108,1,1683969659.6891448
0.6144261,0.8369391,-0.48295498,-4.7433686,9.504453,2.0511327,4.938615,8.283158,1.7987545,1,1683969659.694283
0.6144261,0.8369391,-0.48295498,-6.342767,10.148915,1.765706,4.938615,8.283158,1.7987545,1,1683969659.7199264
0.708395,0.85492796,-0.059698608,-6.342767,10.148915,1.765706,4.938615,8.283158,1.7987545,1,1683969659.7250538
0.670344,0.9053577,-0.24166043,-6.342767,10.148915,1.765706,4.938615,8.283158,1.7987545,1,1683969659.740424
0.670344,0.9053577,-0.24166043,-6.342767,10.148915,1.765706,4.8621507,8.075009,2.718429,1,1683969659.750686
0.670344,0.9053577,-0.24166043,-6.808704,10.1305895,1.4984524,4.8621507,8.075009,2.718429,1,1683969659.755828
0.670344,0.9053577,-0.24166043,-6.7482285,8.61488,1.1583532,4.8621507,8.075009,2.718429,1,1683969659.7866297
0.670344,0.9053577,-0.24166043,-6.7482285,8.61488,1.1583532,4.6847696,7.8169227,3.6310837,1,1683969659.791766
0.49429715,0.75772715,-0.13189794,-6.7482285,8.61488,1.1583532,4.6847696,7.8169227,3.6310837,1,1683969659.7969038
0.49429715,0.75772715,-0.13189794,-6.2054744,6.7877817,0.9408852,4.6847696,7.8169227,3.6310837,1,1683969659.8123314
0.49429715,0.75772715,-0.13189794,-6.2054744,6.7877817,0.9408852,4.3240933,7.3684616,4.8212147,1,1683969659.822603
0.2936757,0.5392997,0.072870106,-6.2054744,6.7877817,0.9408852,4.3240933,7.3684616,4.8212147,1,1683969659.8277411
0.25922245,0.5772288,0.6018034,-6.2054744,6.7877817,0.9408852,4.3240933,7.3684616,4.8212147,1,1683969659.858619
0.25922245,0.5772288,0.6018034,-4.9903107,4.3388233,0.7851145,4.3240933,7.3684616,4.8212147,1,1683969659.8637567
0.25922245,0.5772288,0.6018034,-4.9903107,4.3388233,0.7851145,4.0990305,7.059631,5.4401913,1,1683969659.868896
0.34575188,0.5391778,0.9365181,-4.9903107,4.3388233,0.7851145,4.0990305,7.059631,5.4401913,1,1683969659.8843095
0.34575188,0.5391778,0.9365181,-4.9903107,4.3388233,0.7851145,3.9273167,6.7784986,5.904596,1,1683969659.8894486
0.34575188,0.5391778,0.9365181,-3.6865718,2.8715248,0.62018096,3.9273167,6.7784986,5.904596,1,1683969659.8945847
0.34575188,0.5391778,0.9365181,-2.362674,1.9506454,0.46013424,3.9273167,6.7784986,5.904596,1,1683969659.9099927
0.46179524,0.57704586,1.1235411,-2.362674,1.9506454,0.46013424,3.9273167,6.7784986,5.904596,1,1683969659.9151335
0.46179524,0.57704586,1.1235411,-2.362674,1.9506454,0.46013424,3.8085668,6.555921,6.225016,1,1683969659.9304898
0.46179524,0.57704586,1.1235411,-0.9773844,1.1582005,0.04596761,3.8085668,6.555921,6.225016,1,1683969659.9509833
0.5457026,0.6571115,0.7741915,-0.9773844,1.1582005,0.04596761,3.8085668,6.555921,6.225016,1,1683969659.9561226
0.5457026,0.6571115,0.7741915,-0.9773844,1.1582005,0.04596761,3.68673,6.360415,6.495327,1,1683969659.9664
0.5457026,0.6571115,0.7741915,-0.29626966,0.20433442,-0.33108896,3.68673,6.360415,6.495327,1,1683969659.981801
0.629244,0.80968136,0.40624323,-0.29626966,0.20433442,-0.33108896,3.6579971,6.3341966,6.5370574,1,1683969659.9869838
0.629244,0.80968136,0.40624323,-0.29626966,0.20433442,-0.33108896,3.6419194,6.3383985,6.541959,1,1683969659.992147
0.7034557,0.9141387,-0.009024917,1.4023939,-5.739079,-2.2241604,3.6419194,6.3383985,6.541959,1,1683969659.997324
0.7034557,0.9141387,-0.009024917,1.4023939,-5.739079,-2.2241604,3.777158,6.4670343,6.3361382,1,1683969660.0025215
0.8251092,0.8131572,-0.054576356,1.4023939,-5.739079,-2.2241604,3.777158,6.4670343,6.3361382,1,1683969660.0076654
0.8851736,0.793156,0.56759405,1.4023939,-5.739079,-2.2241604,3.777158,6.4670343,6.3361382,1,1683969660.0332434
0.8851736,0.793156,0.56759405,1.4023939,-5.739079,-2.2241604,3.985061,6.633822,6.0289135,1,1683969660.043448
0.8851736,0.793156,0.56759405,2.3753495,-7.774024,-2.7724118,3.985061,6.633822,6.0289135,1,1683969660.0485888
0.7885826,0.74711674,0.9637148,2.3753495,-7.774024,-2.7724118,3.985061,6.633822,6.0289135,1,1683969660.069151
0.7885826,0.74711674,0.9637148,2.3753495,-7.774024,-2.7724118,4.2325377,6.8659506,5.583946,1,1683969660.0743
0.7885826,0.74711674,0.9637148,3.3249395,-8.725752,-3.1393893,4.2325377,6.8659506,5.583946,1,1683969660.0794427
0.7885826,0.74711674,0.9637148,3.3249395,-8.725752,-3.1393893,4.545505,7.3023953,4.716939,1,1683969660.0948713
0.7885826,0.74711674,0.9637148,4.330118,-9.015454,-3.2739322,4.545505,7.3023953,4.716939,1,1683969660.1051564
0.53350675,0.6841253,0.99536294,4.330118,-9.015454,-3.2739322,4.545505,7.3023953,4.716939,1,1683969660.1154292
0.53350675,0.6841253,0.99536294,4.330118,-9.015454,-3.2739322,4.6836195,7.6158648,4.037132,1,1683969660.1256757
0.53350675,0.6841253,0.99536294,4.9750395,-8.987966,-3.1885638,4.6836195,7.6158648,4.037132,1,1683969660.1359599
0.53057975,0.8091326,0.91316307,4.9750395,-8.987966,-3.1885638,4.6836195,7.6158648,4.037132,1,1683969660.1564765
0.5346044,0.9384084,0.822304,4.9750395,-8.987966,-3.1885638,4.6836195,7.6158648,4.037132,1,1683969660.1770413
0.5346044,0.9384084,0.822304,5.278792,-8.461553,-3.2345314,4.6836195,7.6158648,4.037132,1,1683969660.182183
0.5346044,0.9384084,0.822304,5.278792,-8.461553,-3.2345314,4.7540264,7.9202304,3.3023176,1,1683969660.187289
0.5346044,0.9384084,0.822304,4.7962084,-7.3375607,-3.3208163,4.7540264,7.9202304,3.3023176,1,1683969660.1975703
0.5346044,0.9384084,0.822304,4.7962084,-7.3375607,-3.3208163,4.7366505,8.197126,2.570485,1,1683969660.2078454
0.40776768,0.8239506,0.60351086,4.7962084,-7.3375607,-3.3208163,4.7366505,8.197126,2.570485,1,1683969660.2129898
0.40776768,0.8239506,0.60351086,4.7962084,-7.3375607,-3.3208163,4.553239,8.536621,1.6217996,1,1683969660.2489076
0.16311927,0.62339,0.35514265,4.7962084,-7.3375607,-3.3208163,4.553239,8.536621,1.6217996,1,1683969660.254014
0.16311927,0.62339,0.35514265,3.8327212,-5.9709024,-3.2033772,4.553239,8.536621,1.6217996,1,1683969660.2643003
-0.09079798,0.5368606,0.32001868,3.8327212,-5.9709024,-3.2033772,4.553239,8.536621,1.6217996,1,1683969660.2694445
-0.09079798,0.5368606,0.32001868,3.8327212,-5.9709024,-3.2033772,4.3740063,8.708415,1.1259282,1,1683969660.2797346
-0.09079798,0.5368606,0.32001868,3.0607402,-4.74963,-2.6940684,4.3740063,8.708415,1.1259282,1,1683969660.2848656
-0.31843323,0.47228366,0.28641915,3.0607402,-4.74963,-2.6940684,4.3740063,8.708415,1.1259282,1,1683969660.3054473
-0.31843323,0.47228366,0.28641915,3.0607402,-4.74963,-2.6940684,4.2842,8.776781,0.9218779,1,1683969660.3105907
-0.31843323,0.47228366,0.28641915,2.2886066,-3.2491922,-1.7551686,4.2842,8.776781,0.9218779,1,1683969660.325982
-0.31843323,0.47228366,0.28641915,1.3842206,-1.528843,-0.5047274,4.2842,8.776781,0.9218779,1,1683969660.356706
-0.49600452,0.3999014,0.21928109,1.3842206,-1.528843,-0.5047274,4.2842,8.776781,0.9218779,1,1683969660.361852
-0.49600452,0.3999014,0.21928109,1.3842206,-1.528843,-0.5047274,4.0890365,8.903351,0.4962088,1,1683969660.367
-0.49600452,0.3999014,0.21928109,0.019547688,0.81382525,1.3171781,4.0890365,8.903351,0.4962088,1,1683969660.3927166
-0.55552024,0.31605503,0.117933705,0.019547688,0.81382525,1.3171781,4.0890365,8.903351,0.4962088,1,1683969660.3978627
-0.55552024,0.31605503,0.117933705,0.019547688,0.81382525,1.3171781,4.068591,8.91815,0.38637292,1,1683969660.408153
-0.21135378,0.37118018,0.23019636,0.019547688,0.81382525,1.3171781,4.068591,8.91815,0.38637292,1,1683969660.4184477
-0.21135378,0.37118018,0.23019636,0.019547688,0.81382525,1.3171781,4.242739,8.828907,0.5345437,1,1683969660.428738
-0.21135378,0.37118018,0.23019636,-1.6610953,3.3264668,2.9692633,4.242739,8.828907,0.5345437,1,1683969660.433887
-0.21135378,0.37118018,0.23019636,-1.6610953,3.3264668,2.9692633,4.4697657,8.689694,0.8640226,1,1683969660.459646
-0.21135378,0.37118018,0.23019636,-2.9776626,4.8612657,3.7803395,4.4697657,8.689694,0.8640226,1,1683969660.4647958
0.20513393,0.54375124,0.14348398,-2.9776626,4.8612657,3.7803395,4.4697657,8.689694,0.8640226,1,1683969660.4750826
0.7527878,0.8702337,0.33806852,-2.9776626,4.8612657,3.7803395,4.4697657,8.689694,0.8640226,1,1683969660.5059445
0.7527878,0.8702337,0.33806852,-2.9776626,4.8612657,3.7803395,4.7233186,8.491841,1.3472266,1,1683969660.511093
0.7527878,0.8702337,0.33806852,-4.094935,6.200282,4.004222,4.7233186,8.491841,1.3472266,1,1683969660.5162425
1.165007,1.0589032,0.28910223,-4.094935,6.200282,4.004222,4.7233186,8.491841,1.3472266,1,1683969660.5316753
1.165007,1.0589032,0.28910223,-4.094935,6.200282,4.004222,4.9348483,8.253959,1.9379287,1,1683969660.541944
1.165007,1.0589032,0.28910223,-4.5390344,6.7631946,3.491553,4.9348483,8.253959,1.9379287,1,1683969660.5522249
1.165007,1.0589032,0.28910223,-4.5390344,6.7631946,3.491553,5.055367,8.0042305,2.571318,1,1683969660.5779285
1.165007,1.0589032,0.28910223,-4.504673,6.023895,2.4572055,5.055367,8.0042305,2.571318,1,1683969660.5830731
1.4793546,1.1481158,-0.10781116,-4.504673,6.023895,2.4572055,5.055367,8.0042305,2.571318,1,1683969660.5882201
1.4793546,1.1481158,-0.10781116,-4.504673,6.023895,2.4572055,5.0713124,7.690854,3.3717468,1,1683969660.5984874
1.4793546,1.1481158,-0.10781116,-3.5182784,2.7637072,0.6582073,5.0713124,7.690854,3.3717468,1,1683969660.6036332
1.6707072,1.235438,-0.17379062,-3.5182784,2.7637072,0.6582073,5.0713124,7.690854,3.3717468,1,1683969660.624196
1.6707072,1.235438,-0.17379062,-1.8419114,-0.58169645,-0.78984874,5.0713124,7.690854,3.3717468,1,1683969660.6396246
1.6707072,1.235438,-0.17379062,-1.8419114,-0.58169645,-0.78984874,3.0210001,9.272418,-1.0639331,1,1683969660.6447701
-0.69040614,0.45838037,0.32648247,-1.8419114,-0.58169645,-0.78984874,3.0210001,9.272418,-1.0639331,1,1683969660.6499085
-0.69040614,0.45838037,0.32648247,2.4312437,-3.5628715,-1.8822285,3.0210001,9.272418,-1.0639331,1,1683969660.660199
-1.1057962,0.3181893,0.3931937,2.4312437,-3.5628715,-1.8822285,3.0210001,9.272418,-1.0639331,1,1683969660.6807747
-1.1057962,0.3181893,0.3931937,2.4312437,-3.5628715,-1.8822285,2.7815826,9.306992,-1.3707143,1,1683969660.6962016
-1.1057962,0.3181893,0.3931937,1.6720909,-1.6698002,-0.70005155,2.7815826,9.306992,-1.3707143,1,1683969660.711628
-1.1057962,0.3181893,0.3931937,1.6720909,-1.6698002,-0.70005155,2.728611,9.2970495,-1.5348135,1,1683969660.7219174
-1.1057962,0.3181893,0.3931937,-0.20112738,2.1629212,1.7351627,2.728611,9.2970495,-1.5348135,1,1683969660.7321918
-1.3366634,0.1325687,0.2441606,-0.20112738,2.1629212,1.7351627,2.728611,9.2970495,-1.5348135,1,1683969660.737338
-1.3366634,0.1325687,0.2441606,-2.4856107,5.677687,4.04515,2.728611,9.2970495,-1.5348135,1,1683969660.7526944
-0.82864594,0.12830016,-0.056039855,-2.4856107,5.677687,4.04515,2.728611,9.2970495,-1.5348135,1,1683969660.7731552
-0.82864594,0.12830016,-0.056039855,-2.4856107,5.677687,4.04515,2.9496112,9.253594,-1.3809124,1,1683969660.7834308
-0.10049367,0.32264078,0.011098208,-2.4856107,5.677687,4.04515,2.9496112,9.253594,-1.3809124,1,1683969660.8091447
-0.10049367,0.32264078,0.011098208,-2.4856107,5.677687,4.04515,3.3352122,9.171596,-0.99715143,1,1683969660.8142931
-0.10049367,0.32264078,0.011098208,-4.408767,8.007221,5.500536,3.3352122,9.171596,-0.99715143,1,1683969660.8194313
0.41398758,0.503505,0.22233005,-4.408767,8.007221,5.500536,3.3352122,9.171596,-0.99715143,1,1683969660.8297174
0.41398758,0.503505,0.22233005,-5.6790614,9.417099,5.97075,3.3352122,9.171596,-0.99715143,1,1683969660.8399618
0.41398758,0.503505,0.22233005,-5.6790614,9.417099,5.97075,4.06198,8.929495,-0.023907512,1,1683969660.845106
0.41398758,0.503505,0.22233005,-5.6790614,9.417099,5.97075,4.510584,8.669678,0.85289013,1,1683969660.8605092
0.41398758,0.503505,0.22233005,-6.9382076,10.784062,5.827807,4.510584,8.669678,0.85289013,1,1683969660.8810477
0.82657266,0.6504038,0.3714851,-6.9382076,10.784062,5.827807,4.510584,8.669678,0.85289013,1,1683969660.8861544
0.82657266,0.6504038,0.3714851,-6.9382076,10.784062,5.827807,4.832874,8.333053,1.8546381,1,1683969660.9117885
0.82657266,0.6504038,0.3714851,-7.504174,10.874471,5.2691708,4.832874,8.333053,1.8546381,1,1683969660.9169288
-1.0934784,0.14720371,0.5830218,-7.504174,10.874471,5.2691708,4.832874,8.333053,1.8546381,1,1683969660.9323332
-1.0934784,0.14720371,0.5830218,-0.12492194,2.486527,1.1582005,4.832874,8.333053,1.8546381,1,1683969660.9374833
-1.0934784,0.14720371,0.5830218,-0.12492194,2.486527,1.1582005,3.1429977,9.128135,-1.7420961,1,1683969660.9477599
-0.67314905,0.19068186,0.3006273,-0.12492194,2.486527,1.1582005,3.1429977,9.128135,-1.7420961,1,1683969660.9630704
-0.67314905,0.19068186,0.3006273,-2.4550674,6.9510355,3.4255795,3.1429977,9.128135,-1.7420961,1,1683969660.978383
-0.67314905,0.19068186,0.3006273,-2.4550674,6.9510355,3.4255795,3.4172351,9.078756,-1.4610953,1,1683969660.9835193
-0.67314905,0.19068186,0.3006273,-4.4009786,9.737345,4.9640436,3.4172351,9.078756,-1.4610953,1,1683969661.0092173
-0.67314905,0.19068186,0.3006273,-4.4009786,9.737345,4.9640436,3.8020406,8.993619,-0.9462684,1,1683969661.014369
-0.67314905,0.19068186,0.3006273,-4.4009786,9.737345,4.9640436,4.254108,8.837063,-0.21217032,1,1683969661.0400724
0.42600048,0.47051528,0.08494398,-4.4009786,9.737345,4.9640436,4.254108,8.837063,-0.21217032,1,1683969661.0452173
-0.09756667,0.31251824,0.12592198,-4.4009786,9.737345,4.9640436,4.254108,8.837063,-0.21217032,1,1683969661.0503523
-0.09756667,0.31251824,0.12592198,-5.970444,11.035434,5.6856284,4.254108,8.837063,-0.21217032,1,1683969661.055465
-0.09756667,0.31251824,0.12592198,-6.8410797,11.269395,5.7344975,4.254108,8.837063,-0.21217032,1,1683969661.0656893
-0.09756667,0.31251824,0.12592198,-6.8410797,11.269395,5.7344975,4.8603373,8.438035,1.1886156,1,1683969661.0759826
0.70876086,0.56942344,0.17537609,-6.8410797,11.269395,5.7344975,4.8603373,8.438035,1.1886156,1,1683969661.0862758
0.9850575,0.74254334,0.32422623,-6.8410797,11.269395,5.7344975,4.8603373,8.438035,1.1886156,1,1683969661.1119869
0.9850575,0.74254334,0.32422623,-6.8410797,11.269395,5.7344975,5.11819,8.068388,2.2229137,1,1683969661.1171293
0.9850575,0.74254334,0.32422623,-7.2337136,10.725572,5.2652,5.11819,8.068388,2.2229137,1,1683969661.1274111
1.2929413,0.9086505,0.26214942,-7.2337136,10.725572,5.2652,5.11819,8.068388,2.2229137,1,1683969661.1428506
1.2929413,0.9086505,0.26214942,-6.867805,9.233381,4.396092,5.11819,8.068388,2.2229137,1,1683969661.1531096
1.2929413,0.9086505,0.26214942,-6.867805,9.233381,4.396092,5.23355,7.641359,3.2335267,1,1683969661.1582181
1.2929413,0.9086505,0.26214942,-6.867805,9.233381,4.396092,5.2315264,7.210181,4.108592,1,1683969661.1787174
1.7935193,1.1239071,0.16135088,-6.867805,9.233381,4.396092,5.2315264,7.210181,4.108592,1,1683969661.1838663
1.7935193,1.1239071,0.16135088,-6.867805,9.233381,4.396092,4.159279,6.1576123,6.4047117,1,1683969661.2146494
1.7935193,1.1239071,0.16135088,3.1908545,-8.925505,-3.7126863,4.159279,6.1576123,6.4047117,1,1683969661.219798
1.7324791,1.3084301,0.4616733,3.1908545,-8.925505,-3.7126863,4.159279,6.1576123,6.4047117,1,1683969661.2300887
1.7324791,1.3084301,0.4616733,5.4829736,-12.089481,-5.204419,4.159279,6.1576123,6.4047117,1,1683969661.2403398
1.6798542,1.1134796,1.2211689,5.4829736,-12.089481,-5.204419,4.159279,6.1576123,6.4047117,1,1683969661.2454867
1.6798542,1.1134796,1.2211689,5.4829736,-12.089481,-5.204419,4.4818687,6.534385,5.7836647,1,1683969661.2557452
1.6798542,1.1134796,1.2211689,5.4829736,-12.089481,-5.204419,4.75431,7.0208244,4.9336247,1,1683969661.2864103
1.4123385,0.9552996,1.5265524,5.4829736,-12.089481,-5.204419,4.75431,7.0208244,4.9336247,1,1683969661.3018262
1.4123385,0.9552996,1.5265524,6.744105,-12.711494,-6.02756,4.75431,7.0208244,4.9336247,1,1683969661.3069682
1.1118941,0.8728558,1.4427061,6.744105,-12.711494,-6.02756,4.75431,7.0208244,4.9336247,1,1683969661.3275394
1.1118941,0.8728558,1.4427061,6.744105,-12.711494,-6.02756,4.871202,7.7925715,3.4326854,1,1683969661.332685
1.1118941,0.8728558,1.4427061,7.2158456,-12.135449,-6.2777095,4.871202,7.7925715,3.4326854,1,1683969661.342973
0.81053513,0.725835,1.1992773,7.2158456,-12.135449,-6.2777095,4.871202,7.7925715,3.4326854,1,1683969661.3532767
0.81053513,0.725835,1.1992773,7.2158456,-12.135449,-6.2777095,4.7292013,8.253579,2.397756,1,1683969661.363497
0.81053513,0.725835,1.1992773,7.28243,-11.00657,-6.2340326,4.7292013,8.253579,2.397756,1,1683969661.3737314
0.44685537,0.54692215,0.87803906,7.28243,-11.00657,-6.2340326,4.7292013,8.253579,2.397756,1,1683969661.3993373
0.44685537,0.54692215,0.87803906,6.985091,-10.016969,-5.914703,4.7292013,8.253579,2.397756,1,1683969661.4096296
0.44685537,0.54692215,0.87803906,6.985091,-10.016969,-5.914703,4.4446697,8.63218,1.4023098,1,1683969661.414775
0.44685537,0.54692215,0.87803906,6.985091,-10.016969,-5.914703,4.0636573,8.91551,0.48626968,1,1683969661.4353163
0.44685537,0.54692215,0.87803906,6.4249277,-8.744383,-5.266422,4.0636573,8.91551,0.48626968,1,1683969661.4404614
0.08018761,0.5014317,0.7690083,6.4249277,-8.744383,-5.266422,4.0636573,8.91551,0.48626968,1,1683969661.4456024
0.08018761,0.5014317,0.7690083,5.297271,-6.0255747,-3.7988183,4.0636573,8.91551,0.48626968,1,1683969661.466157
0.08018761,0.5014317,0.7690083,5.297271,-6.0255747,-3.7988183,3.4380062,9.164671,-0.6519768,1,1683969661.476393
0.08018761,0.5014317,0.7690083,-5.519931,8.120079,3.041498,3.4380062,9.164671,-0.6519768,1,1683969661.481491
0.7671789,0.84956175,0.71107805,-5.519931,8.120079,3.041498,3.4380062,9.164671,-0.6519768,1,1683969661.5020356
0.7671789,0.84956175,0.71107805,-4.771621,7.1271176,2.5674667,3.4380062,9.164671,-0.6519768,1,1683969661.5174813
0.7671789,0.84956175,0.71107805,-4.771621,7.1271176,2.5674667,4.208073,7.365461,4.9272943,1,1683969661.527789
0.9101751,0.8884055,0.6575384,-4.771621,7.1271176,2.5674667,4.208073,7.365461,4.9272943,1,1683969661.5483487
0.9101751,0.8884055,0.6575384,-4.771621,7.1271176,2.5674667,4.0497375,7.0626917,5.473035,1,1683969661.5535
0.9101751,0.8884055,0.6575384,-3.6399932,5.5834613,1.7614299,4.0497375,7.0626917,5.473035,1,1683969661.5637643
0.9101751,0.8884055,0.6575384,-2.5318837,3.7826302,0.8516989,4.0497375,7.0626917,5.473035,1,1683969661.579144
0.9101751,0.8884055,0.6575384,-2.5318837,3.7826302,0.8516989,3.8836782,6.8189464,5.88686,1,1683969661.5945787
1.0331701,0.9555435,0.5365557,-2.5318837,3.7826302,0.8516989,3.8836782,6.8189464,5.88686,1,1683969661.5997276
1.3149548,1.0986617,0.21964696,-2.5318837,3.7826302,0.8516989,3.8836782,6.8189464,5.88686,1,1683969661.6100173
1.3149548,1.0986617,0.21964696,-2.5318837,3.7826302,0.8516989,3.7442427,6.6630406,6.1498504,1,1683969661.6254568
1.3149548,1.0986617,0.21964696,-1.2136365,1.3066407,-0.4196644,3.7442427,6.6630406,6.1498504,1,1683969661.6306062
1.3149548,1.0986617,0.21964696,-1.2136365,1.3066407,-0.4196644,3.6688206,6.6256247,6.235139,1,1683969661.6562946
1.525089,1.179703,0.13250773,-1.2136365,1.3066407,-0.4196644,3.6688206,6.6256247,6.235139,1,1683969661.661442
1.525089,1.179703,0.13250773,0.8706357,-3.1586316,-2.4200954,3.6688206,6.6256247,6.235139,1,1683969661.6665618
1.5003924,1.1719587,0.5023464,0.8706357,-3.1586316,-2.4200954,3.6688206,6.6256247,6.235139,1,1683969661.6869886
1.5003924,1.1719587,0.5023464,0.8706357,-3.1586316,-2.4200954,3.745991,6.846317,5.9440393,1,1683969661.692139
1.5003924,1.1719587,0.5023464,2.8903089,-6.878495,-3.9241984,3.745991,6.846317,5.9440393,1,1683969661.6972878
1.5003924,1.1719587,0.5023464,2.8903089,-6.878495,-3.9241984,3.8891609,7.177657,5.439832,1,1683969661.7178109
1.5003924,1.1719587,0.5023464,5.1868567,-10.050261,-5.2074733,3.8891609,7.177657,5.439832,1,1683969661.7229552
1.3412368,1.0017658,1.0998813,5.1868567,-10.050261,-5.2074733,3.8891609,7.177657,5.439832,1,1683969661.7332218
1.1264071,0.8490739,1.2927583,5.1868567,-10.050261,-5.2074733,3.8891609,7.177657,5.439832,1,1683969661.74863
1.7968732,1.2634274,0.19440159,5.1868567,-10.050261,-5.2074733,3.8891609,7.177657,5.439832,1,1683969661.7793589
1.7968732,1.2634274,0.19440159,5.1868567,-10.050261,-5.2074733,3.7784362,7.084876,5.6359606,1,1683969661.7895937
1.7968732,1.2634274,0.19440159,-0.2133447,-3.7113118,-0.053145275,3.7784362,7.084876,5.6359606,1,1683969661.7998772
1.7968732,1.2634274,0.19440159,-0.2133447,-3.7113118,-0.053145275,4.001362,7.137471,5.4112573,1,1683969661.8101606
1.7968732,1.2634274,0.19440159,2.7102563,-8.380002,-2.3614523,4.001362,7.137471,5.4112573,1,1683969661.8255508
1.9859085,1.4671588,0.7707157,2.7102563,-8.380002,-2.3614523,4.001362,7.137471,5.4112573,1,1683969661.8306968
1.9128555,1.4351448,1.1500671,2.7102563,-8.380002,-2.3614523,4.001362,7.137471,5.4112573,1,1683969661.861516
1.9128555,1.4351448,1.1500671,5.2219815,-11.0209255,-4.2717805,4.001362,7.137471,5.4112573,1,1683969661.8666627
1.9128555,1.4351448,1.1500671,5.2219815,-11.0209255,-4.2717805,4.2475924,7.364127,4.895274,1,1683969661.8718064
1.9128555,1.4351448,1.1500671,5.2219815,-11.0209255,-4.2717805,4.4520397,7.923753,3.6918292,1,1683969661.8871517
1.6477182,1.2451336,1.2409871,5.2219815,-11.0209255,-4.2717805,4.4520397,7.923753,3.6918292,1,1683969661.8922772
1.6477182,1.2451336,1.2409871,6.443254,-11.772137,-5.376225,4.4520397,7.923753,3.6918292,1,1683969661.897402
1.3097715,1.0692087,1.1639704,6.443254,-11.772137,-5.376225,4.4520397,7.923753,3.6918292,1,1683969661.917962
1.3097715,1.0692087,1.1639704,7.052592,-11.650117,-6.1431665,4.4520397,7.923753,3.6918292,1,1683969661.933401
1.3097715,1.0692087,1.1639704,7.052592,-11.650117,-6.1431665,4.384019,8.339845,2.731938,1,1683969661.9385493
0.82736534,0.75339764,0.8249872,7.052592,-11.650117,-6.1431665,4.384019,8.339845,2.731938,1,1683969661.9642613
0.82736534,0.75339764,0.8249872,7.135059,-11.044902,-6.6335382,4.384019,8.339845,2.731938,1,1683969661.969366
0.82736534,0.75339764,0.8249872,7.135059,-11.044902,-6.6335382,4.1353884,8.722577,1.746799,1,1683969661.9796107
0.50356597,0.54899544,0.64400095,7.135059,-11.044902,-6.6335382,4.1353884,8.722577,1.746799,1,1683969661.9847422
0.50356597,0.54899544,0.64400095,6.8963633,-10.656391,-6.6404104,4.1353884,8.722577,1.746799,1,1683969661.9949527
0.50356597,0.54899544,0.64400095,6.8963633,-10.656391,-6.6404104,3.9502757,8.890504,1.26111,1,1683969662.0103943
0.50356597,0.54899544,0.64400095,6.143319,-9.687559,-6.0187025,3.9502757,8.890504,1.26111,1,1683969662.0361195
0.50356597,0.54899544,0.64400095,-6.6634707,10.680826,4.9221992,3.9502757,8.890504,1.26111,1,1683969662.0515552
0.50356597,0.54899544,0.64400095,-6.6634707,10.680826,4.9221992,3.541233,9.113341,-0.8017568,1,1683969662.0567002
0.26458862,0.6024742,-0.19330397,-6.6634707,10.680826,4.9221992,3.541233,9.113341,-0.8017568,1,1683969662.0721118
0.26458862,0.6024742,-0.19330397,-7.110777,10.4233465,4.9623637,3.541233,9.113341,-0.8017568,1,1683969662.0772624
0.26458862,0.6024742,-0.19330397,-7.110777,10.4233465,4.9623637,3.9819891,8.96478,0.112372965,1,1683969662.0823867
0.46923468,0.65979457,0.18781583,-7.110777,10.4233465,4.9623637,3.9819891,8.96478,0.112372965,1,1683969662.1079965
0.59905934,0.66180694,0.5909491,-7.110777,10.4233465,4.9623637,3.9819891,8.96478,0.112372965,1,1683969662.113142
0.59905934,0.66180694,0.5909491,-7.042818,9.810954,4.8864636,3.9819891,8.96478,0.112372965,1,1683969662.1337118
0.59905934,0.66180694,0.5909491,-7.042818,9.810954,4.8864636,4.464971,8.592816,1.5695974,1,1683969662.1388583
0.59905934,0.66180694,0.5909491,-7.042818,9.810954,4.8864636,4.661535,8.26016,2.5051854,1,1683969662.1645637
0.59905934,0.66180694,0.5909491,-6.2028785,8.978039,4.6341763,4.661535,8.26016,2.5051854,1,1683969662.169698
0.8466348,0.79492444,0.9034064,-6.2028785,8.978039,4.6341763,4.661535,8.26016,2.5051854,1,1683969662.1799474
1.124151,0.87681943,0.8743193,-6.2028785,8.978039,4.6341763,4.661535,8.26016,2.5051854,1,1683969662.190151
1.124151,0.87681943,0.8743193,-5.089882,8.02738,4.2021422,4.661535,8.26016,2.5051854,1,1683969662.2055156
1.124151,0.87681943,0.8743193,-5.089882,8.02738,4.2021422,4.7670712,7.895605,3.342237,1,1683969662.210661
1.124151,0.87681943,0.8743193,-5.089882,8.02738,4.2021422,4.7977495,7.544814,4.036521,1,1683969662.2363408
1.4131312,1.0696356,0.5060051,-5.089882,8.02738,4.2021422,4.7977495,7.544814,4.036521,1,1683969662.246618
1.4131312,1.0696356,0.5060051,-3.5627189,5.9623504,3.031266,4.7977495,7.544814,4.036521,1,1683969662.2517598
1.8657796,1.3644698,-0.11390909,-3.5627189,5.9623504,3.031266,4.7977495,7.544814,4.036521,1,1683969662.2620542
1.8657796,1.3644698,-0.11390909,-2.310445,2.8744264,1.4074335,4.7977495,7.544814,4.036521,1,1683969662.2774773
1.8657796,1.3644698,-0.11390909,-2.310445,2.8744264,1.4074335,4.7624846,7.1514654,4.7340684,1,1683969662.28259
2.2348256,1.5238694,-0.18726702,-2.310445,2.8744264,1.4074335,4.7624846,7.1514654,4.7340684,1,1683969662.2927952
2.2348256,1.5238694,-0.18726702,-2.310445,2.8744264,1.4074335,4.7567215,7.04427,4.8977513,1,1683969662.3030388
2.2348256,1.5238694,-0.18726702,-5.2181635,7.157661,3.7077994,4.7567215,7.04427,4.8977513,1,1683969662.313333
2.2348256,1.5238694,-0.18726702,-5.2181635,7.157661,3.7077994,4.428461,7.9242454,3.7190316,1,1683969662.323631
0.9462747,0.89236915,0.8843808,-5.2181635,7.157661,3.7077994,4.428461,7.9242454,3.7190316,1,1683969662.3287778
1.1220167,0.94218916,0.7651666,-5.2181635,7.157661,3.7077994,4.428461,7.9242454,3.7190316,1,1683969662.3442113
1.1220167,0.94218916,0.7651666,-4.0263658,6.0336685,3.0405817,4.428461,7.9242454,3.7190316,1,1683969662.3544989
1.1220167,0.94218916,0.7651666,-4.0263658,6.0336685,3.0405817,4.426284,7.6073203,4.33276,1,1683969662.3647852
1.2743427,1.0640255,0.5207011,-4.0263658,6.0336685,3.0405817,4.426284,7.6073203,4.33276,1,1683969662.3699205
1.2743427,1.0640255,0.5207011,-2.5448647,4.036903,1.8544341,4.426284,7.6073203,4.33276,1,1683969662.3853214
1.2743427,1.0640255,0.5207011,-2.5448647,4.036903,1.8544341,4.384144,7.347629,4.798725,1,1683969662.4007232
1.2743427,1.0640255,0.5207011,-1.4929546,1.7318029,0.5233588,4.384144,7.347629,4.798725,1,1683969662.4109755
1.2743427,1.0640255,0.5207011,-1.4929546,1.7318029,0.5233588,4.3265805,7.1686873,5.1114316,1,1683969662.4263728
1.466488,1.173483,0.07750452,-1.4929546,1.7318029,0.5233588,4.3265805,7.1686873,5.1114316,1,1683969662.4315228
1.466488,1.173483,0.07750452,-0.028252518,-1.9741638,-1.3390167,4.3265805,7.1686873,5.1114316,1,1683969662.4468744
1.466488,1.173483,0.07750452,-0.028252518,-1.9741638,-1.3390167,4.2843695,7.088038,5.2573776,1,1683969662.457125
1.5508223,1.1984847,0.086163566,-0.028252518,-1.9741638,-1.3390167,4.2843695,7.088038,5.2573776,1,1683969662.4622712
1.5943613,1.2277545,0.24172144,-0.028252518,-1.9741638,-1.3390167,4.2843695,7.088038,5.2573776,1,1683969662.4930696
1.5943613,1.2277545,0.24172144,-0.028252518,-1.9741638,-1.3390167,4.2853956,7.1204576,5.2125416,1,1683969662.4982152
1.5943613,1.2277545,0.24172144,1.0607675,-4.226577,-2.4394903,4.2853956,7.1204576,5.2125416,1,1683969662.5033245
1.5943613,1.2277545,0.24172144,3.0686815,-7.423387,-3.935194,4.2853956,7.1204576,5.2125416,1,1683969662.5187485
1.4797205,1.2152538,0.6871133,3.0686815,-7.423387,-3.935194,4.2853956,7.1204576,5.2125416,1,1683969662.5290363
1.4797205,1.2152538,0.6871133,3.0686815,-7.423387,-3.935194,4.3533545,7.3984723,4.7483706,1,1683969662.53415
1.2891606,1.1054914,0.94633573,3.0686815,-7.423387,-3.935194,4.3533545,7.3984723,4.7483706,1,1683969662.5494933
1.2891606,1.1054914,0.94633573,3.0686815,-7.423387,-3.935194,4.3867016,7.7101316,4.1888933,1,1683969662.5648723
1.2891606,1.1054914,0.94633573,4.652655,-8.976512,-4.91548,4.3867016,7.7101316,4.1888933,1,1683969662.5700045
1.1137846,1.0308529,0.91499245,4.652655,-8.976512,-4.91548,4.3867016,7.7101316,4.1888933,1,1683969662.5854378
1.1137846,1.0308529,0.91499245,1.9984456,-5.703496,-2.1647537,4.3867016,7.7101316,4.1888933,1,1683969662.5957296
1.8106543,1.3849589,0.673088,1.9984456,-5.703496,-2.1647537,4.3867016,7.7101316,4.1888933,1,1683969662.6059725
1.8106543,1.3849589,0.673088,1.9984456,-5.703496,-2.1647537,4.0562453,7.1187286,5.39506,1,1683969662.6214097
1.6800979,1.3131254,1.0443902,1.9984456,-5.703496,-2.1647537,4.0562453,7.1187286,5.39506,1,1683969662.6265562
1.6800979,1.3131254,1.0443902,1.9984456,-5.703496,-2.1647537,4.194452,7.3471003,4.966167,1,1683969662.6368468
1.6800979,1.3131254,1.0443902,4.5022297,-8.693834,-3.908774,4.194452,7.3471003,4.966167,1,1683969662.652271
1.4981972,1.1273218,1.0515857,4.5022297,-8.693834,-3.908774,4.194452,7.3471003,4.966167,1,1683969662.667669
1.4981972,1.1273218,1.0515857,5.7760363,-9.764528,-4.9113564,4.194452,7.3471003,4.966167,1,1683969662.6728156
1.4981972,1.1273218,1.0515857,5.7760363,-9.764528,-4.9113564,4.2921896,7.6949596,4.3128667,1,1683969662.6831198
1.4981972,1.1273218,1.0515857,5.7760363,-9.764528,-4.9113564,4.284908,8.094969,3.5138545,1,1683969662.7139761
1.4981972,1.1273218,1.0515857,6.414238,-10.103406,-5.5637608,4.284908,8.094969,3.5138545,1,1683969662.7191286
1.2307425,0.96261716,0.9497505,6.414238,-10.103406,-5.5637608,4.284908,8.094969,3.5138545,1,1683969662.724281
1.2307425,0.96261716,0.9497505,6.5118237,-9.876622,-5.8302507,4.284908,8.094969,3.5138545,1,1683969662.750014
1.2307425,0.96261716,0.9497505,6.5118237,-9.876622,-5.8302507,4.0324078,8.666954,2.2044787,1,1683969662.7603052
0.8773683,0.77547204,0.7429092,6.5118237,-9.876622,-5.8302507,4.0324078,8.666954,2.2044787,1,1683969662.765456
0.61485296,0.6932112,0.56436217,6.5118237,-9.876622,-5.8302507,4.0324078,8.666954,2.2044787,1,1683969662.7911882
0.61485296,0.6932112,0.56436217,6.5118237,-9.876622,-5.8302507,3.7258081,8.974398,1.3470898,1,1683969662.7963367
0.61485296,0.6932112,0.56436217,6.19173,-9.427941,-5.6718836,3.7258081,8.974398,1.3470898,1,1683969662.8014884
0.26361296,0.61643845,0.48216227,6.19173,-9.427941,-5.6718836,3.7258081,8.974398,1.3470898,1,1683969662.8117332
0.26361296,0.61643845,0.48216227,6.19173,-9.427941,-5.6718836,3.3475707,9.204402,0.5557709,1,1683969662.8271701
0.26361296,0.61643845,0.48216227,5.442809,-8.46537,-5.1074443,3.3475707,9.204402,0.5557709,1,1683969662.8374677
0.26361296,0.61643845,0.48216227,4.6254716,-6.9684453,-4.317748,3.3475707,9.204402,0.5557709,1,1683969662.8426192
-0.11281146,0.54936135,0.54893446,4.6254716,-6.9684453,-4.317748,3.3475707,9.204402,0.5557709,1,1683969662.8580225
0.2716012,0.45606318,0.44094035,4.6254716,-6.9684453,-4.317748,3.3475707,9.204402,0.5557709,1,1683969662.8785977
0.2716012,0.45606318,0.44094035,5.5381045,-9.992839,-6.276793,3.3475707,9.204402,0.5557709,1,1683969662.883736
0.2716012,0.45606318,0.44094035,5.5381045,-9.992839,-6.276793,4.0904937,8.878261,0.82490885,1,1683969662.8939588
-0.5902783,0.28879735,0.9216392,5.5381045,-9.992839,-6.276793,4.0904937,8.878261,0.82490885,1,1683969662.91968
-0.5902783,0.28879735,0.9216392,4.4431286,-7.227605,-4.627457,4.0904937,8.878261,0.82490885,1,1683969662.9351218
-1.0162178,0.112201676,0.9714591,4.4431286,-7.227605,-4.627457,4.0904937,8.878261,0.82490885,1,1683969662.9607582
-1.0162178,0.112201676,0.9714591,3.4214563,-4.491234,-3.2592716,4.0904937,8.878261,0.82490885,1,1683969662.9710472
-1.0162178,0.112201676,0.9714591,0.18203785,2.4952319,-0.03313944,4.0904937,8.878261,0.82490885,1,1683969662.9864728
-1.0162178,0.112201676,0.9714591,0.18203785,2.4952319,-0.03313944,2.0243826,9.408062,-1.9043067,1,1683969662.9967484
-1.2630615,-0.01323248,0.6304027,0.18203785,2.4952319,-0.03313944,2.0243826,9.408062,-1.9043067,1,1683969663.0018613
-1.2630615,-0.01323248,0.6304027,0.18203785,2.4952319,-0.03313944,2.1050298,9.405251,-1.8292664,1,1683969663.0326717
-1.2630615,-0.01323248,0.6304027,-1.6870571,6.5335093,1.8839084,2.1050298,9.405251,-1.8292664,1,1683969663.0378115
-0.9526166,0.13537374,0.21732976,-1.6870571,6.5335093,1.8839084,2.1050298,9.405251,-1.8292664,1,1683969663.0429573
-0.9526166,0.13537374,0.21732976,-1.6870571,6.5335093,1.8839084,2.2428803,9.400647,-1.683286,1,1683969663.058413
-0.9526166,0.13537374,0.21732976,-3.3583844,9.073945,3.445738,2.2428803,9.400647,-1.683286,1,1683969663.06353
-0.61101127,0.18726702,-0.10384752,-3.3583844,9.073945,3.445738,2.2428803,9.400647,-1.683286,1,1683969663.0789669
-0.14330104,0.26855224,-0.16574138,-3.3583844,9.073945,3.445738,2.2428803,9.400647,-1.683286,1,1683969663.0944188
-0.14330104,0.26855224,-0.16574138,-5.1074443,10.426248,4.8505754,2.2428803,9.400647,-1.683286,1,1683969663.0995553
-0.14330104,0.26855224,-0.16574138,-5.1074443,10.426248,4.8505754,2.8486598,9.341374,-0.92734855,1,1683969663.1047082
-0.14330104,0.26855224,-0.16574138,-5.1074443,10.426248,4.8505754,3.3146818,9.230938,-0.1969892,1,1683969663.1406944
0.1615948,0.37977824,-0.03744121,-5.1074443,10.426248,4.8505754,3.3146818,9.230938,-0.1969892,1,1683969663.1458445
0.1615948,0.37977824,-0.03744121,-5.340031,9.936334,3.7646098,3.3146818,9.230938,-0.1969892,1,1683969663.166423
-0.0006707709,0.52472574,-0.2183664,-5.340031,9.936334,3.7646098,3.3146818,9.230938,-0.1969892,1,1683969663.1715653
-0.0006707709,0.52472574,-0.2183664,-5.340031,9.936334,3.7646098,3.31864,9.231426,0.059255686,1,1683969663.1766737
-0.0006707709,0.52472574,-0.2183664,-6.611242,10.444421,4.372268,3.31864,9.231426,0.059255686,1,1683969663.1972566
0.2277572,0.5345434,0.017744938,-6.611242,10.444421,4.372268,3.31864,9.231426,0.059255686,1,1683969663.202412
0.2277572,0.5345434,0.017744938,-6.611242,10.444421,4.372268,3.6052861,9.083691,0.8512289,1,1683969663.2178435
0.2277572,0.5345434,0.017744938,-7.33359,10.392039,4.644103,3.6052861,9.083691,0.8512289,1,1683969663.2332723
0.2277572,0.5345434,0.017744938,-7.33359,10.392039,4.644103,3.8411539,8.855621,1.7491771,1,1683969663.2435043
0.37044844,0.5839365,0.27849188,-7.33359,10.392039,4.644103,3.8411539,8.855621,1.7491771,1,1683969663.2486408
0.53960466,0.6857717,0.68888164,-7.33359,10.392039,4.644103,3.8411539,8.855621,1.7491771,1,1683969663.2692204
0.53960466,0.6857717,0.68888164,-7.33359,10.392039,4.644103,4.040948,8.359027,3.1675742,1,1683969663.2795055
0.53960466,0.6857717,0.68888164,-7.3566504,10.093632,4.6831985,4.040948,8.359027,3.1675742,1,1683969663.284645
0.69882125,0.73034745,0.95408005,-7.3566504,10.093632,4.6831985,4.040948,8.359027,3.1675742,1,1683969663.310359
0.69882125,0.73034745,0.95408005,-6.8187833,9.512852,4.5011606,4.040948,8.359027,3.1675742,1,1683969663.3154702
0.69882125,0.73034745,0.95408005,-6.8187833,9.512852,4.5011606,4.059128,7.947164,4.0745792,1,1683969663.320604
0.69882125,0.73034745,0.95408005,-6.8187833,9.512852,4.5011606,3.9883375,7.5069103,4.8964877,1,1683969663.330891
0.95408005,0.78163093,1.1287854,-6.8187833,9.512852,4.5011606,3.9883375,7.5069103,4.8964877,1,1683969663.3463216
0.95408005,0.78163093,1.1287854,-6.0153427,8.849605,4.101502,3.9883375,7.5069103,4.8964877,1,1683969663.35659
0.95408005,0.78163093,1.1287854,-6.0153427,8.849605,4.101502,3.839154,7.079138,5.6020365,1,1683969663.372041
0.95408005,0.78163093,1.1287854,-5.001765,7.995615,3.4658966,3.839154,7.079138,5.6020365,1,1683969663.3823216
1.0793313,0.88310033,1.1393958,-5.001765,7.995615,3.4658966,3.839154,7.079138,5.6020365,1,1683969663.3926008
1.0793313,0.88310033,1.1393958,-3.5538614,6.4989953,2.445599,3.839154,7.079138,5.6020365,1,1683969663.4183092
1.1372005,0.95353127,1.0436585,-3.5538614,6.4989953,2.445599,3.839154,7.079138,5.6020365,1,1683969663.4234529
1.1372005,0.95353127,1.0436585,6.8021374,-9.777509,-4.646852,3.839154,7.079138,5.6020365,1,1683969663.4388442
-0.3958158,0.47905236,1.156165,6.8021374,-9.777509,-4.646852,3.839154,7.079138,5.6020365,1,1683969663.4439712
-0.3958158,0.47905236,1.156165,6.8021374,-9.777509,-4.646852,2.7505023,9.304595,1.4475461,1,1683969663.4593632
-0.3958158,0.47905236,1.156165,5.924782,-7.6187115,-2.9582677,2.7505023,9.304595,1.4475461,1,1683969663.4747968
-0.3958158,0.47905236,1.156165,5.924782,-7.6187115,-2.9582677,2.6106544,9.39781,1.0496525,1,1683969663.47992
-0.77034986,0.3987428,1.0563421,5.924782,-7.6187115,-2.9582677,2.6106544,9.39781,1.0496525,1,1683969663.4953125
-1.0184131,0.20739016,0.6961382,5.924782,-7.6187115,-2.9582677,2.6106544,9.39781,1.0496525,1,1683969663.505561
-1.0184131,0.20739016,0.6961382,5.924782,-7.6187115,-2.9582677,2.295132,9.536227,0.16993296,1,1683969663.525993
-1.0184131,0.20739016,0.6961382,3.2588134,-2.927419,-1.1607966,2.295132,9.536227,0.16993296,1,1683969663.5311384
-0.6904671,0.39575478,0.40557244,3.2588134,-2.927419,-1.1607966,2.295132,9.536227,0.16993296,1,1683969663.5414283
-0.6904671,0.39575478,0.40557244,0.30787608,2.239432,0.839787,2.295132,9.536227,0.16993296,1,1683969663.5517008
-0.6904671,0.39575478,0.40557244,0.30787608,2.239432,0.839787,2.2378426,9.551146,-0.061778177,1,1683969663.5670636
-0.33440974,0.5901564,-0.09213952,0.30787608,2.239432,0.839787,2.2378426,9.551146,-0.061778177,1,1683969663.5876222
-0.33440974,0.5901564,-0.09213952,0.30787608,2.239432,0.839787,2.3121111,9.533613,-0.021922382,1,1683969663.592766
-0.33440974,0.5901564,-0.09213952,-1.8779525,5.872706,2.1873558,2.3121111,9.533613,-0.021922382,1,1683969663.5979204
-0.33440974,0.5901564,-0.09213952,-1.8779525,5.872706,2.1873558,2.578786,9.455207,0.4301721,1,1683969663.6184433
-0.14525238,0.53984857,-0.33447072,-1.8779525,5.872706,2.1873558,2.578786,9.455207,0.4301721,1,1683969663.6337867
-0.14525238,0.53984857,-0.33447072,-3.4342844,7.1539955,2.9701796,2.578786,9.455207,0.4301721,1,1683969663.6389334
0.01103723,0.5286284,-0.3340439,-3.4342844,7.1539955,2.9701796,2.578786,9.455207,0.4301721,1,1683969663.6543615
0.01103723,0.5286284,-0.3340439,-3.4342844,7.1539955,2.9701796,2.8024573,9.354778,0.9329987,1,1683969663.6594942
0.01103723,0.5286284,-0.3340439,-4.6320386,7.5347176,3.542255,2.8024573,9.354778,0.9329987,1,1683969663.664639
0.01103723,0.5286284,-0.3340439,-4.6320386,7.5347176,3.542255,3.026943,9.203183,1.5411553,1,1683969663.6852102
0.01103723,0.5286284,-0.3340439,-5.586363,7.1691146,3.922824,3.026943,9.203183,1.5411553,1,1683969663.6954885
-0.51533496,0.406792,0.026403978,-5.586363,7.1691146,3.922824,3.026943,9.203183,1.5411553,1,1683969663.7160435
-0.51533496,0.406792,0.026403978,-3.7157407,6.253733,4.056145,3.026943,9.203183,1.5411553,1,1683969663.7313461
-0.51533496,0.406792,0.026403978,-3.7157407,6.253733,4.056145,2.5066483,9.463438,0.6294311,1,1683969663.741628
-0.26129574,0.39386442,0.1267147,-3.7157407,6.253733,4.056145,2.5066483,9.463438,0.6294311,1,1683969663.7570622
-0.26129574,0.39386442,0.1267147,-4.6025643,7.1066537,4.780326,2.5066483,9.463438,0.6294311,1,1683969663.7622077
-0.26129574,0.39386442,0.1267147,-4.6025643,7.1066537,4.780326,3.0214453,9.208185,1.5219432,1,1683969663.787861
-0.26129574,0.39386442,0.1267147,-5.287344,7.64956,5.287344,3.0214453,9.208185,1.5219432,1,1683969663.8031912
-0.26129574,0.39386442,0.1267147,-5.4615936,7.726071,5.4153204,3.0214453,9.208185,1.5219432,1,1683969663.8083541
-0.26129574,0.39386442,0.1267147,-5.4615936,7.726071,5.4153204,3.3323972,8.96257,2.1917043,1,1683969663.828914
0.26849127,0.5538128,0.43972078,-5.4615936,7.726071,5.4153204,3.3323972,8.96257,2.1917043,1,1683969663.839165
0.4476481,0.594242,0.4982608,-5.4615936,7.726071,5.4153204,3.3323972,8.96257,2.1917043,1,1683969663.8443003
0.4476481,0.594242,0.4982608,-5.3307157,7.475158,5.3307157,3.3323972,8.96257,2.1917043,1,1683969663.8597462
0.4476481,0.594242,0.4982608,-5.3307157,7.475158,5.3307157,3.4686396,8.819888,2.5326362,1,1683969663.8700383
0.7108951,0.67973477,0.5296041,-5.3307157,7.475158,5.3307157,3.4686396,8.819888,2.5326362,1,1683969663.8906274
0.7108951,0.67973477,0.5296041,-5.3307157,7.475158,5.3307157,3.7865927,8.336174,3.5222208,1,1683969663.9009182
0.7108951,0.67973477,0.5296041,-4.983744,6.9488974,5.075374,3.7865927,8.336174,3.5222208,1,1683969663.9060688
0.7108951,0.67973477,0.5296041,-4.404644,5.853158,4.3725734,3.7865927,8.336174,3.5222208,1,1683969663.9163632
0.7108951,0.67973477,0.5296041,-4.404644,5.853158,4.3725734,3.9231975,7.994006,4.115886,1,1683969663.931771
1.0381703,0.8590135,0.37361938,-4.404644,5.853158,4.3725734,3.9231975,7.994006,4.115886,1,1683969663.9369273
1.0381703,0.8590135,0.37361938,-4.404644,5.853158,4.3725734,4.03066,7.5179563,4.8446097,1,1683969663.9677727
1.0381703,0.8590135,0.37361938,-3.6451857,3.6581664,2.9089403,4.03066,7.5179563,4.8446097,1,1683969663.9729202
1.5896659,1.083112,0.13360536,-3.6451857,3.6581664,2.9089403,4.03066,7.5179563,4.8446097,1,1683969663.9780655
2.1493936,1.4631951,1.3488592,-3.6451857,3.6581664,2.9089403,4.03066,7.5179563,4.8446097,1,1683969663.9986238
2.1493936,1.4631951,1.3488592,3.8502836,-7.2880807,-4.468174,4.03066,7.5179563,4.8446097,1,1683969664.0088644
2.1493936,1.4631951,1.3488592,3.8502836,-7.2880807,-4.468174,4.366736,7.4916553,4.5872493,1,1683969664.0294445
2.1493936,1.4631951,1.3488592,4.3777657,-7.7581415,-4.8264465,4.366736,7.4916553,4.5872493,1,1683969664.0345893
2.1493936,1.4631951,1.3488592,4.3777657,-7.7581415,-4.8264465,4.364608,7.6436214,4.331438,1,1683969664.044888
2.0354846,1.3573353,1.3281872,4.3777657,-7.7581415,-4.8264465,4.364608,7.6436214,4.331438,1,1683969664.06035
2.0354846,1.3573353,1.3281872,4.3777657,-7.7581415,-4.8264465,4.22519,8.232731,3.2566893,1,1683969664.0808578
2.0354846,1.3573353,1.3281872,6.624681,-9.666637,-6.3245935,4.22519,8.232731,3.2566893,1,1683969664.0860076
1.3405051,0.9225539,1.1451888,6.624681,-9.666637,-6.3245935,4.22519,8.232731,3.2566893,1,1683969664.0963087
0.92438316,0.76772773,0.9548118,6.624681,-9.666637,-6.3245935,4.22519,8.232731,3.2566893,1,1683969664.1219828
0.92438316,0.76772773,0.9548118,6.932557,-9.845468,-6.5428247,4.22519,8.232731,3.2566893,1,1683969664.1271381
0.92438316,0.76772773,0.9548118,6.932557,-9.845468,-6.5428247,3.9906104,8.637134,2.3897853,1,1683969664.1374247
0.46234405,0.579485,0.66253865,6.932557,-9.845468,-6.5428247,3.9906104,8.637134,2.3897853,1,1683969664.147714
0.46234405,0.579485,0.66253865,6.7499084,-9.608758,-6.541298,3.9906104,8.637134,2.3897853,1,1683969664.1528628
0.46234405,0.579485,0.66253865,6.7499084,-9.608758,-6.541298,3.6400936,8.985365,1.499687,1,1683969664.1580107
0.46234405,0.579485,0.66253865,6.7499084,-9.608758,-6.541298,3.196311,9.251365,0.6572423,1,1683969664.1940062
0.46234405,0.579485,0.66253865,6.1468315,-8.9438305,-6.0758185,3.196311,9.251365,0.6572423,1,1683969664.199158
0.032440916,0.398072,0.6038767,6.1468315,-8.9438305,-6.0758185,3.196311,9.251365,0.6572423,1,1683969664.2043068
0.032440916,0.398072,0.6038767,4.992296,-7.011664,-4.8156033,3.196311,9.251365,0.6572423,1,1683969664.2145987
0.032440916,0.398072,0.6038767,4.992296,-7.011664,-4.8156033,2.4683268,9.485928,-0.40085295,1,1683969664.2300267
-0.5108225,0.27147925,0.6591848,4.992296,-7.011664,-4.8156033,2.4683268,9.485928,-0.40085295,1,1683969664.2403224
-1.051037,0.25105122,0.6227193,4.992296,-7.011664,-4.8156033,2.4683268,9.485928,-0.40085295,1,1683969664.2608497
-1.051037,0.25105122,0.6227193,3.3099732,-3.6682458,-2.9124527,2.4683268,9.485928,-0.40085295,1,1683969664.2659965
0.7914486,0.5224695,-0.4564291,3.3099732,-3.6682458,-2.9124527,2.4683268,9.485928,-0.40085295,1,1683969664.2711504
0.7914486,0.5224695,-0.4564291,3.3099732,-3.6682458,-2.9124527,4.2970304,8.46705,2.4659119,1,1683969664.2762933
0.7914486,0.5224695,-0.4564291,-7.5195985,9.109528,5.0969067,4.2970304,8.46705,2.4659119,1,1683969664.2814035
0.7914486,0.5224695,-0.4564291,-7.5195985,9.109528,5.0969067,4.4887877,7.8479533,3.807431,1,1683969664.2968278
0.7914486,0.5224695,-0.4564291,-7.1944656,6.309016,4.1228824,4.4887877,7.8479533,3.807431,1,1683969664.3070407
1.2233031,0.8075471,-0.13842271,-7.1944656,6.309016,4.1228824,4.4887877,7.8479533,3.807431,1,1683969664.3173168
1.2233031,0.8075471,-0.13842271,-7.1944656,6.309016,4.1228824,4.55154,7.4430294,4.4856334,1,1683969664.3378487
1.2233031,0.8075471,-0.13842271,-5.1082077,2.4817927,2.3267858,4.55154,7.4430294,4.4856334,1,1683969664.348129
1.5649084,1.0609156,0.632293,-5.1082077,2.4817927,2.3267858,4.55154,7.4430294,4.4856334,1,1683969664.3532774
1.4345349,0.9985949,1.2093998,-5.1082077,2.4817927,2.3267858,4.55154,7.4430294,4.4856334,1,1683969664.3738496
1.4345349,0.9985949,1.2093998,-2.0361667,-0.7144069,0.7881689,4.55154,7.4430294,4.4856334,1,1683969664.3841379
1.4345349,0.9985949,1.2093998,-2.0361667,-0.7144069,0.7881689,4.6444054,7.045204,5.003071,1,1683969664.3892834
1.1871424,0.95499474,1.3649577,-2.0361667,-0.7144069,0.7881689,4.6444054,7.045204,5.003071,1,1683969664.404711
1.1871424,0.95499474,1.3649577,0.098807454,-2.3486242,-0.07376198,4.6444054,7.045204,5.003071,1,1683969664.4098547
1.1871424,0.95499474,1.3649577,0.098807454,-2.3486242,-0.07376198,4.7373624,6.963533,5.030182,1,1683969664.4201422
1.0211571,0.92822486,1.1984847,0.098807454,-2.3486242,-0.07376198,4.7373624,6.963533,5.030182,1,1683969664.435534
1.0211571,0.92822486,1.1984847,0.098807454,-2.3486242,-0.07376198,4.8416195,7.003058,4.8736043,1,1683969664.4458282
1.0211571,0.92822486,1.1984847,1.9911152,-3.4726162,-0.8396343,4.8416195,7.003058,4.8736043,1,1683969664.4612563
1.0211571,0.92822486,1.1984847,2.9439123,-4.0836344,-1.4046847,4.8416195,7.003058,4.8736043,1,1683969664.471547
1.0398778,0.8991988,0.8413296,2.9439123,-4.0836344,-1.4046847,4.8416195,7.003058,4.8736043,1,1683969664.4818368
1.0398778,0.8991988,0.8413296,2.9439123,-4.0836344,-1.4046847,4.9373026,7.12875,4.5869484,1,1683969664.4972653
1.0398778,0.8991988,0.8413296,3.5731034,-5.1123314,-2.281887,4.9373026,7.12875,4.5869484,1,1683969664.517834
1.2123269,0.95023835,0.3172746,3.5731034,-5.1123314,-2.281887,4.9373026,7.12875,4.5869484,1,1683969664.5229778
1.2123269,0.95023835,0.3172746,3.5731034,-5.1123314,-2.281887,5.0340266,7.419723,3.9802513,1,1683969664.5332448
0.77583796,0.6568066,-0.028782167,3.5731034,-5.1123314,-2.281887,5.0340266,7.419723,3.9802513,1,1683969664.5537708
0.77583796,0.6568066,-0.028782167,3.5731034,-5.1123314,-2.281887,4.6607633,8.02942,3.168884,1,1683969664.5589092
0.77583796,0.6568066,-0.028782167,-5.481752,6.970278,4.9625163,4.6607633,8.02942,3.168884,1,1683969664.5691977
1.1230533,0.86492854,-0.019574312,-5.481752,6.970278,4.9625163,4.6607633,8.02942,3.168884,1,1683969664.5897596
1.1230533,0.86492854,-0.019574312,-4.872872,4.8786755,3.853796,4.6607633,8.02942,3.168884,1,1683969664.5949054
1.1230533,0.86492854,-0.019574312,-4.872872,4.8786755,3.853796,4.7972627,7.655112,3.8238273,1,1683969664.6000047
1.674732,1.0671355,-0.043051295,-4.872872,4.8786755,3.853796,4.7972627,7.655112,3.8238273,1,1683969664.6360047
1.674732,1.0671355,-0.043051295,-4.872872,4.8786755,3.853796,4.885202,7.313459,4.3456,1,1683969664.6411016
1.674732,1.0671355,-0.043051295,-3.8918226,2.2559254,2.4090998,4.885202,7.313459,4.3456,1,1683969664.646245
1.674732,1.0671355,-0.043051295,-1.7570012,-1.8248072,0.08277224,4.885202,7.313459,4.3456,1,1683969664.6513581
1.674732,1.0671355,-0.043051295,-1.7570012,-1.8248072,0.08277224,5.000235,6.984494,4.7382073,1,1683969664.6564994
2.1617725,1.4105701,0.43679374,-1.7570012,-1.8248072,0.08277224,5.000235,6.984494,4.7382073,1,1683969664.6616447
2.1617725,1.4105701,0.43679374,-1.7570012,-1.8248072,0.08277224,5.045321,6.9526362,4.7372675,1,1683969664.6975374
2.1617725,1.4105701,0.43679374,0.5758932,-4.7470336,-1.8078557,5.045321,6.9526362,4.7372675,1,1683969664.707833
2.2258005,1.5146006,0.85815984,0.5758932,-4.7470336,-1.8078557,5.045321,6.9526362,4.7372675,1,1683969664.7129743
1.9736518,1.4102652,1.3005637,0.5758932,-4.7470336,-1.8078557,5.045321,6.9526362,4.7372675,1,1683969664.7334466
1.9736518,1.4102652,1.3005637,0.5758932,-4.7470336,-1.8078557,5.1683774,7.130118,4.3226624,1,1683969664.743728
1.9736518,1.4102652,1.3005637,2.8023443,-6.650948,-3.3487632,5.1683774,7.130118,4.3226624,1,1683969664.7540178
1.7305278,1.2418407,1.2128756,2.8023443,-6.650948,-3.3487632,5.1683774,7.130118,4.3226624,1,1683969664.7591674
1.7305278,1.2418407,1.2128756,2.8023443,-6.650948,-3.3487632,5.1854234,7.2661123,4.068307,1,1683969664.7694256
1.7305278,1.2418407,1.2128756,4.034307,-7.433008,-4.2383356,5.1854234,7.2661123,4.068307,1,1683969664.790006
1.1542137,0.89322287,0.8337681,4.034307,-7.433008,-4.2383356,5.1854234,7.2661123,4.068307,1,1683969664.795164
0.6080233,0.5998521,0.47252756,4.034307,-7.433008,-4.2383356,5.1854234,7.2661123,4.068307,1,1683969664.8311727
0.6080233,0.5998521,0.47252756,4.034307,-7.433008,-4.2383356,4.429126,8.556025,1.8475378,1,1683969664.8363228
0.6080233,0.5998521,0.47252756,5.3194146,-8.395579,-5.518404,4.429126,8.556025,1.8475378,1,1683969664.8414662
0.6080233,0.5998521,0.47252756,4.586682,-7.46233,-4.963433,4.429126,8.556025,1.8475378,1,1683969664.856909
0.3617894,0.57344806,0.43636695,4.586682,-7.46233,-4.963433,4.429126,8.556025,1.8475378,1,1683969664.8620503
0.3617894,0.57344806,0.43636695,4.586682,-7.46233,-4.963433,4.1122723,8.836239,1.1163393,1,1683969664.877504
0.3617894,0.57344806,0.43636695,4.586682,-7.46233,-4.963433,3.768095,9.04387,0.49599242,1,1683969664.9032083
0.04183171,0.591193,0.49984625,4.586682,-7.46233,-4.963433,3.768095,9.04387,0.49599242,1,1683969664.9134955
0.04183171,0.591193,0.49984625,3.7895026,-6.02924,-4.198935,3.768095,9.04387,0.49599242,1,1683969664.9186063
-0.5578374,0.45831943,0.58289987,3.7895026,-6.02924,-4.198935,3.768095,9.04387,0.49599242,1,1683969664.9494703
-0.5578374,0.45831943,0.58289987,2.4845417,-3.1693215,-2.725528,3.768095,9.04387,0.49599242,1,1683969664.9546208
-0.5578374,0.45831943,0.58289987,2.4845417,-3.1693215,-2.725528,3.291514,9.239714,-0.17254081,1,1683969664.9597678
-0.5578374,0.45831943,0.58289987,2.4845417,-3.1693215,-2.725528,3.087964,9.303036,-0.39254758,1,1683969664.9752007
-0.5578374,0.45831943,0.58289987,0.97402465,-0.1142318,-1.1238394,3.087964,9.303036,-0.39254758,1,1683969664.9803452
-0.8584647,0.32593364,0.47935724,0.97402465,-0.1142318,-1.1238394,3.087964,9.303036,-0.39254758,1,1683969664.9854956
-0.7782771,0.36075276,0.17610784,0.97402465,-0.1142318,-1.1238394,3.087964,9.303036,-0.39254758,1,1683969665.0060625
-0.7782771,0.36075276,0.17610784,-0.9793697,3.566384,0.8688031,3.087964,9.303036,-0.39254758,1,1683969665.016319
-0.7782771,0.36075276,0.17610784,-0.9793697,3.566384,0.8688031,3.0282834,9.322523,-0.39523086,1,1683969665.031753
-0.7782771,0.36075276,0.17610784,-0.9793697,3.566384,0.8688031,3.1046033,9.303701,-0.19675004,1,1683969665.047207
-0.58851,0.40776768,-0.04036821,-0.9793697,3.566384,0.8688031,3.1046033,9.303701,-0.19675004,1,1683969665.0523615
-0.58851,0.40776768,-0.04036821,-2.3060162,5.55979,2.1497874,3.1046033,9.303701,-0.19675004,1,1683969665.062639
-0.58851,0.40776768,-0.04036821,-3.6496143,6.861391,3.3009632,3.1046033,9.303701,-0.19675004,1,1683969665.0729368
-0.58851,0.40776768,-0.04036821,-3.6496143,6.861391,3.3009632,3.2780173,9.244594,0.16805834,1,1683969665.0934608
-0.09518848,0.28208962,0.027196707,-3.6496143,6.861391,3.3009632,3.2780173,9.244594,0.16805834,1,1683969665.1088967
-0.09518848,0.28208962,0.027196707,-3.6496143,6.861391,3.3009632,3.6679294,9.085583,0.4843711,1,1683969665.1192098
-0.09518848,0.28208962,0.027196707,-4.8301115,9.907318,5.3243012,3.6679294,9.085583,0.4843711,1,1683969665.1295135
0.22617173,0.31629896,0.12823918,-4.8301115,9.907318,5.3243012,3.6679294,9.085583,0.4843711,1,1683969665.1449149
0.22617173,0.31629896,0.12823918,-4.8301115,9.907318,5.3243012,4.0230575,8.861002,1.2384632,1,1683969665.1500487
0.22617173,0.31629896,0.12823918,-6.068488,10.8394985,5.9886174,4.0230575,8.861002,1.2384632,1,1683969665.1603415
0.57478964,0.4250248,0.22196417,-6.068488,10.8394985,5.9886174,4.0230575,8.861002,1.2384632,1,1683969665.1757758
0.57478964,0.4250248,0.22196417,-7.202254,11.336285,6.266561,4.0230575,8.861002,1.2384632,1,1683969665.18093
0.57478964,0.4250248,0.22196417,-7.202254,11.336285,6.266561,4.3353634,8.536151,2.1388993,1,1683969665.206635
0.57478964,0.4250248,0.22196417,-7.757836,11.074529,6.0559654,4.3353634,8.536151,2.1388993,1,1683969665.2271907
0.57478964,0.4250248,0.22196417,-7.757836,11.074529,6.0559654,4.600069,7.8627863,3.6403403,1,1683969665.2323375
0.8017541,0.53667766,0.2719061,-7.757836,11.074529,6.0559654,4.600069,7.8627863,3.6403403,1,1683969665.237492
0.8017541,0.53667766,0.2719061,-7.757836,11.074529,6.0559654,4.606099,7.3210196,4.628457,1,1683969665.2477727
0.9507872,0.66778284,0.4027064,-7.757836,11.074529,6.0559654,4.606099,7.3210196,4.628457,1,1683969665.2529223
0.9507872,0.66778284,0.4027064,-7.734623,9.854784,5.247027,4.606099,7.3210196,4.628457,1,1683969665.2785904
1.0590862,0.7121147,0.5222866,-7.734623,9.854784,5.247027,4.606099,7.3210196,4.628457,1,1683969665.288888
1.0590862,0.7121147,0.5222866,-7.734623,9.854784,5.247027,4.495494,6.7504582,5.5188727,1,1683969665.3043275
1.0590862,0.7121147,0.5222866,-5.5321484,5.1477613,2.7215574,4.495494,6.7504582,5.5188727,1,1683969665.3249152
1.2974538,0.8072422,0.32294568,-5.5321484,5.1477613,2.7215574,4.495494,6.7504582,5.5188727,1,1683969665.3403485
1.2974538,0.8072422,0.32294568,-5.5321484,5.1477613,2.7215574,4.322339,6.208636,6.245505,1,1683969665.3454945
1.6194848,0.95475084,0.21159773,-5.5321484,5.1477613,2.7215574,4.322339,6.208636,6.245505,1,1683969665.3609247
1.6194848,0.95475084,0.21159773,-5.5321484,5.1477613,2.7215574,4.1631775,5.7567377,6.7649117,1,1683969665.371225
1.6194848,0.95475084,0.21159773,-4.203211,2.3231206,1.4262177,4.1631775,5.7567377,6.7649117,1,1683969665.3815298
-0.45557535,0.3434347,0.46807608,-4.203211,2.3231206,1.4262177,4.1631775,5.7567377,6.7649117,1,1683969665.386679
-0.45557535,0.3434347,0.46807608,-4.203211,2.3231206,1.4262177,3.6861968,9.075529,-0.5318101,1,1683969665.3918219
-0.45557535,0.3434347,0.46807608,-1.2327261,5.2445836,2.2525656,3.6861968,9.075529,-0.5318101,1,1683969665.4021177
-0.33642206,0.2550149,0.42782986,-1.2327261,5.2445836,2.2525656,3.6861968,9.075529,-0.5318101,1,1683969665.4174857
-0.33642206,0.2550149,0.42782986,-1.2327261,5.2445836,2.2525656,3.980433,8.965928,-0.06646939,1,1683969665.4328773
-0.33642206,0.2550149,0.42782986,-2.1784983,7.1938543,3.4406984,3.980433,8.965928,-0.06646939,1,1683969665.4380229
-0.33642206,0.2550149,0.42782986,-3.1236594,8.843038,4.477795,3.980433,8.965928,-0.06646939,1,1683969665.4482982
-0.33642206,0.2550149,0.42782986,-3.1236594,8.843038,4.477795,4.265349,8.823092,0.44268277,1,1683969665.458555
-0.07939488,0.24769738,0.3547768,-3.1236594,8.843038,4.477795,4.265349,8.823092,0.44268277,1,1683969665.473878
-0.07939488,0.24769738,0.3547768,-4.1577015,10.311864,5.4017286,4.265349,8.823092,0.44268277,1,1683969665.479008
-0.07939488,0.24769738,0.3547768,-4.1577015,10.311864,5.4017286,4.575413,8.607581,1.1005822,1,1683969665.4944053
0.2948343,0.31215236,0.37227783,-4.1577015,10.311864,5.4017286,4.575413,8.607581,1.1005822,1,1683969665.5098557
0.2948343,0.31215236,0.37227783,-4.1577015,10.311864,5.4017286,4.8567333,8.313973,1.8777907,1,1683969665.5201364
0.2948343,0.31215236,0.37227783,-4.811175,11.058494,5.8178806,4.8567333,8.313973,1.8777907,1,1683969665.530428
0.58844894,0.4170975,0.39740124,-4.811175,11.058494,5.8178806,4.8567333,8.313973,1.8777907,1,1683969665.5407078
0.58844894,0.4170975,0.39740124,-4.811175,11.058494,5.8178806,5.060884,7.9444203,2.740392,1,1683969665.5510023
0.58844894,0.4170975,0.39740124,-5.2542048,11.277641,5.908136,5.060884,7.9444203,2.740392,1,1683969665.5663996
0.7963879,0.5030171,0.33154374,-5.2542048,11.277641,5.908136,5.060884,7.9444203,2.740392,1,1683969665.5766966
1.127017,0.6349761,0.19269417,-5.2542048,11.277641,5.908136,5.060884,7.9444203,2.740392,1,1683969665.597232
1.127017,0.6349761,0.19269417,-5.2542048,11.277641,5.908136,5.156282,7.5144396,3.6307123,1,1683969665.6023757
1.127017,0.6349761,0.19269417,-5.484501,10.776274,5.6298866,5.156282,7.5144396,3.6307123,1,1683969665.6126652
1.3691653,0.77730143,0.16561942,-5.484501,10.776274,5.6298866,5.156282,7.5144396,3.6307123,1,1683969665.6332421
1.3691653,0.77730143,0.16561942,-5.3856936,9.208488,4.802317,5.156282,7.5144396,3.6307123,1,1683969665.6383893
1.3691653,0.77730143,0.16561942,-5.3856936,9.208488,4.802317,5.1401315,7.0482035,4.487536,1,1683969665.6435392
0.3787416,0.50856626,-0.04762473,-5.3856936,9.208488,4.802317,5.1401315,7.0482035,4.487536,1,1683969665.6846783
0.3787416,0.50856626,-0.04762473,-4.4600797,5.42372,3.9547415,5.1401315,7.0482035,4.487536,1,1683969665.6898317
0.3787416,0.50856626,-0.04762473,-4.4600797,5.42372,3.9547415,4.413576,8.525597,2.0175872,1,1683969665.6949768
0.3787416,0.50856626,-0.04762473,-4.4600797,5.42372,3.9547415,4.603025,8.269275,2.5821264,1,1683969665.7206776
0.5927785,0.6166213,-0.029696856,-4.4600797,5.42372,3.9547415,4.603025,8.269275,2.5821264,1,1683969665.7257822
0.5927785,0.6166213,-0.029696856,-4.2164974,4.48314,3.7300959,4.603025,8.269275,2.5821264,1,1683969665.7360559
0.9824963,0.7637031,-0.060308397,-4.2164974,4.48314,3.7300959,4.603025,8.269275,2.5821264,1,1683969665.7617114
0.9824963,0.7637031,-0.060308397,-3.327841,2.1285598,2.93872,4.603025,8.269275,2.5821264,1,1683969665.7668452
0.9824963,0.7637031,-0.060308397,-3.327841,2.1285598,2.93872,4.7696037,8.005613,3.0654767,1,1683969665.7771263
0.9824963,0.7637031,-0.060308397,-3.327841,2.1285598,2.93872,5.000641,7.6706877,3.5199783,1,1683969665.7822685
1.399228,0.9646295,0.048600398,-3.327841,2.1285598,2.93872,5.000641,7.6706877,3.5199783,1,1683969665.7925205
1.399228,0.9646295,0.048600398,-1.8507689,-1.0532844,1.6290249,5.000641,7.6706877,3.5199783,1,1683969665.813102
2.0387776,1.3492861,0.44063547,-1.8507689,-1.0532844,1.6290249,5.000641,7.6706877,3.5199783,1,1683969665.8284953
2.0387776,1.3492861,0.44063547,-0.26099217,-3.6829066,0.073303826,5.000641,7.6706877,3.5199783,1,1683969665.8387783
2.0387776,1.3492861,0.44063547,-0.26099217,-3.6829066,0.073303826,5.1520047,7.5451355,3.5726595,1,1683969665.84907
2.2272031,1.5241133,0.81120586,-0.26099217,-3.6829066,0.073303826,5.1520047,7.5451355,3.5726595,1,1683969665.8593273
2.2272031,1.5241133,0.81120586,-0.26099217,-3.6829066,0.073303826,5.274763,7.543277,3.39293,1,1683969665.8644671
2.2272031,1.5241133,0.81120586,1.5305228,-5.7813816,-1.669342,5.274763,7.543277,3.39293,1,1683969665.8747604
2.216166,1.4306322,0.9188951,1.5305228,-5.7813816,-1.669342,5.274763,7.543277,3.39293,1,1683969665.8901832
2.216166,1.4306322,0.9188951,3.3455563,-7.2718925,-3.7221546,5.274763,7.543277,3.39293,1,1683969665.900428
2.216166,1.4306322,0.9188951,3.3455563,-7.2718925,-3.7221546,5.3102627,7.7837086,2.729675,1,1683969665.9055734
2.216166,1.4306322,0.9188951,4.2065706,-7.8844376,-5.0866747,5.3102627,7.7837086,2.729675,1,1683969665.9261808
1.9453574,1.176715,0.772728,4.2065706,-7.8844376,-5.0866747,5.3102627,7.7837086,2.729675,1,1683969665.9415793
1.9453574,1.176715,0.772728,4.2065706,-7.8844376,-5.0866747,5.3982077,7.3428464,3.6301591,1,1683969665.9518075
1.9453574,1.176715,0.772728,2.9538388,-6.557944,-4.9232683,5.3982077,7.3428464,3.6301591,1,1683969665.9620965
1.9453574,1.176715,0.772728,3.8200457,-6.617809,-5.389206,5.3982077,7.3428464,3.6301591,1,1683969665.9825563
1.9453574,1.176715,0.772728,3.8200457,-6.617809,-5.389206,5.2574096,7.682953,3.0932176,1,1683969665.9928389
1.3570304,0.8290728,1.1154919,3.8200457,-6.617809,-5.389206,5.2574096,7.682953,3.0932176,1,1683969666.003057
1.3570304,0.8290728,1.1154919,3.8200457,-6.617809,-5.389206,5.045769,8.032133,2.502229,1,1683969666.0236316
1.0132298,0.793156,0.83754885,3.8200457,-6.617809,-5.389206,5.045769,8.032133,2.502229,1,1683969666.0287733
1.0132298,0.793156,0.83754885,4.472603,-6.6944723,-5.511837,5.045769,8.032133,2.502229,1,1683969666.0339322
0.7431531,0.7651666,0.6816251,4.472603,-6.6944723,-5.511837,5.045769,8.032133,2.502229,1,1683969666.0545027
0.7431531,0.7651666,0.6816251,4.7936125,-6.647894,-5.544366,5.045769,8.032133,2.502229,1,1683969666.069869
0.7431531,0.7651666,0.6816251,4.7936125,-6.647894,-5.544366,4.7725825,8.362804,1.8767207,1,1683969666.0749753
0.7431531,0.7651666,0.6816251,4.7936125,-6.647894,-5.544366,4.440472,8.659643,1.2364944,1,1683969666.0954733
0.2658082,0.5814974,0.57472867,4.7936125,-6.647894,-5.544366,4.440472,8.659643,1.2364944,1,1683969666.1006172
0.2658082,0.5814974,0.57472867,4.8548517,-6.138127,-5.270698,4.440472,8.659643,1.2364944,1,1683969666.1108994
0.2658082,0.5814974,0.57472867,4.8548517,-6.138127,-5.270698,3.8766177,9.005149,0.33947358,1,1683969666.1314573
0.2658082,0.5814974,0.57472867,4.4990225,-5.0168834,-4.4851255,3.8766177,9.005149,0.33947358,1,1683969666.1468832
-0.27763817,0.39819396,0.6093648,4.4990225,-5.0168834,-4.4851255,3.8766177,9.005149,0.33947358,1,1683969666.1520293
-0.6744296,0.2476364,0.6127797,4.4990225,-5.0168834,-4.4851255,3.8766177,9.005149,0.33947358,1,1683969666.1725612
-0.6744296,0.2476364,0.6127797,3.9154935,-3.5700493,-3.4816265,3.8766177,9.005149,0.33947358,1,1683969666.177666
-0.6744296,0.2476364,0.6127797,3.9154935,-3.5700493,-3.4816265,3.6952977,9.087034,0.081874475,1,1683969666.1827767
-0.6744296,0.2476364,0.6127797,2.2602015,-0.23365596,-1.2843442,3.6952977,9.087034,0.081874475,1,1683969666.1930125
-1.0863439,0.040978,0.39935255,2.2602015,-0.23365596,-1.2843442,3.6952977,9.087034,0.081874475,1,1683969666.1981566
-1.0863439,0.040978,0.39935255,2.2602015,-0.23365596,-1.2843442,3.3043451,9.225035,-0.4649747,1,1683969666.2084112
1.6772321,1.0442683,0.5221036,2.2602015,-0.23365596,-1.2843442,3.3043451,9.225035,-0.4649747,1,1683969666.2289805
1.6772321,1.0442683,0.5221036,-2.415972,1.9817996,0.68416905,3.3043451,9.225035,-0.4649747,1,1683969666.2341256
1.6772321,1.0442683,0.5221036,-2.415972,1.9817996,0.68416905,4.4747,6.049005,6.2946568,1,1683969666.2443516
1.8890736,1.1551284,0.62570727,-2.415972,1.9817996,0.68416905,4.4747,6.049005,6.2946568,1,1683969666.2648883
1.8890736,1.1551284,0.62570727,-2.415972,1.9817996,0.68416905,4.439657,5.9418626,6.4202676,1,1683969666.2700357
1.8890736,1.1551284,0.62570727,-0.46502116,-1.2728904,-1.0068586,4.439657,5.9418626,6.4202676,1,1683969666.2751493
1.8482176,1.1969601,0.9348107,-0.46502116,-1.2728904,-1.0068586,4.439657,5.9418626,6.4202676,1,1683969666.295637
1.8482176,1.1969601,0.9348107,2.2939517,-5.198921,-3.0292807,4.439657,5.9418626,6.4202676,1,1683969666.30078
1.8482176,1.1969601,0.9348107,2.2939517,-5.198921,-3.0292807,4.5015216,6.0223303,6.3011074,1,1683969666.305925
1.6347905,1.0561591,1.0777458,2.2939517,-5.198921,-3.0292807,4.5015216,6.0223303,6.3011074,1,1683969666.3213406
1.6347905,1.0561591,1.0777458,4.117232,-7.3282447,-4.2639923,4.5015216,6.0223303,6.3011074,1,1683969666.3264906
1.6347905,1.0561591,1.0777458,4.117232,-7.3282447,-4.2639923,4.6324697,6.2868614,5.9373155,1,1683969666.3521924
1.6347905,1.0561591,1.0777458,5.2887187,-8.50584,-5.1031685,4.6324697,6.2868614,5.9373155,1,1683969666.3624918
1.4156923,0.94426244,1.0850023,5.2887187,-8.50584,-5.1031685,4.6324697,6.2868614,5.9373155,1,1683969666.3727818
1.4156923,0.94426244,1.0850023,5.2887187,-8.50584,-5.1031685,4.7642283,6.6844616,5.3717976,1,1683969666.3829916
1.4156923,0.94426244,1.0850023,6.0816216,-9.143126,-5.7496166,4.7642283,6.6844616,5.3717976,1,1683969666.403411
1.4156923,0.94426244,1.0850023,6.0816216,-9.143126,-5.7496166,4.8365617,7.38703,4.2749944,1,1683969666.4188318
1.2258642,0.9093824,0.962922,6.0816216,-9.143126,-5.7496166,4.8365617,7.38703,4.2749944,1,1683969666.4239783
1.0410973,0.87639266,0.82059664,6.0816216,-9.143126,-5.7496166,4.8365617,7.38703,4.2749944,1,1683969666.4342625
1.0410973,0.87639266,0.82059664,6.0816216,-9.143126,-5.7496166,4.757196,7.8567104,3.4463484,1,1683969666.4497032
1.0410973,0.87639266,0.82059664,6.3836946,-9.359525,-6.1225495,4.757196,7.8567104,3.4463484,1,1683969666.4548583
0.7086389,0.7139441,0.73046947,6.3836946,-9.359525,-6.1225495,4.757196,7.8567104,3.4463484,1,1683969666.4702358
0.7086389,0.7139441,0.73046947,6.3836946,-9.359525,-6.1225495,4.5642853,8.290245,2.5836504,1,1683969666.4907641
1.3773974,0.75364155,0.18220575,6.3836946,-9.359525,-6.1225495,4.5642853,8.290245,2.5836504,1,1683969666.5010037
1.3773974,0.75364155,0.18220575,6.3836946,-9.359525,-6.1225495,5.1796265,6.962847,4.5745306,1,1683969666.5112574
1.3773974,0.75364155,0.18220575,-3.5097263,3.3987014,3.483001,5.1796265,6.962847,4.5745306,1,1683969666.5215452
1.7745547,0.9845696,0.2903828,-3.5097263,3.3987014,3.483001,5.1796265,6.962847,4.5745306,1,1683969666.5420725
1.7745547,0.9845696,0.2903828,-2.6678011,1.2727377,2.2134702,5.1796265,6.962847,4.5745306,1,1683969666.552347
1.7745547,0.9845696,0.2903828,-2.6678011,1.2727377,2.2134702,5.2593756,6.653373,4.9302855,1,1683969666.5574942
1.7745547,0.9845696,0.2903828,-1.4465289,-0.8194757,0.6908886,5.2593756,6.653373,4.9302855,1,1683969666.583201
2.0349967,1.1753736,0.6269878,-1.4465289,-0.8194757,0.6908886,5.2593756,6.653373,4.9302855,1,1683969666.5883453
2.0349967,1.1753736,0.6269878,-1.4465289,-0.8194757,0.6908886,5.341977,6.435087,5.127283,1,1683969666.5986342
2.1567721,1.2626346,0.81730384,-1.4465289,-0.8194757,0.6908886,5.341977,6.435087,5.127283,1,1683969666.619175
2.1567721,1.2626346,0.81730384,-1.4465289,-0.8194757,0.6908886,5.4260616,6.3444257,5.1519165,1,1683969666.624285
2.1567721,1.2626346,0.81730384,0.24220806,-2.8409815,-1.2783883,5.4260616,6.3444257,5.1519165,1,1683969666.6345627
2.1567721,1.2626346,0.81730384,1.4307991,-4.3001857,-2.8469374,5.4260616,6.3444257,5.1519165,1,1683969666.655141
2.1890912,1.2379991,0.81266934,1.4307991,-4.3001857,-2.8469374,5.4260616,6.3444257,5.1519165,1,1683969666.6653898
2.1890912,1.2379991,0.81266934,1.4307991,-4.3001857,-2.8469374,5.493744,6.3937974,5.017394,1,1683969666.6705275
2.2159219,1.1565919,0.7713865,1.4307991,-4.3001857,-2.8469374,5.493744,6.3937974,5.017394,1,1683969666.6911159
2.2159219,1.1565919,0.7713865,1.4307991,-4.3001857,-2.8469374,5.5283194,6.57542,4.73684,1,1683969666.6962616
2.2159219,1.1565919,0.7713865,2.2304218,-5.478087,-3.944357,5.5283194,6.57542,4.73684,1,1683969666.7065177
2.2226298,1.1612873,0.95401907,2.2304218,-5.478087,-3.944357,5.5283194,6.57542,4.73684,1,1683969666.7218902
2.2226298,1.1612873,0.95401907,2.2304218,-5.478087,-3.944357,5.490531,7.0561805,4.037388,1,1683969666.7321806
2.2226298,1.1612873,0.95401907,3.6380079,-7.52418,-5.667455,5.490531,7.0561805,4.037388,1,1683969666.7373304
2.2226298,1.1612873,0.95401907,3.6380079,-7.52418,-5.667455,5.364854,7.4870424,3.3761883,1,1683969666.7630541
1.896757,1.0765262,1.2743427,3.6380079,-7.52418,-5.667455,5.364854,7.4870424,3.3761883,1,1683969666.768197
1.896757,1.0765262,1.2743427,5.1605897,-8.962615,-7.030448,5.364854,7.4870424,3.3761883,1,1683969666.7733448
0.46606377,0.38776654,1.3453834,5.1605897,-8.962615,-7.030448,5.364854,7.4870424,3.3761883,1,1683969666.7784882
0.3436786,0.41904885,1.0346946,5.1605897,-8.962615,-7.030448,5.364854,7.4870424,3.3761883,1,1683969666.8093157
0.3436786,0.41904885,1.0346946,5.1605897,-8.962615,-7.030448,3.2052054,5.133953,7.720447,1,1683969666.8144631
0.3436786,0.41904885,1.0346946,0.18020524,1.7806722,-0.3651447,3.2052054,5.133953,7.720447,1,1683969666.819608
0.31331098,0.4850283,0.8595013,0.18020524,1.7806722,-0.3651447,3.2052054,5.133953,7.720447,1,1683969666.8453238
0.31331098,0.4850283,0.8595013,0.18020524,1.7806722,-0.3651447,3.0643635,5.153336,7.764594,1,1683969666.850466
0.31331098,0.4850283,0.8595013,0.17760907,1.7519615,-0.1638646,3.0643635,5.153336,7.764594,1,1683969666.8607612
0.3702045,0.5919248,0.69784564,0.17760907,1.7519615,-0.1638646,3.0643635,5.153336,7.764594,1,1683969666.8710418
0.3702045,0.5919248,0.69784564,0.17760907,1.7519615,-0.1638646,2.8760946,5.1750712,7.8219447,1,1683969666.8916113
0.3702045,0.5919248,0.69784564,0.094225965,1.5590808,-0.013286319,2.8760946,5.1750712,7.8219447,1,1683969666.8967562
0.4425868,0.65595293,0.6743686,0.094225965,1.5590808,-0.013286319,2.8760946,5.1750712,7.8219447,1,1683969666.9070408
0.4425868,0.65595293,0.6743686,-0.051465396,1.3602442,-0.03634648,2.8760946,5.1750712,7.8219447,1,1683969666.917319
0.4425868,0.65595293,0.6743686,-0.051465396,1.3602442,-0.03634648,2.7726274,5.1813188,7.8550997,1,1683969666.9275982
0.4425868,0.65595293,0.6743686,-0.2264783,1.2626585,-0.15760323,2.7726274,5.1813188,7.8550997,1,1683969666.948175
0.4808817,0.68833286,0.7582759,-0.2264783,1.2626585,-0.15760323,2.7726274,5.1813188,7.8550997,1,1683969666.9687448
0.4808817,0.68833286,0.7582759,-0.2264783,1.2626585,-0.15760323,2.6785092,5.1775312,7.890176,1,1683969666.9739015
0.4808817,0.68833286,0.7582759,-0.3510948,1.2841915,-0.3755294,2.6785092,5.1775312,7.890176,1,1683969666.9893296
0.49399224,0.67430764,0.87846595,-0.3510948,1.2841915,-0.3755294,2.6785092,5.1775312,7.890176,1,1683969666.9944782
0.49399224,0.67430764,0.87846595,-0.3510948,1.2841915,-0.3755294,2.5811703,5.164639,7.930963,1,1683969666.9996173
0.42661023,0.61082834,1.0089613,-0.3510948,1.2841915,-0.3755294,2.5811703,5.164639,7.930963,1,1683969667.0303876
0.42661023,0.61082834,1.0089613,-0.3510948,1.2841915,-0.3755294,2.472868,5.1483736,7.9759192,1,1683969667.0354936
0.42661023,0.61082834,1.0089613,-0.32818735,1.328021,-0.50869805,2.472868,5.1483736,7.9759192,1,1683969667.0406406
0.42661023,0.61082834,1.0089613,-0.11728613,0.8399397,-0.17333302,2.472868,5.1483736,7.9759192,1,1683969667.0663385
0.24458744,0.6255243,0.8214504,-0.11728613,0.8399397,-0.17333302,2.472868,5.1483736,7.9759192,1,1683969667.0766118
0.24458744,0.6255243,0.8214504,-0.11728613,0.8399397,-0.17333302,1.048628,5.877577,7.7839956,1,1683969667.0920072
