acc_x,acc_y,acc_z,gyr_x,gyr_y,gyr_z,grav_x,grav_y,grav_z,label,timestamp
1.7695516,1.242112,0.04194767,-4.876213,3.9979553,1.2148476,3.7409737,8.085046,4.0996995,1,1683900675.1083639
1.855464,1.3751131,0.9913359,-4.876213,3.9979553,1.2148476,3.7409737,8.085046,4.0996995,1,1683900675.1141932
1.7614988,1.3763416,1.409645,-2.600727,-1.4338112,-0.9434128,3.758561,7.9595294,4.323135,1,1683900675.1194263
1.1689386,1.2147688,1.6532174,-2.600727,-1.4338112,-0.9434128,3.758561,7.9595294,4.323135,1,1683900675.1372936
1.1689386,1.2147688,1.6532174,-2.600727,-1.4338112,-0.9434128,3.8198383,8.265044,3.6425636,1,1683900675.157922
1.1689386,1.2147688,1.6532174,3.7237167,-8.8843155,-4.031601,3.8198383,8.265044,3.6425636,1,1683900675.168282
0.8565453,1.0366049,1.3500901,3.7237167,-8.8843155,-4.031601,3.8198383,8.265044,3.6425636,1,1683900675.1785817
-0.66979784,0.43452084,0.41803598,5.606003,-7.938366,-4.5876884,2.2825367,9.525817,-0.4682286,1,1683900675.189222
-1.2062305,0.37619448,0.47222218,5.09264,-6.049671,-3.1943321,1.8617184,9.566179,-1.0920655,1,1683900675.194549
-1.2062305,0.37619448,0.47222218,4.717598,-4.5508385,-2.2122002,1.8617184,9.566179,-1.0920655,1,1683900675.216688
-1.4151499,0.3271342,0.38753822,4.717598,-4.5508385,-2.2122002,1.7104957,9.560938,-1.3539041,1,1683900675.2218494
-1.4151499,0.3271342,0.38753822,4.717598,-4.5508385,-2.2122002,1.652353,9.488935,-1.8439673,1,1683900675.2424448
-1.4151499,0.3271342,0.38753822,2.3228836,1.4296722,1.227665,1.652353,9.488935,-1.8439673,1,1683900675.2579138
-1.3839091,0.17459998,-0.42933425,2.3228836,1.4296722,1.227665,1.652353,9.488935,-1.8439673,1,1683900675.2682455
-1.3839091,0.17459998,-0.42933425,1.0807991,3.4078217,2.3099327,1.652353,9.488935,-1.8439673,1,1683900675.2837286
-0.7539965,0.22487348,-0.7793076,1.0807991,3.4078217,2.3099327,1.652353,9.488935,-1.8439673,1,1683900675.293983
0.011374097,0.4394041,-0.6838714,1.0807991,3.4078217,2.3099327,1.652353,9.488935,-1.8439673,1,1683900675.3197258
0.011374097,0.4394041,-0.6838714,1.0807991,3.4078217,2.3099327,2.4924643,9.371062,-1.4632816,1,1683900675.3248806
0.011374097,0.4394041,-0.6838714,1.0807991,3.4078217,2.3099327,3.0758317,9.278297,-0.7892018,1,1683900675.3403957
0.6036916,0.66931254,-0.44251302,1.0807991,3.4078217,2.3099327,3.0758317,9.278297,-0.7892018,1,1683900675.3455489
0.6036916,0.66931254,-0.44251302,-4.785557,10.680351,5.034828,3.0758317,9.278297,-0.7892018,1,1683900675.355855
0.6036916,0.66931254,-0.44251302,-5.604801,11.432438,5.0157356,3.0758317,9.278297,-0.7892018,1,1683900675.3661375
0.8099267,0.74887055,-0.34146556,-5.604801,11.432438,5.0157356,3.0758317,9.278297,-0.7892018,1,1683900675.3712707
0.8099267,0.74887055,-0.34146556,-5.604801,11.432438,5.0157356,3.3464901,9.21135,-0.3498694,1,1683900675.391924
0.8099267,0.74887055,-0.34146556,-5.604801,11.432438,5.0157356,3.919422,8.907443,1.2107757,1,1683900675.4126494
1.0178603,0.9331309,-0.037367698,-7.1718597,11.853275,4.3242645,3.919422,8.907443,1.2107757,1,1683900675.4178383
0.93513274,1.0002532,0.21181601,-7.1718597,11.853275,4.3242645,3.919422,8.907443,1.2107757,1,1683900675.4229608
0.93513274,1.0002532,0.21181601,-7.3145866,10.879555,3.5466766,3.919422,8.907443,1.2107757,1,1683900675.4280987
0.93513274,1.0002532,0.21181601,-7.3145866,10.879555,3.5466766,4.063589,8.624827,2.2956436,1,1683900675.433268
0.9095031,1.0190432,0.2359746,-7.3145866,10.879555,3.5466766,4.063589,8.624827,2.2956436,1,1683900675.4435275
0.9095031,1.0190432,0.2359746,-7.3145866,10.879555,3.5466766,4.0436273,8.3152275,3.2674837,1,1683900675.4486582
0.9095031,1.0190432,0.2359746,-6.715908,9.0558815,2.5240898,4.0436273,8.3152275,3.2674837,1,1683900675.4641783
0.9095031,1.0190432,0.2359746,-6.715908,9.0558815,2.5240898,3.9437044,8.042388,3.992191,1,1683900675.5005188
1.0617946,1.0256251,0.31309098,-6.715908,9.0558815,2.5240898,3.9437044,8.042388,3.992191,1,1683900675.5056958
1.0617946,1.0256251,0.31309098,-5.3427124,5.5947876,1.2030983,3.9437044,8.042388,3.992191,1,1683900675.5108142
1.1908983,1.0502841,0.54275674,-5.3427124,5.5947876,1.2030983,3.9437044,8.042388,3.992191,1,1683900675.5159314
1.1908983,1.0502841,0.54275674,-4.265785,3.1350517,0.46489716,3.9437044,8.042388,3.992191,1,1683900675.5262446
1.1908983,1.0502841,0.54275674,-4.265785,3.1350517,0.46489716,3.9053617,7.9434495,4.2213917,1,1683900675.5469415
1.400303,1.3546246,1.5826828,-4.265785,3.1350517,0.46489716,3.9053617,7.9434495,4.2213917,1,1683900675.552089
1.400303,1.3546246,1.5826828,2.2291565,-6.9071007,-2.659607,3.9053617,7.9434495,4.2213917,1,1683900675.5727088
1.400303,1.3546246,1.5826828,2.2291565,-6.9071007,-2.659607,3.94281,7.913886,4.2420564,1,1683900675.5830064
1.400303,1.3546246,1.5826828,2.2291565,-6.9071007,-2.659607,3.9853427,8.005921,4.0240107,1,1683900675.5881665
1.1257323,1.0966449,1.3156797,2.2291565,-6.9071007,-2.659607,3.9853427,8.005921,4.0240107,1,1683900675.6140058
1.1257323,1.0966449,1.3156797,5.522957,-10.149765,-4.5109177,3.9853427,8.005921,4.0240107,1,1683900675.6191862
1.1257323,1.0966449,1.3156797,5.522957,-10.149765,-4.5109177,4.0031943,8.4647665,2.9141984,1,1683900675.6243505
0.5785624,0.81183755,0.8029202,5.522957,-10.149765,-4.5109177,4.0031943,8.4647665,2.9141984,1,1683900675.6558626
0.5785624,0.81183755,0.8029202,6.5008163,-10.102901,-5.533638,4.0031943,8.4647665,2.9141984,1,1683900675.6611023
0.5785624,0.81183755,0.8029202,6.5008163,-10.102901,-5.533638,3.6668582,8.967128,1.5215665,1,1683900675.671514
0.5785624,0.81183755,0.8029202,6.2153625,-9.137859,-5.541115,3.6668582,8.967128,1.5215665,1,1683900675.7025495
-0.08551804,0.45746619,0.41096887,6.2153625,-9.137859,-5.541115,3.6668582,8.967128,1.5215665,1,1683900675.707714
-0.56436753,0.3713112,0.42511824,6.2153625,-9.137859,-5.541115,3.6668582,8.967128,1.5215665,1,1683900675.7231636
-0.56436753,0.3713112,0.42511824,5.9874535,-8.738384,-5.254593,3.6668582,8.967128,1.5215665,1,1683900675.7335458
-0.56436753,0.3713112,0.42511824,5.093708,-6.295738,-3.4307861,2.0652473,9.507247,-1.231827,1,1683900675.7387543
-1.2767651,0.36105934,0.15690188,4.004898,-2.9593468,-1.5463638,1.7849604,9.490074,-1.7096227,1,1683900675.7439969
-1.2865317,0.2934517,-0.45813346,4.004898,-2.9593468,-1.5463638,1.7849604,9.490074,-1.7096227,1,1683900675.7491698
-1.2865317,0.2934517,-0.45813346,4.004898,-2.9593468,-1.5463638,1.7369846,9.468969,-1.8686587,1,1683900675.7543528
-1.2865317,0.2934517,-0.45813346,2.0917702,1.2816048,0.5767822,1.7369846,9.468969,-1.8686587,1,1683900675.7595348
-0.8569851,0.28662723,-1.0187248,2.0917702,1.2816048,0.5767822,1.7369846,9.468969,-1.8686587,1,1683900675.790501
-0.8569851,0.28662723,-1.0187248,2.0917702,1.2816048,0.5767822,2.013639,9.4045925,-1.9155331,1,1683900675.7957003
-0.8569851,0.28662723,-1.0187248,-0.5522156,5.1612663,2.5570679,2.013639,9.4045925,-1.9155331,1,1683900675.8008459
-0.33128953,0.4381757,-0.92867225,-0.5522156,5.1612663,2.5570679,2.013639,9.4045925,-1.9155331,1,1683900675.8213346
-0.33128953,0.4381757,-0.92867225,-0.5522156,5.1612663,2.5570679,2.4689746,9.36529,-1.5381533,1,1683900675.8316598
-0.33128953,0.4381757,-0.92867225,-3.1771088,7.795639,3.9972878,2.4689746,9.36529,-1.5381533,1,1683900675.8368495
0.07238475,0.54263544,-0.6663098,-6.571045,10.2244,5.0955772,3.5179474,9.153864,0.03462934,1,1683900675.8473935
0.3459697,0.5092107,-0.32901472,-6.571045,10.2244,5.0955772,3.5179474,9.153864,0.03462934,1,1683900675.8525436
0.48605308,0.50871027,-0.112057604,-6.571045,10.2244,5.0955772,3.5179474,9.153864,0.03462934,1,1683900675.8680677
0.48605308,0.50871027,-0.112057604,-6.571045,10.2244,5.0955772,3.7382514,9.050338,0.53595084,1,1683900675.8783517
0.48605308,0.50871027,-0.112057604,-7.0269966,10.244694,5.1180077,3.7382514,9.050338,0.53595084,1,1683900675.8836145
0.48605308,0.50871027,-0.112057604,-7.0269966,10.244694,5.1180077,4.20456,8.607561,2.0980864,1,1683900675.893977
0.48605308,0.50871027,-0.112057604,-7.4051094,9.330654,4.5970345,4.20456,8.607561,2.0980864,1,1683900675.8991616
0.88752836,0.76668996,0.24915339,-7.4051094,9.330654,4.5970345,4.20456,8.607561,2.0980864,1,1683900675.9095182
0.98881847,0.85869884,0.3187022,-7.4051094,9.330654,4.5970345,4.20456,8.607561,2.0980864,1,1683900675.92497
0.98881847,0.85869884,0.3187022,-7.204838,8.611679,4.184742,4.20456,8.607561,2.0980864,1,1683900675.9302409
0.98881847,0.85869884,0.3187022,-7.204838,8.611679,4.184742,4.287226,8.432474,2.5852375,1,1683900675.9406347
1.120849,1.0061071,0.5681285,-7.204838,8.611679,4.184742,4.287226,8.432474,2.5852375,1,1683900675.9613817
1.120849,1.0061071,0.5681285,-5.493984,4.773407,2.5346375,4.287226,8.432474,2.5852375,1,1683900675.9717143
1.120849,1.0061071,0.5681285,-5.493984,4.773407,2.5346375,4.391279,7.9261236,3.75015,1,1683900675.9768884
1.3473452,1.1474189,0.8863909,-5.493984,4.773407,2.5346375,4.391279,7.9261236,3.75015,1,1683900675.987212
1.3473452,1.1474189,0.8863909,-3.4295845,1.1079025,1.2360764,4.391279,7.9261236,3.75015,1,1683900675.9924173
1.3473452,1.1474189,0.8863909,-3.4295845,1.1079025,1.2360764,4.488507,7.630164,4.2195144,1,1683900676.0027874
1.3473452,1.1474189,0.8863909,-2.1725464,-0.8426094,0.49146652,4.488507,7.630164,4.2195144,1,1683900676.0079188
1.4722934,1.2220936,1.055031,-2.1725464,-0.8426094,0.49146652,4.488507,7.630164,4.2195144,1,1683900676.0182567
1.6624228,1.403427,1.332028,1.7530441,-5.985718,-1.886158,4.488507,7.630164,4.2195144,1,1683900676.0286756
1.6638787,1.4173338,1.2729738,2.8524017,-7.184143,-2.6851082,4.6980376,7.9637437,3.2676625,1,1683900676.0339408
1.3038962,1.2130702,0.9986457,2.8524017,-7.184143,-2.6851082,4.6980376,7.9637437,3.2676625,1,1683900676.0443237
1.3038962,1.2130702,0.9986457,4.9467087,-9.057884,-4.710121,4.605127,8.293737,2.4853804,1,1683900676.0496466
1.3038962,1.2130702,0.9986457,4.9467087,-9.057884,-4.710121,4.3496957,8.63557,1.6363027,1,1683900676.060022
0.6024783,0.81841934,0.53884405,5.5026627,-8.857613,-5.668888,4.3496957,8.63557,1.6363027,1,1683900676.0652857
0.6024783,0.81841934,0.53884405,5.5026627,-8.857613,-5.668888,4.168492,8.79306,1.2149673,1,1683900676.0704105
-0.33641544,0.38888794,0.31357628,4.737892,-7.6976395,-5.2118683,4.168492,8.79306,1.2149673,1,1683900676.0859528
-0.5838855,0.32786214,0.3843535,4.4661903,-7.1362114,-4.760189,4.168492,8.79306,1.2149673,1,1683900676.0963643
-0.5838855,0.32786214,0.3843535,4.4661903,-7.1362114,-4.760189,2.9884343,9.319929,-0.6152763,1,1683900676.1015944
-0.5838855,0.32786214,0.3843535,4.4661903,-7.1362114,-4.760189,2.5646808,9.396395,-1.1404214,1,1683900676.1067662
-1.0778549,0.25734273,0.4707511,3.8653755,-5.2101326,-3.3530807,2.5646808,9.396395,-1.1404214,1,1683900676.117309
-1.0778549,0.25734273,0.4707511,2.9140854,-2.1123314,-1.3705254,2.5646808,9.396395,-1.1404214,1,1683900676.1225364
-1.3634055,0.15995014,0.20669009,2.9140854,-2.1123314,-1.3705254,2.5646808,9.396395,-1.1404214,1,1683900676.127715
-1.3634055,0.15995014,0.20669009,2.9140854,-2.1123314,-1.3705254,2.3171084,9.409334,-1.5052689,1,1683900676.1328888
-1.3634055,0.15995014,0.20669009,2.1940422,-0.329113,-0.2659607,2.3171084,9.409334,-1.5052689,1,1683900676.148382
0.78064215,0.9580174,1.2212292,2.1940422,-0.329113,-0.2659607,4.565529,8.421672,2.0980406,1,1683900676.153696
0.78064215,0.9580174,1.2212292,6.389065,-9.181519,-5.678501,4.565529,8.421672,2.0980406,1,1683900676.158849
0.27226555,0.69151473,0.651114,6.389065,-9.181519,-5.678501,4.565529,8.421672,2.0980406,1,1683900676.1747212
-0.26709414,0.3974261,0.12907325,6.389065,-9.181519,-5.678501,4.230649,8.77087,1.1592435,1,1683900676.1852698
-0.26709414,0.3974261,0.12907325,5.85207,-8.576431,-5.1885033,3.7966018,9.03827,0.25666738,1,1683900676.1905935
-0.26709414,0.3974261,0.12907325,5.85207,-8.576431,-5.1885033,3.5579715,9.136943,-0.16586973,1,1683900676.221588
-0.26709414,0.3974261,0.12907325,5.85207,-8.576431,-5.1885033,2.8516288,9.299689,-1.2467464,1,1683900676.2370923
-0.26709414,0.3974261,0.12907325,4.8049164,-7.1585083,-3.8238525,2.8516288,9.299689,-1.2467464,1,1683900676.2422204
-0.715916,0.30273297,0.18057516,4.8049164,-7.1585083,-3.8238525,2.8516288,9.299689,-1.2467464,1,1683900676.2524943
-0.8789599,0.32347932,0.18570109,4.8049164,-7.1585083,-3.8238525,2.8516288,9.299689,-1.2467464,1,1683900676.2628772
-0.8789599,0.32347932,0.18570109,4.8049164,-7.1585083,-3.8238525,2.4892285,9.316417,-1.7828348,1,1683900676.2834826
-0.8789599,0.32347932,0.18570109,3.9772606,-4.9832916,-2.3644066,2.4892285,9.316417,-1.7828348,1,1683900676.2886603
-0.8789599,0.32347932,0.18570109,3.9772606,-4.9832916,-2.3644066,2.318775,9.287182,-2.1311796,1,1683900676.314663
-0.8789599,0.32347932,0.18570109,2.794857,-1.6713333,-0.5865288,2.318775,9.287182,-2.1311796,1,1683900676.3198364
-0.96608543,0.30418885,0.09125059,2.794857,-1.6713333,-0.5865288,2.318775,9.287182,-2.1311796,1,1683900676.3250196
-0.96608543,0.30418885,0.09125059,0.96891403,2.637577,1.3415527,2.318775,9.287182,-2.1311796,1,1683900676.3301978
-0.8428357,0.21536474,-0.22725445,0.96891403,2.637577,1.3415527,2.318775,9.287182,-2.1311796,1,1683900676.3457334
-0.8428357,0.21536474,-0.22725445,0.96891403,2.637577,1.3415527,2.4096656,9.239731,-2.234112,1,1683900676.3508916
-0.6441682,0.22267449,-0.44152728,0.96891403,2.637577,1.3415527,2.4096656,9.239731,-2.234112,1,1683900676.3613622
-0.6441682,0.22267449,-0.44152728,-5.470619,6.9605064,2.793522,2.4096656,9.239731,-2.234112,1,1683900676.3665063
-0.6441682,0.22267449,-0.44152728,-5.470619,6.9605064,2.793522,4.7558846,7.8845367,3.3743193,1,1683900676.3716865
1.6819408,1.2882302,0.35482633,-5.470619,6.9605064,2.793522,4.7558846,7.8845367,3.3743193,1,1683900676.3871837
1.6819408,1.2882302,0.35482633,-5.470619,6.9605064,2.793522,4.7631035,7.662246,3.8435955,1,1683900676.3974197
1.6819408,1.2882302,0.35482633,-3.5030174,2.197647,1.0049629,4.7631035,7.662246,3.8435955,1,1683900676.4025452
1.8449695,1.3946463,0.6684481,-3.5030174,2.197647,1.0049629,4.7631035,7.662246,3.8435955,1,1683900676.4181783
1.8449695,1.3946463,0.6684481,-2.0872307,-0.62524796,-0.06462097,4.7631035,7.662246,3.8435955,1,1683900676.4233167
1.8449695,1.3946463,0.6684481,-2.0872307,-0.62524796,-0.06462097,4.782136,7.6190844,3.9052656,1,1683900676.433638
1.8449695,1.3946463,0.6684481,2.7191544,-7.837162,-3.151741,4.782136,7.6190844,3.9052656,1,1683900676.4699256
1.8449695,1.3946463,0.6684481,2.7191544,-7.837162,-3.151741,4.8658447,7.8198333,3.368107,1,1683900676.4750228
1.4913261,1.324597,1.2990887,2.7191544,-7.837162,-3.151741,4.8658447,7.8198333,3.368107,1,1683900676.4801261
1.4913261,1.324597,1.2990887,3.929329,-9.133587,-3.938942,4.8658447,7.8198333,3.368107,1,1683900676.5005183
1.4913261,1.324597,1.2990887,3.929329,-9.133587,-3.938942,4.8604336,7.972317,2.9981182,1,1683900676.5159748
1.4913261,1.324597,1.2990887,3.929329,-9.133587,-3.938942,4.6083455,8.500454,1.6357908,1,1683900676.5314183
0.99150276,1.0166016,0.88516253,3.929329,-9.133587,-3.938942,4.6083455,8.500454,1.6357908,1,1683900676.5416677
0.99150276,1.0166016,0.88516253,5.7722282,-10.470467,-5.456867,4.6083455,8.500454,1.6357908,1,1683900676.5467772
0.99150276,1.0166016,0.88516253,6.0396576,-10.3256035,-5.870228,4.6083455,8.500454,1.6357908,1,1683900676.567561
0.99150276,1.0166016,0.88516253,6.0396576,-10.3256035,-5.870228,4.2303443,8.821944,0.66923505,1,1683900676.5727577
0.37135667,0.6849178,0.35506898,6.0396576,-10.3256035,-5.870228,4.2303443,8.821944,0.66923505,1,1683900676.583026
0.37135667,0.6849178,0.35506898,5.9767723,-10.188217,-5.8937263,4.2303443,8.821944,0.66923505,1,1683900676.5984151
0.37135667,0.6849178,0.35506898,5.9767723,-10.188217,-5.8937263,3.9906988,8.955758,0.19773692,1,1683900676.6086705
1.0881523,1.01049,0.85050946,5.9767723,-10.188217,-5.8937263,3.9906988,8.955758,0.19773692,1,1683900676.6292174
1.0881523,1.01049,0.85050946,-3.8076973,6.4097595,3.2676315,3.9906988,8.955758,0.19773692,1,1683900676.6343615
1.0881523,1.01049,0.85050946,-3.8076973,6.4097595,3.2676315,4.925663,7.874995,3.1452656,1,1683900676.6395018
1.209203,1.0893352,0.76972306,-3.8076973,6.4097595,3.2676315,4.925663,7.874995,3.1452656,1,1683900676.6600564
1.209203,1.0893352,0.76972306,-3.8076973,6.4097595,3.2676315,4.9548726,7.760859,3.374713,1,1683900676.6652164
1.209203,1.0893352,0.76972306,-2.7562714,4.8884964,2.682705,4.9548726,7.760859,3.374713,1,1683900676.6703558
1.5633317,1.389763,0.18277416,-2.7562714,4.8884964,2.682705,4.9548726,7.760859,3.374713,1,1683900676.6959713
1.5633317,1.389763,0.18277416,0.53539276,-0.78826904,0.37864685,4.9548726,7.760859,3.374713,1,1683900676.7164528
1.5633317,1.389763,0.18277416,0.53539276,-0.78826904,0.37864685,5.049739,7.635827,3.5163453,1,1683900676.7267199
1.5633317,1.389763,0.18277416,3.0845833,-6.7601013,-2.3996544,5.049739,7.635827,3.5163453,1,1683900676.7728302
1.5633317,1.389763,0.18277416,3.0845833,-6.7601013,-2.3996544,5.1288295,7.8549733,2.8574276,1,1683900676.7831025
1.4076127,1.3704877,0.15397494,3.0845833,-6.7601013,-2.3996544,5.1288295,7.8549733,2.8574276,1,1683900676.7882411
1.1691813,1.2094002,0.2022921,3.0845833,-6.7601013,-2.3996544,5.1288295,7.8549733,2.8574276,1,1683900676.798509
1.1691813,1.2094002,0.2022921,4.50037,-10.131741,-4.328804,5.1288295,7.8549733,2.8574276,1,1683900676.8036473
1.1691813,1.2094002,0.2022921,4.50037,-10.131741,-4.328804,4.9978824,8.275084,1.6475903,1,1683900676.8087687
1.0354371,1.1215466,0.22645068,4.50037,-10.131741,-4.328804,4.9978824,8.275084,1.6475903,1,1683900676.829281
1.0354371,1.1215466,0.22645068,4.6995735,-10.63242,-4.71653,4.9978824,8.275084,1.6475903,1,1683900676.8498175
1.0354371,1.1215466,0.22645068,4.6995735,-10.63242,-4.71653,4.879704,8.422916,1.1888431,1,1683900676.8549504
1.0354371,1.1215466,0.22645068,4.706917,-10.899715,-5.237503,4.879704,8.422916,1.1888431,1,1683900676.8703322
0.600522,0.8645527,0.2254801,4.706917,-10.899715,-5.237503,4.879704,8.422916,1.1888431,1,1683900676.8805969
0.600522,0.8645527,0.2254801,4.706917,-10.899715,-5.237503,4.3068485,8.808631,-0.17163722,1,1683900676.8857236
0.600522,0.8645527,0.2254801,3.327446,-6.6025543,-3.3711052,4.3068485,8.808631,-0.17163722,1,1683900676.8959923
0.600522,0.8645527,0.2254801,3.327446,-6.6025543,-3.3711052,2.416287,9.172206,-2.4904966,1,1683900676.911335
-0.5753473,0.4535535,0.43512744,3.327446,-6.6025543,-3.3711052,2.416287,9.172206,-2.4904966,1,1683900676.9215803
-0.8862696,0.36521468,0.36654922,2.581768,-3.5835266,-1.8063164,2.416287,9.172206,-2.4904966,1,1683900676.942121
-0.8862696,0.36521468,0.36654922,2.581768,-3.5835266,-1.8063164,1.9985211,9.139217,-2.9412603,1,1683900676.952295
-0.9746236,0.32128033,0.2691718,2.581768,-3.5835266,-1.8063164,1.9985211,9.139217,-2.9412603,1,1683900676.9676843
-0.9746236,0.32128033,0.2691718,2.0224762,-1.6852188,-0.8741188,1.9985211,9.139217,-2.9412603,1,1683900676.9779422
-0.9746236,0.32128033,0.2691718,2.0224762,-1.6852188,-0.8741188,3.0077524,9.064691,-2.2260268,1,1683900677.0139167
-0.010115364,0.45623776,-0.45080853,2.0224762,-1.6852188,-0.8741188,3.0077524,9.064691,-2.2260268,1,1683900677.0190485
-0.010115364,0.45623776,-0.45080853,-3.7086296,9.938946,3.999424,3.0077524,9.064691,-2.2260268,1,1683900677.0241802
-0.010115364,0.45623776,-0.45080853,-4.5747375,11.019077,4.4021034,3.0077524,9.064691,-2.2260268,1,1683900677.049803
-0.010115364,0.45623776,-0.45080853,-4.5747375,11.019077,4.4021034,3.3190615,9.041059,-1.8475572,1,1683900677.0549693
0.15097217,0.4955315,-0.38247296,-4.5747375,11.019077,4.4021034,3.3190615,9.041059,-1.8475572,1,1683900677.075481
0.54780686,0.6092725,-0.055672415,-4.5747375,11.019077,4.4021034,3.3190615,9.041059,-1.8475572,1,1683900677.0959857
0.54780686,0.6092725,-0.055672415,-4.5747375,11.019077,4.4021034,4.184704,8.860975,-0.37648192,1,1683900677.1011176
0.54780686,0.6092725,-0.055672415,-6.369705,12.43166,5.000782,4.184704,8.860975,-0.37648192,1,1683900677.1062405
0.8636124,0.89969105,0.4495195,-6.369705,12.43166,5.000782,4.184704,8.860975,-0.37648192,1,1683900677.1574337
0.8636124,0.89969105,0.4495195,3.0377197,-4.1438866,-1.9617271,4.184704,8.860975,-0.37648192,1,1683900677.167705
-0.993171,0.31908134,0.37680107,3.0377197,-4.1438866,-1.9617271,4.184704,8.860975,-0.37648192,1,1683900677.1728373
-0.993171,0.31908134,0.37680107,3.0377197,-4.1438866,-1.9617271,2.1319609,9.128845,-2.8791168,1,1683900677.1933594
-0.89750725,0.17288627,-0.28533816,3.0377197,-4.1438866,-1.9617271,2.1319609,9.128845,-2.8791168,1,1683900677.2138157
-0.89750725,0.17288627,-0.28533816,0.20734787,3.1329155,1.0646439,2.1319609,9.128845,-2.8791168,1,1683900677.2240422
-0.89750725,0.17288627,-0.28533816,0.20734787,3.1329155,1.0646439,2.1344652,9.077967,-3.0339706,1,1683900677.2291756
-0.89750725,0.17288627,-0.28533816,-3.3528137,8.856678,3.3996773,2.1344652,9.077967,-3.0339706,1,1683900677.2701807
-0.89750725,0.17288627,-0.28533816,-3.3528137,8.856678,3.3996773,2.7813768,9.069188,-2.4868,1,1683900677.290766
-0.25659963,0.39595506,-0.53622043,-3.3528137,8.856678,3.3996773,2.7813768,9.069188,-2.4868,1,1683900677.2959242
0.18342628,0.51407886,-0.25092775,-3.3528137,8.856678,3.3996773,2.7813768,9.069188,-2.4868,1,1683900677.3112884
0.18342628,0.51407886,-0.25092775,-5.76355,11.631641,4.591694,2.7813768,9.069188,-2.4868,1,1683900677.3215308
0.18342628,0.51407886,-0.25092775,-5.76355,11.631641,4.591694,3.6665761,9.004998,-1.2793094,1,1683900677.3266647
0.18342628,0.51407886,-0.25092775,-5.76355,11.631641,4.591694,3.941979,8.945899,-0.7759406,1,1683900677.3471308
0.18342628,0.51407886,-0.25092775,-6.2417984,11.932049,4.785557,3.941979,8.945899,-0.7759406,1,1683900677.35226
0.3052201,0.55460095,-0.15379296,-6.2417984,11.932049,4.785557,3.941979,8.945899,-0.7759406,1,1683900677.3727453
0.600522,0.7200713,0.13200018,-6.2417984,11.932049,4.785557,3.941979,8.945899,-0.7759406,1,1683900677.3881423
0.600522,0.7200713,0.13200018,-6.7223167,11.277962,4.745102,3.941979,8.945899,-0.7759406,1,1683900677.3932736
0.600522,0.7200713,0.13200018,-6.7223167,11.277962,4.745102,4.580752,8.629128,0.8516082,1,1683900677.4035325
0.600522,0.7200713,0.13200018,-6.7223167,11.277962,4.745102,4.982503,7.826509,3.1766026,1,1683900677.4445655
0.600522,0.7200713,0.13200018,-5.1073265,5.874901,2.3855019,4.982503,7.826509,3.1766026,1,1683900677.4496973
1.2951154,1.0014665,0.5220104,-5.1073265,5.874901,2.3855019,4.982503,7.826509,3.1766026,1,1683900677.4650984
1.2951154,1.0014665,0.5220104,-5.1073265,5.874901,2.3855019,5.0415826,7.6646767,3.4649048,1,1683900677.4702244
1.7654115,1.3878067,1.1853629,-5.1073265,5.874901,2.3855019,5.0415826,7.6646767,3.4649048,1,1683900677.4753196
1.7654115,1.3878067,1.1853629,-0.3476715,-2.3989868,-0.5077553,5.0415826,7.6646767,3.4649048,1,1683900677.5008945
1.418365,1.3067776,1.075292,-0.3476715,-2.3989868,-0.5077553,5.0415826,7.6646767,3.4649048,1,1683900677.5162876
1.418365,1.3067776,1.075292,-0.3476715,-2.3989868,-0.5077553,5.094785,7.9689736,2.5901756,1,1683900677.5265028
1.418365,1.3067776,1.075292,4.4565773,-8.787384,-3.2465363,5.094785,7.9689736,2.5901756,1,1683900677.5316336
1.418365,1.3067776,1.075292,4.4565773,-8.787384,-3.2465363,5.0574384,8.126038,2.1354659,1,1683900677.5469804
1.418365,1.3067776,1.075292,5.3355026,-9.791946,-3.9027596,5.0574384,8.126038,2.1354659,1,1683900677.552118
1.2706989,1.196464,0.9085932,5.3355026,-9.791946,-3.9027596,5.0574384,8.126038,2.1354659,1,1683900677.5572531
1.2706989,1.196464,0.9085932,6.219635,-10.551376,-5.065937,5.0574384,8.126038,2.1354659,1,1683900677.5983343
1.2706989,1.196464,0.9085932,6.219635,-10.551376,-5.065937,4.6827574,8.594476,0.614124,1,1683900677.6034276
0.6586057,0.93777156,0.28941768,6.219635,-10.551376,-5.065937,4.6827574,8.594476,0.614124,1,1683900677.6085098
0.6586057,0.93777156,0.28941768,6.219635,-10.551376,-5.065937,3.9880424,8.922052,-0.81418425,1,1683900677.6649268
0.117289685,0.6031608,-0.08301574,5.415344,-10.101833,-5.041504,3.9880424,8.922052,-0.81418425,1,1683900677.6700778
-0.3554481,0.46429065,0.17227966,5.415344,-10.101833,-5.041504,3.9880424,8.922052,-0.81418425,1,1683900677.6751935
-0.3554481,0.46429065,0.17227966,5.415344,-10.101833,-5.041504,3.1928344,9.069136,-1.9305347,1,1683900677.6906128
-0.3554481,0.46429065,0.17227966,4.2414856,-8.626499,-3.9528275,3.1928344,9.069136,-1.9305347,1,1683900677.7008753
-0.6475804,0.47381455,-0.092767134,4.2414856,-8.626499,-3.9528275,3.1928344,9.069136,-1.9305347,1,1683900677.7111425
-0.6475804,0.47381455,-0.092767134,4.2414856,-8.626499,-3.9528275,2.4545572,9.092344,-2.73401,1,1683900677.7213736
-0.6475804,0.47381455,-0.092767134,2.2494507,-2.915554,-1.1777306,2.4545572,9.092344,-2.73401,1,1683900677.7315967
-0.6475804,0.47381455,-0.092767134,2.2494507,-2.915554,-1.1777306,2.6345336,9.044989,-2.7235632,1,1683900677.777748
-0.6475804,0.47381455,-0.092767134,-1.0635757,4.4677925,1.7527771,2.6345336,9.044989,-2.7235632,1,1683900677.7930858
-0.11114767,0.52287483,-0.625545,-1.0635757,4.4677925,1.7527771,2.6345336,9.044989,-2.7235632,1,1683900677.8032968
-0.11114767,0.52287483,-0.625545,-1.0635757,4.4677925,1.7527771,3.0351095,9.035938,-2.3044155,1,1683900677.8084295
-0.11114767,0.52287483,-0.625545,-3.1056786,7.6561165,2.8564072,3.0351095,9.035938,-2.3044155,1,1683900677.8186517
-0.3808351,0.45843676,-0.5096202,-3.1056786,7.6561165,2.8564072,3.0351095,9.035938,-2.3044155,1,1683900677.8237853
-0.010600658,0.5650955,-0.54086107,-3.1056786,7.6561165,2.8564072,3.0351095,9.035938,-2.3044155,1,1683900677.844351
-0.010600658,0.5650955,-0.54086107,-3.1056786,7.6561165,2.8564072,3.2750945,9.027014,-1.989264,1,1683900677.8494854
-0.010600658,0.5650955,-0.54086107,-4.00156,8.82143,3.272972,3.2750945,9.027014,-1.989264,1,1683900677.8648736
0.25444612,0.5973069,-0.26142225,-4.00156,8.82143,3.272972,3.2750945,9.027014,-1.989264,1,1683900677.8802512
0.25444612,0.5973069,-0.26142225,-5.8838463,10.680351,4.0473557,3.2750945,9.027014,-1.989264,1,1683900677.8956318
0.25444612,0.5973069,-0.26142225,-5.8838463,10.680351,4.0473557,3.9988766,8.925249,-0.720632,1,1683900677.9110098
0.25444612,0.5973069,-0.26142225,-6.3451385,9.794083,3.981266,3.9988766,8.925249,-0.720632,1,1683900677.9571817
0.47166106,0.74667156,0.37361634,-6.3451385,9.794083,3.981266,3.9988766,8.925249,-0.720632,1,1683900677.9674377
0.47166106,0.74667156,0.37361634,-6.5241814,10.570602,5.020008,3.9988766,8.925249,-0.720632,1,1683900677.9879014
0.47166106,0.74667156,0.37361634,-6.5241814,10.570602,5.020008,4.3816495,8.751887,0.6131876,1,1683900677.9981744
0.56732476,0.65686166,0.2984563,-6.5241814,10.570602,5.020008,4.3816495,8.751887,0.6131876,1,1683900678.0186253
0.56732476,0.65686166,0.2984563,-6.5241814,10.570602,5.020008,4.673139,8.481531,1.5478328,1,1683900678.0340095
0.56732476,0.65686166,0.2984563,-5.8018684,8.456135,4.1166496,4.673139,8.481531,1.5478328,1,1683900678.039151
1.1755205,0.9321603,0.2635454,-5.8018684,8.456135,4.1166496,4.673139,8.481531,1.5478328,1,1683900678.0493703
1.1755205,0.9321603,0.2635454,-5.0157356,6.538601,3.3080864,4.673139,8.481531,1.5478328,1,1683900678.0800774
1.1755205,0.9321603,0.2635454,-5.0157356,6.538601,3.3080864,4.764382,8.355041,1.914248,1,1683900678.085215
1.5206257,1.0993292,0.3994886,-5.0157356,6.538601,3.3080864,4.764382,8.355041,1.914248,1,1683900678.0903442
1.5206257,1.0993292,0.3994886,-5.0157356,6.538601,3.3080864,4.9110227,8.171421,2.2978513,1,1683900678.0954661
1.5206257,1.0993292,0.3994886,-0.5245781,-1.3965607,0.27317047,4.9110227,8.171421,2.2978513,1,1683900678.1006005
1.9098928,1.5022756,1.0040294,-0.5245781,-1.3965607,0.27317047,4.9110227,8.171421,2.2978513,1,1683900678.1057394
1.866929,1.5371712,1.047706,-0.5245781,-1.3965607,0.27317047,4.9110227,8.171421,2.2978513,1,1683900678.1569216
1.866929,1.5371712,1.047706,4.728279,-8.644657,-3.0526733,4.9110227,8.171421,2.2978513,1,1683900678.1671784
1.866929,1.5371712,1.047706,4.728279,-8.644657,-3.0526733,4.8454375,8.447359,1.1550862,1,1683900678.1774395
1.3456315,1.2496796,0.7658255,4.728279,-8.644657,-3.0526733,4.8454375,8.447359,1.1550862,1,1683900678.1928246
0.8982655,1.1342402,0.40412924,4.728279,-8.644657,-3.0526733,4.8454375,8.447359,1.1550862,1,1683900678.1979537
0.8982655,1.1342402,0.40412924,4.728279,-8.644657,-3.0526733,4.6009626,8.65617,0.26880264,1,1683900678.213365
0.8982655,1.1342402,0.40412924,5.525093,-9.31036,-3.8856697,4.6009626,8.65617,0.26880264,1,1683900678.2236283
0.8982655,1.1342402,0.40412924,5.555935,-9.204884,-4.10944,4.6009626,8.65617,0.26880264,1,1683900678.233887
0.6751967,1.0483278,0.18203105,5.555935,-9.204884,-4.10944,4.6009626,8.65617,0.26880264,1,1683900678.259535
0.6751967,1.0483278,0.18203105,5.555935,-9.204884,-4.10944,4.42654,8.749008,-0.17600659,1,1683900678.2646348
0.6751967,1.0483278,0.18203105,5.555935,-9.204884,-4.10944,5.0765553,8.325724,1.0398599,1,1683900678.2697716
0.6751967,1.0483278,0.18203105,5.391979,-10.151901,-4.042282,5.0765553,8.325724,1.0398599,1,1683900678.2800786
0.6751967,1.0483278,0.18203105,5.391979,-10.151901,-4.042282,4.3698187,8.739058,-0.83901876,1,1683900678.2955315
0.6751967,1.0483278,0.18203105,5.1416397,-10.20731,-4.381008,4.3698187,8.739058,-0.83901876,1,1683900678.3006692
0.40673772,0.8191624,-0.044207323,5.1416397,-10.20731,-4.381008,4.3698187,8.739058,-0.83901876,1,1683900678.3057973
0.40673772,0.8191624,-0.044207323,4.678211,-9.693813,-4.1636467,4.3698187,8.739058,-0.83901876,1,1683900678.3416743
0.15341382,0.68858784,-0.021747272,4.678211,-9.693813,-4.1636467,4.3698187,8.739058,-0.83901876,1,1683900678.34681
0.15341382,0.68858784,-0.021747272,4.678211,-9.693813,-4.1636467,3.8716037,8.854911,-1.6648204,1,1683900678.3622057
0.014058384,0.637829,0.028283587,4.678211,-9.693813,-4.1636467,3.8716037,8.854911,-1.6648204,1,1683900678.3775668
0.014058384,0.637829,0.028283587,4.4086456,-9.21236,-3.9154434,3.8716037,8.854911,-1.6648204,1,1683900678.3929484
0.014058384,0.637829,0.028283587,3.421173,-6.396942,-2.5146103,3.8716037,8.854911,-1.6648204,1,1683900678.3980823
0.014058384,0.637829,0.028283587,3.421173,-6.396942,-2.5146103,2.9120014,8.906363,-2.8926334,1,1683900678.4186256
-0.4167014,0.49992946,0.16935273,3.421173,-6.396942,-2.5146103,2.9120014,8.906363,-2.8926334,1,1683900678.4237454
-0.4167014,0.49992946,0.16935273,2.952404,-4.8906326,-1.835022,2.9120014,8.906363,-2.8926334,1,1683900678.4340081
-0.589254,0.40963432,0.05317011,2.952404,-4.8906326,-1.835022,2.9120014,8.906363,-2.8926334,1,1683900678.4391468
-0.589254,0.40963432,0.05317011,2.952404,-4.8906326,-1.835022,2.750773,8.891417,-3.089714,1,1683900678.4494126
-0.589254,0.40963432,0.05317011,2.952404,-4.8906326,-1.835022,2.6350625,8.836561,-3.3379676,1,1683900678.4801378
-0.29419482,0.380092,-0.4295769,2.952404,-4.8906326,-1.835022,2.6350625,8.836561,-3.3379676,1,1683900678.4852722
-0.29419482,0.380092,-0.4295769,-1.4364815,5.2954483,1.835823,2.6350625,8.836561,-3.3379676,1,1683900678.505779
-0.29419482,0.380092,-0.4295769,-1.4364815,5.2954483,1.835823,2.7341895,8.827389,-3.2820413,1,1683900678.5160308
-0.57193506,0.35056484,-0.20626545,-1.4364815,5.2954483,1.835823,2.7341895,8.827389,-3.2820413,1,1683900678.5211608
-0.57193506,0.35056484,-0.20626545,0.68452835,1.0535622,0.45848846,2.7341895,8.827389,-3.2820413,1,1683900678.526294
-0.38107774,0.36497203,-0.56843185,0.68452835,1.0535622,0.45848846,2.7341895,8.827389,-3.2820413,1,1683900678.5621455
-0.38107774,0.36497203,-0.56843185,-2.0499802,6.3233757,2.1650696,2.7341895,8.827389,-3.2820413,1,1683900678.5672407
-0.38107774,0.36497203,-0.56843185,-2.0499802,6.3233757,2.1650696,2.5658216,8.9368105,-3.1177504,1,1683900678.5775068
-0.21340838,0.4635627,-0.5376915,-2.0499802,6.3233757,2.1650696,2.5658216,8.9368105,-3.1177504,1,1683900678.5979779
-0.21340838,0.4635627,-0.5376915,-3.0470657,7.8403664,2.7306366,2.5658216,8.9368105,-3.1177504,1,1683900678.6082091
-0.21340838,0.4635627,-0.5376915,-3.0470657,7.8403664,2.7306366,2.7997723,8.945623,-2.8822691,1,1683900678.6133385
0.20808531,0.60951513,-0.35952762,-3.0470657,7.8403664,2.7306366,2.7997723,8.945623,-2.8822691,1,1683900678.628733
0.20808531,0.60951513,-0.35952762,-3.0470657,7.8403664,2.7306366,3.6121964,8.935963,-1.8085899,1,1683900678.6389768
0.20808531,0.60951513,-0.35952762,-5.17128,10.46299,3.8109016,3.6121964,8.935963,-1.8085899,1,1683900678.6492484
0.44506082,0.68858784,-0.17452414,-5.17128,10.46299,3.8109016,3.6121964,8.935963,-1.8085899,1,1683900678.6645792
0.44506082,0.68858784,-0.17452414,-5.882778,10.796509,4.0644455,3.6121964,8.935963,-1.8085899,1,1683900678.6697128
0.44506082,0.68858784,-0.17452414,-5.882778,10.796509,4.0644455,4.117174,8.856302,-0.88610554,1,1683900678.679971
0.44506082,0.68858784,-0.17452414,-5.882778,10.796509,4.0644455,4.514038,8.705403,0.0989936,1,1683900678.6953306
0.57440704,0.8023136,0.108084254,-5.882778,10.796509,4.0644455,4.514038,8.705403,0.0989936,1,1683900678.7107155
0.57440704,0.8023136,0.108084254,-6.071434,10.339489,3.9707184,4.514038,8.705403,0.0989936,1,1683900678.7158415
0.68203634,0.88675493,0.40705618,-6.071434,10.339489,3.9707184,4.514038,8.705403,0.0989936,1,1683900678.7414544
0.68203634,0.88675493,0.40705618,-5.712414,9.33279,3.6361313,4.514038,8.705403,0.0989936,1,1683900678.7465825
0.68203634,0.88675493,0.40705618,-5.712414,9.33279,3.6361313,4.782976,8.496151,1.0530635,1,1683900678.7517102
0.68203634,0.88675493,0.40705618,-5.3330994,8.64893,3.3889961,4.782976,8.496151,1.0530635,1,1683900678.7568436
0.7528136,0.94289744,0.53787345,-5.3330994,8.64893,3.3889961,4.782976,8.496151,1.0530635,1,1683900678.7773402
0.7528136,0.94289744,0.53787345,-5.3330994,8.64893,3.3889961,4.8727202,8.378659,1.4916618,1,1683900678.7824733
1.0735024,1.0790833,0.6269554,-5.3330994,8.64893,3.3889961,4.8727202,8.378659,1.4916618,1,1683900678.803003
1.0735024,1.0790833,0.6269554,-3.4007454,5.5521965,2.20232,4.8727202,8.378659,1.4916618,1,1683900678.8183243
1.0735024,1.0790833,0.6269554,-3.4007454,5.5521965,2.20232,5.0058565,8.051473,2.5071044,1,1683900678.8234422
1.0735024,1.0790833,0.6269554,-3.4007454,5.5521965,2.20232,5.1336226,7.5111265,3.6605062,1,1683900678.8388224
1.0735024,1.0790833,0.6269554,-3.4007454,5.5521965,2.20232,5.172242,7.3761883,3.8742912,1,1683900678.843959
1.0735024,1.0790833,0.6269554,-2.599659,5.1527214,2.6805687,5.172242,7.3761883,3.8742912,1,1683900678.8491015
1.0735024,1.0790833,0.6269554,-0.5160332,1.7320824,1.3980293,5.172242,7.3761883,3.8742912,1,1683900678.8593276
1.3317248,1.1244736,0.6398915,-0.5160332,1.7320824,1.3980293,5.172242,7.3761883,3.8742912,1,1683900678.8644626
1.4386109,1.2479659,0.3684904,-0.5160332,1.7320824,1.3980293,5.172242,7.3761883,3.8742912,1,1683900678.8798578
1.4386109,1.2479659,0.3684904,-0.5160332,1.7320824,1.3980293,5.249255,7.397888,3.7265196,1,1683900678.8849924
1.4386109,1.2479659,0.3684904,1.5271378,-2.2785568,-0.14232635,5.249255,7.397888,3.7265196,1,1683900678.9003124
1.3158617,1.282619,0.25989053,1.5271378,-2.2785568,-0.14232635,5.249255,7.397888,3.7265196,1,1683900678.9207897
1.3158617,1.282619,0.25989053,1.5271378,-2.2785568,-0.14232635,5.341903,7.562637,3.231251,1,1683900678.9310422
1.3158617,1.282619,0.25989053,3.277378,-6.049671,-1.6443634,5.341903,7.562637,3.231251,1,1683900678.9361725
1.2143289,1.2477232,0.22889233,3.277378,-6.049671,-1.6443634,5.341903,7.562637,3.231251,1,1683900678.9515462
1.2143289,1.2477232,0.22889233,3.277378,-6.049671,-1.6443634,5.3727684,7.682965,2.876768,1,1683900678.956688
1.2143289,1.2477232,0.22889233,3.9282608,-7.504711,-2.2888374,5.3727684,7.682965,2.876768,1,1683900678.966939
0.9241378,1.0912764,0.08489626,3.9282608,-7.504711,-2.2888374,5.3727684,7.682965,2.876768,1,1683900678.9823227
0.9241378,1.0912764,0.08489626,3.9282608,-7.504711,-2.2888374,5.3033757,8.09696,1.5760156,1,1683900678.9925878
0.9241378,1.0912764,0.08489626,4.797573,-10.304241,-4.094486,5.3033757,8.09696,1.5760156,1,1683900678.997684
0.9241378,1.0912764,0.08489626,4.839096,-9.871788,-3.6470795,5.3033757,8.09696,1.5760156,1,1683900679.007939
0.71743256,0.9712114,-0.029314838,4.839096,-9.871788,-3.6470795,5.3033757,8.09696,1.5760156,1,1683900679.0284195
0.71743256,0.9712114,-0.029314838,4.839096,-9.871788,-3.6470795,5.0903935,8.357206,0.6445015,1,1683900679.0335493
0.71743256,0.9712114,-0.029314838,4.839096,-9.871788,-3.6470795,4.754729,8.573188,-0.2517921,1,1683900679.074574
0.71743256,0.9712114,-0.029314838,4.4683266,-10.313854,-4.243622,4.754729,8.573188,-0.2517921,1,1683900679.0797045
0.5314585,0.8540582,-0.11474189,4.4683266,-10.313854,-4.243622,4.754729,8.573188,-0.2517921,1,1683900679.0848405
0.5314585,0.8540582,-0.11474189,4.4683266,-10.313854,-4.243622,4.3256774,8.735799,-1.0699172,1,1683900679.0899715
0.24346633,0.6763796,-0.0385961,4.4683266,-10.313854,-4.243622,4.3256774,8.735799,-1.0699172,1,1683900679.0951095
-0.06965497,0.53312665,0.0085078245,4.4683266,-10.313854,-4.243622,4.3256774,8.735799,-1.0699172,1,1683900679.1155956
-0.06965497,0.53312665,0.0085078245,4.5109177,-9.459496,-4.5046425,4.3256774,8.735799,-1.0699172,1,1683900679.1258538
-0.06965497,0.53312665,0.0085078245,4.5109177,-9.459496,-4.5046425,3.4541273,8.972454,-1.9324726,1,1683900679.1309814
-0.4535535,0.4350061,0.12541838,4.5109177,-9.459496,-4.5046425,3.4541273,8.972454,-1.9324726,1,1683900679.1515248
-0.4535535,0.4350061,0.12541838,4.5109177,-9.459496,-4.5046425,2.6735597,9.011754,-2.794771,1,1683900679.1618125
-0.4535535,0.4350061,0.12541838,3.346672,-6.8219185,-3.0558777,2.6735597,9.011754,-2.794771,1,1683900679.1669385
-0.4535535,0.4350061,0.12541838,3.346672,-6.8219185,-3.0558777,2.3417745,8.99187,-3.1357217,1,1683900679.1874413
-0.4535535,0.4350061,0.12541838,2.284565,-3.749752,-1.6272736,2.3417745,8.99187,-3.1357217,1,1683900679.197703
-0.4535535,0.4350061,0.12541838,1.5889549,-1.7587852,-0.8219147,2.3417745,8.99187,-3.1357217,1,1683900679.213092
-0.4535535,0.4350061,0.12541838,1.5889549,-1.7587852,-0.8219147,2.268237,8.979081,-3.2251492,1,1683900679.2232726
-0.6829766,0.4057216,0.08368302,1.5889549,-1.7587852,-0.8219147,2.268237,8.979081,-3.2251492,1,1683900679.2284007
-0.6829766,0.4057216,0.08368302,-1.3181877,4.904518,1.5940285,2.268237,8.979081,-3.2251492,1,1683900679.2386522
-0.6829766,0.4057216,0.08368302,-1.3181877,4.904518,1.5940285,2.4803264,8.967196,-3.099638,1,1683900679.2488737
-0.5267723,0.32006708,-0.4483669,-1.3181877,4.904518,1.5940285,2.4803264,8.967196,-3.099638,1,1683900679.2591472
-0.5267723,0.32006708,-0.4483669,-2.4250221,6.7718506,2.3195457,2.4803264,8.967196,-3.099638,1,1683900679.2796037
-0.5267723,0.32006708,-0.4483669,-2.4250221,6.7718506,2.3195457,2.6800854,8.973739,-2.9085302,1,1683900679.2898633
-0.27589008,0.39546975,-0.49302918,-2.4250221,6.7718506,2.3195457,2.6800854,8.973739,-2.9085302,1,1683900679.3001144
-0.27589008,0.39546975,-0.49302918,-5.173416,10.618534,3.9962196,2.6800854,8.973739,-2.9085302,1,1683900679.310364
-0.27589008,0.39546975,-0.49302918,-5.173416,10.618534,3.9962196,3.4819741,8.96929,-1.896862,1,1683900679.3308475
-0.06868438,0.46941656,-0.3092541,-5.173416,10.618534,3.9962196,3.4819741,8.96929,-1.896862,1,1683900679.3359747
-0.06868438,0.46941656,-0.3092541,-6.2833214,11.771164,4.6652603,3.4819741,8.96929,-1.896862,1,1683900679.361602
-0.06868438,0.46941656,-0.3092541,-6.2833214,11.771164,4.6652603,4.045941,8.885048,-0.9255613,1,1683900679.3667383
-0.06868438,0.46941656,-0.3092541,-6.2833214,11.771164,4.6652603,3.8484957,8.883566,-1.5626042,1,1683900679.397451
-0.06868438,0.46941656,-0.3092541,-6.2833214,11.771164,4.6652603,4.0957294,8.838805,-1.1273454,1,1683900679.4025786
0.31521413,0.5875403,-0.10521798,-6.2833214,11.771164,4.6652603,4.0957294,8.838805,-1.1273454,1,1683900679.4179573
0.31521413,0.5875403,-0.10521798,-6.2833214,11.771164,4.6652603,4.547792,8.687496,-0.12405325,1,1683900679.433344
0.31521413,0.5875403,-0.10521798,-6.25782,11.19278,4.459648,4.547792,8.687496,-0.12405325,1,1683900679.4435823
0.5185223,0.7169017,0.14786325,-6.25782,11.19278,4.459648,4.547792,8.687496,-0.12405325,1,1683900679.464099
0.5185223,0.7169017,0.14786325,-6.25782,11.19278,4.459648,4.8898697,8.445998,0.96160054,1,1683900679.474363
0.5185223,0.7169017,0.14786325,-6.605091,10.990372,4.4947624,4.8898697,8.445998,0.96160054,1,1683900679.4794993
0.5185223,0.7169017,0.14786325,-6.5241814,10.515194,4.3264008,4.8898697,8.445998,0.96160054,1,1683900679.499983
0.6361608,0.8150071,0.23744565,-6.5241814,10.515194,4.3264008,4.8898697,8.445998,0.96160054,1,1683900679.5051112
0.6361608,0.8150071,0.23744565,-6.5241814,10.515194,4.3264008,5.007214,8.298693,1.4932786,1,1683900679.515336
1.1752778,1.0492984,0.3733737,-6.5241814,10.515194,4.3264008,5.007214,8.298693,1.4932786,1,1683900679.5204709
1.1752778,1.0492984,0.3733737,-6.5241814,10.515194,4.3264008,5.18265,7.7189207,3.119101,1,1683900679.5256076
1.1752778,1.0492984,0.3733737,-5.034828,7.0946884,2.9586792,5.18265,7.7189207,3.119101,1,1683900679.5409515
1.1752778,1.0492984,0.3733737,-5.034828,7.0946884,2.9586792,5.1951094,7.6338763,3.302296,1,1683900679.5665443
1.6794991,1.307278,0.86148924,-5.034828,7.0946884,2.9586792,5.1951094,7.6338763,3.302296,1,1683900679.5767875
1.6794991,1.307278,0.86148924,-2.9682922,2.7355766,1.3043022,5.1951094,7.6338763,3.302296,1,1683900679.5870855
1.6794991,1.307278,0.86148924,-0.094127655,-2.4383736,-0.5758476,5.1951094,7.6338763,3.302296,1,1683900679.6024928
1.7163513,1.3587648,1.0923682,-0.094127655,-2.4383736,-0.5758476,5.1951094,7.6338763,3.302296,1,1683900679.607629
1.7163513,1.3587648,1.0923682,-0.094127655,-2.4383736,-0.5758476,5.238342,7.6001067,3.3118806,1,1683900679.6229966
1.7163513,1.3587648,1.0923682,2.8001976,-6.3713074,-2.3239517,5.238342,7.6001067,3.3118806,1,1683900679.638387
1.5111018,1.3258253,1.1448407,2.8001976,-6.3713074,-2.3239517,5.238342,7.6001067,3.3118806,1,1683900679.6486707
1.5111018,1.3258253,1.1448407,2.8001976,-6.3713074,-2.3239517,5.271831,7.754156,2.8724978,1,1683900679.6538312
1.5111018,1.3258253,1.1448407,2.8001976,-6.3713074,-2.3239517,3.5678813,8.992828,-1.6030097,1,1683900679.6744025
1.5111018,1.3258253,1.1448407,5.4504585,-8.877907,-4.552574,3.5678813,8.992828,-1.6030097,1,1683900679.689797
-0.099439934,0.53678155,-0.0027146179,5.4504585,-8.877907,-4.552574,3.5678813,8.992828,-1.6030097,1,1683900679.7001016
-0.099439934,0.53678155,-0.0027146179,4.9349594,-8.033161,-3.8110352,3.5678813,8.992828,-1.6030097,1,1683900679.7052357
-0.40378043,0.43867618,-0.06299733,4.9349594,-8.033161,-3.8110352,3.5678813,8.992828,-1.6030097,1,1683900679.7103882
-0.40378043,0.43867618,-0.06299733,4.9349594,-8.033161,-3.8110352,3.031954,9.0297785,-2.3325388,1,1683900679.715506
-0.40378043,0.43867618,-0.06299733,4.9349594,-8.033161,-3.8110352,2.784685,9.022662,-2.6471632,1,1683900679.7463303
-0.50237113,0.42793903,-0.081059396,4.9349594,-8.033161,-3.8110352,2.784685,9.022662,-2.6471632,1,1683900679.7514746
-0.50237113,0.42793903,-0.081059396,4.5962334,-7.334347,-3.2912636,2.784685,9.022662,-2.6471632,1,1683900679.7617347
-0.50237113,0.42793903,-0.081059396,4.5962334,-7.334347,-3.2912636,2.2505252,8.941239,-3.3406246,1,1683900679.7720003
-0.50237113,0.42793903,-0.081059396,3.1196976,-3.9083672,-1.41325,2.2505252,8.941239,-3.3406246,1,1683900679.7771301
-0.5694935,0.48065418,-0.24994199,3.1196976,-3.9083672,-1.41325,2.2505252,8.941239,-3.3406246,1,1683900679.7873464
-0.5694935,0.48065418,-0.24994199,3.1196976,-3.9083672,-1.41325,2.1485255,8.8818245,-3.5591311,1,1683900679.8181367
-0.51702094,0.50505537,-0.44421157,3.1196976,-3.9083672,-1.41325,2.1485255,8.8818245,-3.5591311,1,1683900679.833448
-0.51702094,0.50505537,-0.44421157,1.6230011,-0.6412697,-0.052871704,2.1485255,8.8818245,-3.5591311,1,1683900679.8385775
-0.51702094,0.50505537,-0.44421157,-0.2901268,3.0285072,1.2595749,2.1485255,8.8818245,-3.5591311,1,1683900679.8437095
-0.51702094,0.50505537,-0.44421157,-0.2901268,3.0285072,1.2595749,2.2936046,8.852951,-3.540481,1,1683900679.8488407
-0.34226933,0.524088,-0.65801424,-0.2901268,3.0285072,1.2595749,2.2936046,8.852951,-3.540481,1,1683900679.8539665
-0.10065317,0.53312665,-0.8249405,-0.2901268,3.0285072,1.2595749,2.2936046,8.852951,-3.540481,1,1683900679.8949656
-0.10065317,0.53312665,-0.8249405,-2.3834991,6.335125,2.3514557,2.2936046,8.852951,-3.540481,1,1683900679.9052198
-0.10065317,0.53312665,-0.8249405,-2.3834991,6.335125,2.3514557,2.6591702,8.861356,-3.25201,1,1683900679.9103522
0.007946703,0.55460095,-0.76295924,-2.3834991,6.335125,2.3514557,2.6591702,8.861356,-3.25201,1,1683900679.9154885
0.007946703,0.55460095,-0.76295924,-4.771805,9.981537,3.6564255,2.6591702,8.861356,-3.25201,1,1683900679.9411383
0.02259654,0.5204332,-0.26604772,-4.771805,9.981537,3.6564255,2.6591702,8.861356,-3.25201,1,1683900679.9462662
0.02259654,0.5204332,-0.26604772,-4.771805,9.981537,3.6564255,3.6287363,8.894142,-1.9740598,1,1683900679.9564953
0.13168171,0.53946584,-0.19357197,-4.771805,9.981537,3.6564255,3.6287363,8.894142,-1.9740598,1,1683900679.9821887
0.13168171,0.53946584,-0.19357197,-4.771805,9.981537,3.6564255,3.9027789,8.865985,-1.5274277,1,1683900679.987277
0.13168171,0.53946584,-0.19357197,-5.44178,10.92535,4.0366745,3.9027789,8.865985,-1.5274277,1,1683900679.9975374
0.13168171,0.53946584,-0.19357197,-6.86718,12.299614,4.633217,3.9027789,8.865985,-1.5274277,1,1683900680.018046
0.13168171,0.53946584,-0.19357197,-6.86718,12.299614,4.633217,4.6263566,8.646332,0.090227984,1,1683900680.0231967
0.40453872,0.64832354,0.014619506,-6.86718,12.299614,4.633217,4.6263566,8.646332,0.090227984,1,1683900680.0283213
0.40453872,0.64832354,0.014619506,-6.443138,9.488335,3.735199,4.6263566,8.646332,0.090227984,1,1683900680.0796192
0.9282931,0.94558173,0.37313104,-6.443138,9.488335,3.735199,4.6263566,8.646332,0.090227984,1,1683900680.0847476
0.9282931,0.94558173,0.37313104,-6.443138,9.488335,3.735199,5.080997,8.058075,2.328366,1,1683900680.1052516
0.9282931,0.94558173,0.37313104,-4.570465,5.568218,2.4430466,5.080997,8.058075,2.328366,1,1683900680.110387
1.339535,1.0934753,0.7091977,-4.570465,5.568218,2.4430466,5.080997,8.058075,2.328366,1,1683900680.1206357
1.339535,1.0934753,0.7091977,-4.570465,5.568218,2.4430466,5.1335053,7.769966,3.0732927,1,1683900680.1308584
1.4464211,1.1625389,0.90663683,-4.570465,5.568218,2.4430466,5.1335053,7.769966,3.0732927,1,1683900680.1667318
1.4464211,1.1625389,0.90663683,-4.570465,5.568218,2.4430466,5.1515994,7.671995,3.282056,1,1683900680.1718607
1.4464211,1.1625389,0.90663683,-3.2516098,3.1596184,1.6355515,5.1515994,7.671995,3.282056,1,1683900680.1769993
1.5359883,1.2718818,1.2444172,-3.2516098,3.1596184,1.6355515,5.1515994,7.671995,3.282056,1,1683900680.1923501
1.5359883,1.2718818,1.2444172,1.2055016,-3.6303902,-0.8358002,5.1515994,7.671995,3.282056,1,1683900680.2077327
1.6262987,1.2784789,1.6141664,1.2055016,-3.6303902,-0.8358002,5.1515994,7.671995,3.282056,1,1683900680.2128603
1.6262987,1.2784789,1.6141664,1.8286133,-5.6352425,-1.6741371,5.1515994,7.671995,3.282056,1,1683900680.217995
1.6262987,1.2784789,1.6141664,1.8286133,-5.6352425,-1.6741371,5.2972655,7.301585,3.8465867,1,1683900680.223128
1.6262987,1.2784789,1.6141664,5.117073,-8.459206,-3.7887383,5.2972655,7.301585,3.8465867,1,1683900680.253892
1.6262987,1.2784789,1.6141664,5.117073,-8.459206,-3.7887383,5.3167024,7.8908787,2.3742602,1,1683900680.2692902
1.6262987,1.2784789,1.6141664,5.2439117,-8.094978,-4.123192,5.3167024,7.8908787,2.3742602,1,1683900680.279549
1.6262987,1.2784789,1.6141664,5.2439117,-8.094978,-4.123192,5.150743,8.203878,1.5285951,1,1683900680.2999978
0.54146767,0.85381556,0.310892,5.2439117,-8.094978,-4.123192,5.150743,8.203878,1.5285951,1,1683900680.3051329
0.54146767,0.85381556,0.310892,5.2439117,-8.094978,-4.123192,5.029452,8.344034,1.118969,1,1683900680.3153455
0.40112647,0.7801114,0.06293667,5.2439117,-8.094978,-4.123192,5.029452,8.344034,1.118969,1,1683900680.3204837
0.40112647,0.7801114,0.06293667,5.084095,-7.8915024,-4.194622,5.029452,8.344034,1.118969,1,1683900680.3461192
0.03967285,0.5675371,-0.21773055,5.084095,-7.8915024,-4.194622,5.029452,8.344034,1.118969,1,1683900680.361395
0.03967285,0.5675371,-0.21773055,4.1625786,-7.5463676,-3.9836693,5.029452,8.344034,1.118969,1,1683900680.366525
0.03967285,0.5675371,-0.21773055,4.1625786,-7.5463676,-3.9836693,4.5615087,8.681177,-0.013283703,1,1683900680.3716176
-0.03451659,0.5321409,-0.2043091,4.1625786,-7.5463676,-3.9836693,4.5615087,8.681177,-0.013283703,1,1683900680.3870049
-0.16801816,0.54069424,-0.086913265,4.1625786,-7.5463676,-3.9836693,4.5615087,8.681177,-0.013283703,1,1683900680.4228926
-0.16801816,0.54069424,-0.086913265,2.9598808,-6.2690353,-2.7606773,4.5615087,8.681177,-0.013283703,1,1683900680.4280374
-0.16801816,0.54069424,-0.086913265,2.9598808,-6.2690353,-2.7606773,3.8840518,8.924818,-1.1967251,1,1683900680.4331641
-0.18680817,0.5663087,-0.07080755,2.9598808,-6.2690353,-2.7606773,3.8840518,8.924818,-1.1967251,1,1683900680.4588158
-0.18680817,0.5663087,-0.07080755,2.3389053,-4.8213387,-1.8989754,3.8840518,8.924818,-1.1967251,1,1683900680.4639566
-0.18680817,0.5663087,-0.07080755,2.3389053,-4.8213387,-1.8989754,3.6124804,8.972715,-1.6157818,1,1683900680.46909
-0.18680817,0.5663087,-0.07080755,2.7905846,-3.7966156,-1.7573166,3.6124804,8.972715,-1.6157818,1,1683900680.4792988
-0.18680817,0.5663087,-0.07080755,2.7905846,-3.7966156,-1.7573166,1.9221301,9.001676,-3.383139,1,1683900680.4844334
-0.18680817,0.5663087,-0.07080755,2.1769524,-2.1379662,-0.92845917,1.9221301,9.001676,-3.383139,1,1683900680.5100687
-0.87089187,0.3261636,-0.10229105,2.1769524,-2.1379662,-0.92845917,1.9221301,9.001676,-3.383139,1,1683900680.5151806
-0.87089187,0.3261636,-0.10229105,2.1769524,-2.1379662,-0.92845917,1.8328387,8.975193,-3.5010016,1,1683900680.530571
-0.59706426,0.38351938,-0.48790327,-0.25287628,3.2469368,1.4480972,1.8328387,8.975193,-3.5010016,1,1683900680.5510454
-0.4433168,0.401081,-0.57234454,-0.25287628,3.2469368,1.4480972,1.8328387,8.975193,-3.5010016,1,1683900680.556176
-0.4433168,0.401081,-0.57234454,-0.25287628,3.2469368,1.4480972,1.9724724,8.925524,-3.5517278,1,1683900680.5613067
-0.4433168,0.401081,-0.57234454,-3.0801773,7.7999115,3.272972,1.9724724,8.925524,-3.5517278,1,1683900680.5920904
-0.4433168,0.401081,-0.57234454,-3.0801773,7.7999115,3.272972,2.6399891,8.936085,-3.0573242,1,1683900680.6074424
-0.11286137,0.45770884,-0.54037577,-3.0801773,7.7999115,3.272972,2.6399891,8.936085,-3.0573242,1,1683900680.612575
0.19123648,0.53458256,-0.3312137,-3.0801773,7.7999115,3.272972,2.6399891,8.936085,-3.0573242,1,1683900680.6330988
0.19123648,0.53458256,-0.3312137,-5.339508,10.656986,4.3115807,2.6399891,8.936085,-3.0573242,1,1683900680.653636
0.19123648,0.53458256,-0.3312137,-5.339508,10.656986,4.3115807,3.5477169,8.923605,-1.988308,1,1683900680.658771
0.19123648,0.53458256,-0.3312137,-5.879574,11.184235,4.5256042,3.5477169,8.923605,-1.988308,1,1683900680.669056
0.19123648,0.53458256,-0.3312137,-5.879574,11.184235,4.5256042,3.8477845,8.891192,-1.5204049,1,1683900680.6792853
0.24639326,0.5543583,-0.20747869,-5.879574,11.184235,4.5256042,3.8477845,8.891192,-1.5204049,1,1683900680.6895866
0.24639326,0.5543583,-0.20747869,-6.723385,11.609211,4.8218727,3.8477845,8.891192,-1.5204049,1,1683900680.7153552
0.37842378,0.61684,0.21083026,-6.723385,11.609211,4.8218727,3.8477845,8.891192,-1.5204049,1,1683900680.7256665
0.37842378,0.61684,0.21083026,-6.5571594,10.904121,4.7226715,3.8477845,8.891192,-1.5204049,1,1683900680.7360122
0.37842378,0.61684,0.21083026,-6.5571594,10.904121,4.7226715,4.6409125,8.638684,-0.07385421,1,1683900680.7411685
0.37842378,0.61684,0.21083026,-6.476116,12.170639,5.228691,4.6409125,8.638684,-0.07385421,1,1683900680.7617545
0.37842378,0.61684,0.21083026,-6.476116,12.170639,5.228691,4.8539705,8.506637,0.4964808,1,1683900680.7720335
0.49826127,0.6092725,0.28600547,-6.476116,12.170639,5.228691,4.8539705,8.506637,0.4964808,1,1683900680.7772207
0.49826127,0.6092725,0.28600547,-6.476116,12.170639,5.228691,5.2489424,7.9942427,2.1705043,1,1683900680.8028915
0.86167127,0.88212943,0.48368725,-6.476116,12.170639,5.228691,5.2489424,7.9942427,2.1705043,1,1683900680.8080454
0.86167127,0.88212943,0.48368725,-6.120434,11.031895,4.7759438,5.2489424,7.9942427,2.1705043,1,1683900680.8183243
0.86167127,0.88212943,0.48368725,-6.120434,11.031895,4.7759438,5.3288255,7.6371307,3.0737994,1,1683900680.8286173
1.325613,1.0934753,0.40754148,-6.120434,11.031895,4.7759438,5.3288255,7.6371307,3.0737994,1,1683900680.8440561
1.325613,1.0934753,0.40754148,-4.983692,8.498726,3.7011528,5.3288255,7.6371307,3.0737994,1,1683900680.859499
1.325613,1.0934753,0.40754148,-4.983692,8.498726,3.7011528,5.3507285,7.3857,3.6043754,1,1683900680.8801079
1.8039621,1.3180152,0.42511824,-4.983692,8.498726,3.7011528,5.3507285,7.3857,3.6043754,1,1683900680.8852694
1.8039621,1.3180152,0.42511824,-4.983692,8.498726,3.7011528,5.4039917,7.34059,3.6170425,1,1683900680.890396
1.8039621,1.3180152,0.42511824,0.03578186,-2.178421,-0.4086876,5.4039917,7.34059,3.6170425,1,1683900680.905876
2.03704,1.555476,0.70798445,0.03578186,-2.178421,-0.4086876,5.4039917,7.34059,3.6170425,1,1683900680.9110248
1.9845676,1.5586456,0.8346464,0.03578186,-2.178421,-0.4086876,5.4039917,7.34059,3.6170425,1,1683900680.9316032
1.9845676,1.5586456,0.8346464,1.6262054,-5.0855637,-1.5996361,5.4039917,7.34059,3.6170425,1,1683900680.9469936
1.9845676,1.5586456,0.8346464,1.6262054,-5.0855637,-1.5996361,5.4413114,7.407407,3.4194798,1,1683900680.9521263
1.9845676,1.5586456,0.8346464,1.6262054,-5.0855637,-1.5996361,5.4419374,7.8563743,2.1984282,1,1683900680.9675274
1.9845676,1.5586456,0.8346464,5.0894356,-10.761261,-4.294758,5.4419374,7.8563743,2.1984282,1,1683900680.98288
1.9845676,1.5586456,0.8346464,5.0894356,-10.761261,-4.294758,5.241053,8.212089,1.1239883,1,1683900681.003403
0.95489335,1.0680884,0.7126099,5.0894356,-10.761261,-4.294758,5.241053,8.212089,1.1239883,1,1683900681.013682
0.95489335,1.0680884,0.7126099,5.985317,-11.733913,-5.1298904,5.241053,8.212089,1.1239883,1,1683900681.0188158
1.4786477,1.3214275,0.7055428,5.985317,-11.733913,-5.1298904,5.241053,8.212089,1.1239883,1,1683900681.0342057
1.4786477,1.3214275,0.7055428,5.985317,-11.733913,-5.1298904,5.430842,7.9100723,2.0265985,1,1683900681.0393372
1.4786477,1.3214275,0.7055428,4.5280075,-9.259224,-3.6736488,5.430842,7.9100723,2.0265985,1,1683900681.054763
0.66690123,0.94483864,0.31431937,4.5280075,-9.259224,-3.6736488,5.430842,7.9100723,2.0265985,1,1683900681.0701873
0.30667597,0.738376,0.011677406,5.3162766,-10.008106,-5.067005,4.393958,8.720585,-0.9027358,1,1683900681.0805848
0.30667597,0.738376,0.011677406,4.9796867,-9.559631,-4.9030495,4.393958,8.720585,-0.9027358,1,1683900681.1010919
0.30667597,0.738376,0.011677406,4.9796867,-9.559631,-4.9030495,4.125827,8.797659,-1.322545,1,1683900681.1164484
0.30667597,0.738376,0.011677406,4.9796867,-9.559631,-4.9030495,3.3083026,8.927628,-2.350105,1,1683900681.1215756
-0.29956338,0.4354914,-0.13036232,4.9796867,-9.559631,-4.9030495,3.3083026,8.927628,-2.350105,1,1683900681.1318464
-0.29956338,0.4354914,-0.13036232,3.7215805,-7.796707,-3.9175797,3.3083026,8.927628,-2.350105,1,1683900681.1472716
-0.29956338,0.4354914,-0.13036232,2.807541,-5.8323097,-2.8139496,3.3083026,8.927628,-2.350105,1,1683900681.1729233
-0.52604437,0.40963432,-0.07714671,2.807541,-5.8323097,-2.8139496,3.3083026,8.927628,-2.350105,1,1683900681.1780572
-0.6231792,0.42305574,-0.09545142,2.807541,-5.8323097,-2.8139496,2.8525727,8.949405,-2.8180444,1,1683900681.183221
-0.6231792,0.42305574,-0.09545142,1.7391586,-3.1233025,-1.4334106,2.5623338,8.942933,-3.103029,1,1683900681.1883748
-0.6231792,0.42305574,-0.09545142,0.35648346,0.24606705,0.054740906,2.5623338,8.942933,-3.103029,1,1683900681.1935008
-0.59926325,0.39645553,-0.17478195,0.35648346,0.24606705,0.054740906,2.5623338,8.942933,-3.103029,1,1683900681.1986291
-0.59926325,0.39645553,-0.17478195,0.35648346,0.24606705,0.054740906,2.4971285,8.932401,-3.185431,1,1683900681.2191453
-0.8176914,0.30321825,-0.30802572,0.35648346,0.24606705,0.054740906,2.4971285,8.932401,-3.185431,1,1683900681.2499256
-0.8176914,0.30321825,-0.30802572,0.35648346,0.24606705,0.054740906,2.105109,8.916378,-3.4981587,1,1683900681.255063
-0.8176914,0.30321825,-0.30802572,0.7729149,1.061039,0.33805847,2.105109,8.916378,-3.4981587,1,1683900681.2601953
-0.8176914,0.30321825,-0.30802572,0.7729149,1.061039,0.33805847,2.590707,8.913515,-3.163522,1,1683900681.2755957
-0.8176914,0.30321825,-0.30802572,-2.3845673,6.8390083,2.6263618,2.590707,8.913515,-3.163522,1,1683900681.2858598
-0.34471098,0.35227853,-0.6687514,-2.3845673,6.8390083,2.6263618,2.590707,8.913515,-3.163522,1,1683900681.2909555
-0.34471098,0.35227853,-0.6687514,-2.3845673,6.8390083,2.6263618,2.8529031,8.920874,-2.9067743,1,1683900681.3114655
-0.17948325,0.3869316,-0.6091966,-2.3845673,6.8390083,2.6263618,2.8529031,8.920874,-2.9067743,1,1683900681.316598
-0.17948325,0.3869316,-0.6091966,-3.3986092,8.2494545,3.192997,2.8529031,8.920874,-2.9067743,1,1683900681.3268266
0.37818113,0.60023385,-0.10009205,-3.3986092,8.2494545,3.192997,2.8529031,8.920874,-2.9067743,1,1683900681.3473084
0.37818113,0.60023385,-0.10009205,-3.3986092,8.2494545,3.192997,3.7401206,8.897438,-1.7370936,1,1683900681.3575664
0.37818113,0.60023385,-0.10009205,-6.5475464,11.491051,4.573536,3.7401206,8.897438,-1.7370936,1,1683900681.3627038
0.37818113,0.60023385,-0.10009205,-6.5475464,11.491051,4.573536,4.281968,8.793188,-0.71762806,1,1683900681.3729637
0.17464547,0.5199479,-0.3297578,-6.5475464,11.491051,4.573536,4.281968,8.793188,-0.71762806,1,1683900681.388307
0.17464547,0.5199479,-0.3297578,-5.728302,10.961533,4.2923546,4.281968,8.793188,-0.71762806,1,1683900681.3985574
0.17464547,0.5199479,-0.3297578,-6.730728,11.400528,4.5533752,4.281968,8.793188,-0.71762806,1,1683900681.4088113
0.17464547,0.5199479,-0.3297578,-6.730728,11.400528,4.5533752,4.508094,8.707346,-0.17208159,1,1683900681.4241893
0.46970472,0.6736953,-0.028829545,-6.730728,11.400528,4.5533752,4.508094,8.707346,-0.17208159,1,1683900681.44466
0.46970472,0.6736953,-0.028829545,-5.3097343,7.87014,3.2654953,4.508094,8.707346,-0.17208159,1,1683900681.5267081
1.2255514,1.0612639,0.33627898,-5.3097343,7.87014,3.2654953,4.508094,8.707346,-0.17208159,1,1683900681.5318496
1.2255514,1.0612639,0.33627898,-5.3097343,7.87014,3.2654953,5.3454857,7.831419,2.5030086,1,1683900681.5369923
1.6756016,1.3277665,0.8622172,-5.3097343,7.87014,3.2654953,5.3454857,7.831419,2.5030086,1,1683900681.5471778
1.6756016,1.3277665,0.8622172,-0.16662598,-2.104988,-0.3096199,5.3454857,7.831419,2.5030086,1,1683900681.5523064
1.6756016,1.3277665,0.8622172,2.6168823,-6.4639664,-1.9586563,5.3454857,7.831419,2.5030086,1,1683900681.5779483
1.431286,1.2511355,1.0098833,2.6168823,-6.4639664,-1.9586563,5.3454857,7.831419,2.5030086,1,1683900681.5882123
1.431286,1.2511355,1.0098833,2.6168823,-6.4639664,-1.9586563,5.414406,7.7003303,2.7494566,1,1683900681.5933473
1.2873051,1.1849989,0.94251835,2.6168823,-6.4639664,-1.9586563,5.414406,7.7003303,2.7494566,1,1683900681.6138225
1.2873051,1.1849989,0.94251835,3.651352,-7.827549,-2.6041985,5.414406,7.7003303,2.7494566,1,1683900681.62408
1.2873051,1.1849989,0.94251835,3.651352,-7.827549,-2.6041985,5.4245596,7.930841,1.9611987,1,1683900681.6343434
1.2873051,1.1849989,0.94251835,5.251255,-9.34454,-3.7908745,5.4245596,7.930841,1.9611987,1,1683900681.6548111
0.8211491,1.035149,0.6103644,5.251255,-9.34454,-3.7908745,5.4245596,7.930841,1.9611987,1,1683900681.6599414
0.8211491,1.035149,0.6103644,5.251255,-9.34454,-3.7908745,5.1874833,8.29579,0.66354275,1,1683900681.6702447
0.6498249,0.9687697,0.4419519,5.251255,-9.34454,-3.7908745,5.1874833,8.29579,0.66354275,1,1683900681.6804693
0.6498249,0.9687697,0.4419519,5.3866386,-9.230518,-3.981533,5.1874833,8.29579,0.66354275,1,1683900681.7009547
0.6498249,0.9687697,0.4419519,5.3866386,-9.230518,-3.981533,5.0425577,8.408266,0.20988593,1,1683900681.7060862
0.20221628,0.7432593,-0.12572168,5.3866386,-9.230518,-3.981533,5.0425577,8.408266,0.20988593,1,1683900681.7111895
0.20221628,0.7432593,-0.12572168,4.914665,-8.222752,-4.051895,5.0425577,8.408266,0.20988593,1,1683900681.7265623
0.20221628,0.7432593,-0.12572168,4.914665,-8.222752,-4.051895,4.461883,8.668136,-1.0608475,1,1683900681.7419364
-0.022551043,0.59706426,-0.3009586,4.914665,-8.222752,-4.051895,4.461883,8.668136,-1.0608475,1,1683900681.752205
-0.022551043,0.59706426,-0.3009586,4.167919,-7.501507,-3.8026237,4.461883,8.668136,-1.0608475,1,1683900681.7624683
-0.022551043,0.59706426,-0.3009586,4.167919,-7.501507,-3.8026237,4.0099354,8.772574,-1.7699572,1,1683900681.7675946
-0.17899795,0.45843676,-0.33219945,4.167919,-7.501507,-3.8026237,4.0099354,8.772574,-1.7699572,1,1683900681.788106
-0.17899795,0.45843676,-0.33219945,4.167919,-7.501507,-3.8026237,3.6642442,8.848531,-2.108836,1,1683900681.7983856
-0.17899795,0.45843676,-0.33219945,4.352169,-7.4824142,-3.9357376,3.6642442,8.848531,-2.108836,1,1683900681.8137817
-0.17899795,0.45843676,-0.33219945,2.980175,-5.5830383,-2.8076744,3.6642442,8.848531,-2.108836,1,1683900681.8240333
-0.17899795,0.45843676,-0.33219945,2.980175,-5.5830383,-2.8076744,2.9817111,8.885339,-2.8862681,1,1683900681.844501
-0.4498986,0.38620368,-0.3092541,2.980175,-5.5830383,-2.8076744,2.9817111,8.885339,-2.8862681,1,1683900681.875255
-0.4950462,0.4425737,-0.32657307,2.980175,-5.5830383,-2.8076744,2.9817111,8.885339,-2.8862681,1,1683900681.8957646
-0.4950462,0.4425737,-0.32657307,1.1852074,-1.6511726,-0.5300522,2.9817111,8.885339,-2.8862681,1,1683900681.911134
-0.4950462,0.4425737,-0.32657307,1.1852074,-1.6511726,-0.5300522,2.495555,8.84975,-3.4094772,1,1683900681.9316053
-0.3874169,0.47821254,-0.30778307,1.1852074,-1.6511726,-0.5300522,2.495555,8.84975,-3.4094772,1,1683900681.9367383
-0.3874169,0.47821254,-0.30778307,1.1852074,-1.6511726,-0.5300522,2.5276003,8.831419,-3.433317,1,1683900681.9470124
-0.3874169,0.47821254,-0.30778307,-0.0004005432,0.9981537,0.6970787,2.5276003,8.831419,-3.433317,1,1683900681.9521408
-0.30004868,0.4867507,-0.3114531,-0.0004005432,0.9981537,0.6970787,2.5276003,8.831419,-3.433317,1,1683900681.962402
-0.30004868,0.4867507,-0.3114531,-0.69067,2.48003,1.2872124,2.5276003,8.831419,-3.433317,1,1683900681.9777963
-0.30004868,0.4867507,-0.3114531,-0.69067,2.48003,1.2872124,2.6208375,8.827457,-3.3730714,1,1683900681.982936
-0.30004868,0.4867507,-0.3114531,-2.8851128,6.7281914,2.7785683,2.6208375,8.827457,-3.3730714,1,1683900682.008564
-0.035972476,0.50993866,-0.2301814,-4.135742,8.979111,3.5871315,2.6208375,8.827457,-3.3730714,1,1683900682.0137262
-0.035972476,0.50993866,-0.2301814,-4.135742,8.979111,3.5871315,3.1681383,8.829715,-2.8582206,1,1683900682.0188487
0.111435816,0.54166484,-0.087155916,-4.135742,8.979111,3.5871315,3.1681383,8.829715,-2.8582206,1,1683900682.0342376
-0.078936234,0.54923236,-0.1742815,-4.135742,8.979111,3.5871315,3.1681383,8.829715,-2.8582206,1,1683900682.0444639
-0.078936234,0.54923236,-0.1742815,3.5084915,-7.8829575,-3.7652397,3.1681383,8.829715,-2.8582206,1,1683900682.0496106
-0.078936234,0.54923236,-0.1742815,3.5084915,-7.8829575,-3.7652397,3.503741,8.881117,-2.2405279,1,1683900682.075182
-0.078936234,0.54923236,-0.1742815,3.0621529,-6.8229866,-3.0430603,3.503741,8.881117,-2.2405279,1,1683900682.1008227
-0.078936234,0.54923236,-0.1742815,3.0621529,-6.8229866,-3.0430603,3.0293028,8.911053,-2.7544255,1,1683900682.1059458
-0.24464925,0.5150646,-0.06275468,3.0621529,-6.8229866,-3.0430603,3.0293028,8.911053,-2.7544255,1,1683900682.1110787
-0.24464925,0.5150646,-0.06275468,2.5029945,-5.0930405,-2.0736122,3.0293028,8.911053,-2.7544255,1,1683900682.121342
-0.24464925,0.5150646,-0.06275468,2.5029945,-5.0930405,-2.0736122,2.6472254,8.902814,-3.1468217,1,1683900682.1316068
-0.36521468,0.48699334,-0.05494447,2.5029945,-5.0930405,-2.0736122,2.6472254,8.902814,-3.1468217,1,1683900682.1367598
-0.4923619,0.45185494,-0.003927855,2.5029945,-5.0930405,-2.0736122,2.6472254,8.902814,-3.1468217,1,1683900682.157142
-0.4923619,0.45185494,-0.003927855,1.6944313,-2.6961899,-0.89120865,2.6472254,8.902814,-3.1468217,1,1683900682.1622815
-0.4923619,0.45185494,-0.003927855,1.6944313,-2.6961899,-0.89120865,2.38149,8.86016,-3.4635887,1,1683900682.1674316
-0.4923619,0.45185494,-0.003927855,0.5225754,0.59013367,0.46916962,2.38149,8.86016,-3.4635887,1,1683900682.1776886
-0.4913913,0.43355024,-0.026387904,0.5225754,0.59013367,0.46916962,2.4053993,8.847791,-3.4786563,1,1683900682.1982825
-0.4913913,0.43355024,-0.026387904,0.5225754,0.59013367,0.46916962,2.6448965,8.834736,-3.3350196,1,1683900682.2085302
-0.36789894,0.39498448,-0.17014132,0.5225754,0.59013367,0.46916962,2.6448965,8.834736,-3.3350196,1,1683900682.2238824
-0.36789894,0.39498448,-0.17014132,-1.057167,4.4325447,1.8454361,2.6448965,8.834736,-3.3350196,1,1683900682.229017
-0.36789894,0.39498448,-0.17014132,-1.057167,4.4325447,1.8454361,3.1023417,8.831248,-2.9248781,1,1683900682.2443173
-0.13360773,0.3923002,-0.28191078,-1.057167,4.4325447,1.8454361,3.1023417,8.831248,-2.9248781,1,1683900682.2494276
-0.13360773,0.3923002,-0.28191078,-2.8202248,7.9159355,3.040657,3.1023417,8.831248,-2.9248781,1,1683900682.2648158
-0.13360773,0.3923002,-0.28191078,-2.8202248,7.9159355,3.040657,3.688843,8.806582,-2.237618,1,1683900682.2853394
-0.13360773,0.3923002,-0.28191078,-4.398899,10.48008,4.0270615,3.688843,8.806582,-2.237618,1,1683900682.2904756
0.07946702,0.45673823,-0.19502784,-4.398899,10.48008,4.0270615,3.688843,8.806582,-2.237618,1,1683900682.2956169
0.07946702,0.45673823,-0.19502784,0.098667145,2.4021912,0.945282,3.688843,8.806582,-2.237618,1,1683900682.3058808
-0.1460434,0.40596426,-0.42639214,0.098667145,2.4021912,0.945282,3.688843,8.806582,-2.237618,1,1683900682.3212602
-0.1460434,0.40596426,-0.42639214,-2.5932503,8.067341,2.906475,3.688843,8.806582,-2.237618,1,1683900682.3366575
0.12265826,0.5177489,-0.36610943,-2.5932503,8.067341,2.906475,3.688843,8.806582,-2.237618,1,1683900682.3469176
0.12265826,0.5177489,-0.36610943,-4.169922,10.38208,3.76297,3.688843,8.806582,-2.237618,1,1683900682.3571792
0.12265826,0.5177489,-0.36610943,-4.169922,10.38208,3.76297,2.6627445,8.753966,-3.5282066,1,1683900682.367431
0.12265826,0.5177489,-0.36610943,-4.169922,10.38208,3.76297,2.9675088,8.764087,-3.2488549,1,1683900682.3776488
0.34132907,0.5977922,-0.2511704,-4.169922,10.38208,3.76297,2.9675088,8.764087,-3.2488549,1,1683900682.3981273
0.34132907,0.5977922,-0.2511704,-4.169922,10.38208,3.76297,3.9420323,8.741959,-2.0515673,1,1683900682.4083407
0.34132907,0.5977922,-0.2511704,-5.325756,11.713619,4.297695,3.9420323,8.741959,-2.0515673,1,1683900682.4134912
0.34132907,0.5977922,-0.2511704,-5.325756,11.713619,4.297695,4.5192623,8.641849,-1.0320399,1,1683900682.4391303
0.34132907,0.5977922,-0.2511704,-6.0297775,12.098274,4.499035,4.5192623,8.641849,-1.0320399,1,1683900682.4442616
0.5805036,0.7535112,-0.036639757,-6.0297775,12.098274,4.499035,4.5192623,8.641849,-1.0320399,1,1683900682.4596145
0.5805036,0.7535112,-0.036639757,-6.0297775,12.098274,4.499035,4.757637,8.561248,-0.49020517,1,1683900682.4698792
0.5805036,0.7535112,-0.036639757,-6.2109566,11.952343,4.4734,4.757637,8.561248,-0.49020517,1,1683900682.475007
0.8438518,0.9426548,0.057568096,-6.2109566,11.952343,4.4734,5.2304454,8.221422,1.1050094,1,1683900682.4955454
0.8438518,0.9426548,0.057568096,-5.0658035,7.478142,2.6880455,5.2304454,8.221422,1.1050094,1,1683900682.505756
1.2387302,1.1437489,0.07782915,-5.0658035,7.478142,2.6880455,5.2304454,8.221422,1.1050094,1,1683900682.5108874
1.2387302,1.1437489,0.07782915,-5.0658035,7.478142,2.6880455,5.3090744,8.094413,1.5699066,1,1683900682.5313852
1.5303771,1.2816484,0.3719178,-5.0658035,7.478142,2.6880455,5.3090744,8.094413,1.5699066,1,1683900682.536513
1.5303771,1.2816484,0.3719178,-5.0658035,7.478142,2.6880455,5.3863964,7.807678,2.4894326,1,1683900682.541639
1.5303771,1.2816484,0.3719178,-3.2409286,3.086052,1.0209846,5.3863964,7.807678,2.4894326,1,1683900682.5518992
0.9600193,1.0802965,0.921772,-3.2409286,3.086052,1.0209846,5.3863964,7.807678,2.4894326,1,1683900682.5621688
0.9600193,1.0802965,0.921772,3.7098312,-7.242756,-2.3005867,5.3863964,7.807678,2.4894326,1,1683900682.5723727
0.9600193,1.0802965,0.921772,3.7098312,-7.242756,-2.3005867,5.327899,8.041223,1.7670889,1,1683900682.5775084
0.9600193,1.0802965,0.921772,4.767666,-7.988434,-2.9110146,5.327899,8.041223,1.7670889,1,1683900682.6031613
0.9600193,1.0802965,0.921772,4.767666,-7.988434,-2.9110146,5.115527,8.34632,0.58369815,1,1683900682.6185043
0.8018738,1.027824,0.5608188,4.767666,-7.988434,-2.9110146,5.115527,8.34632,0.58369815,1,1683900682.623624
0.8018738,1.027824,0.5608188,5.012665,-8.067207,-3.1528091,5.115527,8.34632,0.58369815,1,1683900682.638946
0.70034105,0.9999954,0.36703452,5.012665,-8.067207,-3.1528091,5.115527,8.34632,0.58369815,1,1683900682.6594157
0.70034105,0.9999954,0.36703452,4.9009132,-7.828617,-3.550148,5.115527,8.34632,0.58369815,1,1683900682.6747673
0.70034105,0.9999954,0.36703452,4.9009132,-7.828617,-3.550148,4.670824,8.5992985,-0.6370658,1,1683900682.6798966
0.3637891,0.8286712,-0.12767802,4.9009132,-7.828617,-3.550148,4.670824,8.5992985,-0.6370658,1,1683900682.6952422
0.3637891,0.8286712,-0.12767802,4.377804,-7.3662567,-3.3828545,4.670824,8.5992985,-0.6370658,1,1683900682.7055218
0.3637891,0.8286712,-0.12767802,4.377804,-7.3662567,-3.3828545,4.2937417,8.710083,-1.3669795,1,1683900682.7259881
0.030164104,0.6253782,-0.22114277,4.377804,-7.3662567,-3.3828545,4.2937417,8.710083,-1.3669795,1,1683900682.7311256
0.030164104,0.6253782,-0.22114277,4.377804,-7.3662567,-3.3828545,3.9166594,8.769632,-1.980838,1,1683900682.7465105
0.030164104,0.6253782,-0.22114277,3.693943,-6.367035,-2.8076744,3.9166594,8.769632,-1.980838,1,1683900682.7516441
0.030164104,0.6253782,-0.22114277,2.869358,-4.6871567,-1.9212723,3.9166594,8.769632,-1.980838,1,1683900682.7875168
0.030164104,0.6253782,-0.22114277,2.869358,-4.6871567,-1.9212723,3.6057801,8.78524,-2.4470987,1,1683900682.7926192
-0.15483937,0.56142545,-0.20820664,2.869358,-4.6871567,-1.9212723,3.6057801,8.78524,-2.4470987,1,1683900682.7977588
-0.15483937,0.56142545,-0.20820664,2.3836327,-3.5931396,-1.3972282,3.6057801,8.78524,-2.4470987,1,1683900682.8028908
-0.19364779,0.568265,-0.1882034,2.3836327,-3.5931396,-1.3972282,3.6057801,8.78524,-2.4470987,1,1683900682.8080158
-0.19364779,0.568265,-0.1882034,2.3836327,-3.5931396,-1.3972282,3.4942825,8.781484,-2.6164718,1,1683900682.818279
-0.19364779,0.568265,-0.1882034,2.3836327,-3.5931396,-1.3972282,3.4528844,8.793737,-2.63024,1,1683900682.8489492
-0.14214589,0.57704586,-0.140599,2.3836327,-3.5931396,-1.3972282,3.4528844,8.793737,-2.63024,1,1683900682.854078
-0.14214589,0.57704586,-0.140599,3.5159683,-5.198517,-2.317543,3.4528844,8.793737,-2.63024,1,1683900682.8591928
-0.14214589,0.57704586,-0.140599,2.072544,-1.4061737,-0.4384613,3.4528844,8.793737,-2.63024,1,1683900682.8745797
-0.14214589,0.57704586,-0.140599,2.072544,-1.4061737,-0.4384613,3.0471168,8.716312,-3.3032358,1,1683900682.8951418
-0.23683903,0.6214655,-0.29559004,2.072544,-1.4061737,-0.4384613,3.0471168,8.716312,-3.3032358,1,1683900682.900269
-0.055990886,0.58267224,-0.6074829,2.072544,-1.4061737,-0.4384613,3.0471168,8.716312,-3.3032358,1,1683900682.9669156
-0.055990886,0.58267224,-0.6074829,-0.060081482,3.0978012,1.1701202,3.0471168,8.716312,-3.3032358,1,1683900682.972046
0.2295596,0.6192665,-0.78174925,-0.060081482,3.0978012,1.1701202,3.0471168,8.716312,-3.3032358,1,1683900682.977175
0.2295596,0.6192665,-0.78174925,-0.060081482,3.0978012,1.1701202,3.1948514,8.650387,-3.3367836,1,1683900682.9823
0.2295596,0.6192665,-0.78174925,-2.882042,7.1905518,2.3332977,3.1948514,8.650387,-3.3367836,1,1683900682.9925644
0.2295596,0.6192665,-0.78174925,-2.882042,7.1905518,2.3332977,3.7217212,8.630842,-2.797811,1,1683900682.9977002
0.2295596,0.6192665,-0.78174925,-2.882042,7.1905518,2.3332977,3.9409184,8.6292715,-2.4849975,1,1683900683.0182323
0.2510339,0.6414839,-0.6738773,-2.882042,7.1905518,2.3332977,3.9409184,8.6292715,-2.4849975,1,1683900683.0284622
0.2510339,0.6414839,-0.6738773,-3.764038,8.232365,2.6114082,3.9409184,8.6292715,-2.4849975,1,1683900683.033592
0.29959372,0.6597886,-0.28533816,-3.764038,8.232365,2.6114082,3.9409184,8.6292715,-2.4849975,1,1683900683.0591934
0.29959372,0.6597886,-0.28533816,-5.222416,10.626011,3.3399963,3.9409184,8.6292715,-2.4849975,1,1683900683.0643294
0.29959372,0.6597886,-0.28533816,-5.222416,10.626011,3.3399963,4.614999,8.570942,-1.1879064,1,1683900683.084817
0.29959372,0.6597886,-0.28533816,-5.786915,10.626011,3.3399963,4.614999,8.570942,-1.1879064,1,1683900683.0899541
0.29959372,0.6597886,-0.28533816,-5.786915,10.626011,3.3399963,3.0519993,5.432739,7.572386,1,1683900683.1104743
0.29959372,0.6597886,-0.28533816,-3.8609695,6.590805,0.84941864,3.0519993,5.432739,7.572386,1,1683900683.1258638
0.29959372,0.6597886,-0.28533816,-3.8609695,6.590805,0.84941864,2.2201812,4.8977933,8.200781,1,1683900683.1361349
0.48703882,0.5487471,1.4613894,-3.8609695,6.590805,0.84941864,2.2201812,4.8977933,8.200781,1,1683900683.1412337
0.27055186,0.524088,0.8153711,-3.8609695,6.590805,0.84941864,2.2201812,4.8977933,8.200781,1,1683900683.151485
0.27055186,0.524088,0.8153711,-3.8609695,6.590805,0.84941864,3.0519993,5.432739,7.572386,1,1683900683.2077937
0.27055186,0.524088,0.8153711,-2.6338387,5.2464485,0.3114891,3.0519993,5.432739,7.572386,1,1683900683.2129238
0.27055186,0.524088,0.8153711,-1.4769363,5.6108093,-0.39693832,3.0519993,5.432739,7.572386,1,1683900683.2385864
0.49801862,0.5763179,1.358143,-1.4769363,5.6108093,-0.39693832,3.0519993,5.432739,7.572386,1,1683900683.2437127
0.49801862,0.5763179,1.358143,-1.4769363,5.6108093,-0.39693832,1.7565963,4.7497854,8.397874,1,1683900683.248806
0.35182357,0.5170058,1.0933388,-1.4769363,5.6108093,-0.39693832,1.7565963,4.7497854,8.397874,1,1683900683.264192
0.35182357,0.5170058,1.0933388,0.22750854,5.137768,-1.038208,1.7565963,4.7497854,8.397874,1,1683900683.274461
0.35182357,0.5170058,1.0933388,0.22750854,5.137768,-1.038208,1.0176729,4.7236805,8.533556,1,1683900683.2847254
-0.18557976,0.35716182,-0.16818498,0.22750854,5.137768,-1.038208,1.0176729,4.7236805,8.533556,1,1683900683.3308535
-0.18557976,0.35716182,-0.16818498,0.22750854,5.137768,-1.038208,0.38163868,4.9337583,8.466568,1,1683900683.3359818
-0.18557976,0.35716182,-0.16818498,0.22750854,5.137768,-1.038208,0.40907377,4.9752812,8.440949,1,1683900683.3411145
-0.18557976,0.35716182,-0.16818498,1.2055016,1.3039017,-0.8390045,0.40907377,4.9752812,8.440949,1,1683900683.3513315
-0.0847901,0.36105934,0.35555428,1.2055016,1.3039017,-0.8390045,0.40907377,4.9752812,8.440949,1,1683900683.3718064
-0.10773545,0.51847684,0.85636336,1.2055016,1.3039017,-0.8390045,0.40907377,4.9752812,8.440949,1,1683900683.3871799
-0.10773545,0.51847684,0.85636336,1.2055016,1.3039017,-0.8390045,-0.47409832,5.301928,8.236211,1,1683900683.4075766
-0.10773545,0.51847684,0.85636336,0.3745079,0.034046173,-0.23605347,-0.47409832,5.301928,8.236211,1,1683900683.4127042
-0.02987596,0.51213765,0.9903502,0.3745079,0.034046173,-0.23605347,-0.47409832,5.301928,8.236211,1,1683900683.4229505
-0.02987596,0.51213765,0.9903502,0.42564392,0.09479523,-0.17850876,-0.47409832,5.301928,8.236211,1,1683900683.4434469
-0.02987596,0.51213765,0.9903502,0.42564392,0.09479523,-0.17850876,-0.49424645,5.3480206,8.205168,1,1683900683.448573
-0.02987596,0.51213765,0.9903502,0.42564392,0.09479523,-0.17850876,-0.59018797,5.4049473,8.16141,1,1683900683.5050583
-0.02987596,0.51213765,0.9903502,0.3372574,0.7435417,-0.20734787,-0.59018797,5.4049473,8.16141,1,1683900683.5101855
-0.007673724,0.5392232,0.9993888,0.3372574,0.7435417,-0.20734787,-0.59018797,5.4049473,8.16141,1,1683900683.5152757
-0.007673724,0.5392232,0.9993888,0.29253006,0.92365265,-0.22857666,-0.59018797,5.4049473,8.16141,1,1683900683.52554
-0.04134105,0.5333693,0.9769288,0.29253006,0.92365265,-0.22857666,-0.59018797,5.4049473,8.16141,1,1683900683.5460618
-0.04134105,0.5333693,0.9769288,0.29253006,0.92365265,-0.22857666,-0.68422985,5.423483,8.141747,1,1683900683.5511892
-0.04134105,0.5333693,0.9769288,0.21469116,1.25597,-0.26489258,-0.68422985,5.423483,8.141747,1,1683900683.5665667
-0.04134105,0.5333693,0.9769288,0.21469116,1.25597,-0.26489258,-0.74237967,5.430487,8.131979,1,1683900683.5767877
-0.06600009,0.53044236,0.93446547,0.21469116,1.25597,-0.26489258,-0.74237967,5.430487,8.131979,1,1683900683.58705
-0.06600009,0.53044236,0.93446547,0.117759705,1.4583778,-0.23925781,-0.74237967,5.430487,8.131979,1,1683900683.6074903
-0.06600009,0.53044236,0.93446547,0.117759705,1.4583778,-0.23925781,-0.93767875,5.4452367,8.101885,1,1683900683.6177468
-0.1477571,0.5475187,0.756059,0.117759705,1.4583778,-0.23925781,-0.93767875,5.4452367,8.101885,1,1683900683.6228733
-0.1990012,0.55337256,0.6774715,0.117759705,1.4583778,-0.23925781,-0.93767875,5.4452367,8.101885,1,1683900683.6638885
-0.1990012,0.55337256,0.6774715,0.117759705,1.4583778,-0.23925781,-1.573257,5.7725515,7.7699995,1,1683900683.669023
