acc_x,acc_y,acc_z,gyr_x,gyr_y,gyr_z,grav_x,grav_y,grav_z,label,timestamp
0.67277026,-1.5481966,2.4107625,12.455959,-13.472004,-14.567623,1.8297287,9.127311,3.0845876,1,1683807262.344704
-0.052578658,-1.5613754,2.2496903,12.455959,-13.472004,-14.567623,1.8297287,9.127311,3.0845876,1,1683807262.3603292
-0.052578658,-1.5613754,2.2496903,11.366215,-11.421356,-14.120216,0.79422307,9.588733,1.8962604,1,1683807262.3759542
-1.4830003,-1.38444,1.7957424,9.994221,-8.24585,-12.293205,-1.541485,9.684549,0.06095424,1,1683807262.3915792
-1.4830003,-1.38444,1.7957424,8.690319,-4.803982,-8.915291,-3.4654307,9.043052,-1.5441527,1,1683807262.4072042
-3.3473513,-1.1047432,0.68967974,8.690319,-4.803982,-8.915291,-3.4654307,9.043052,-1.5441527,1,1683807262.4072042
-4.6401157,-0.643971,-1.1441735,8.690319,-4.803982,-8.915291,-3.4654307,9.043052,-1.5441527,1,1683807262.4228294
-1.4830003,-1.38444,1.7957424,3.5653687,2.5825691,-1.3316727,-0.970407,9.747403,0.46564168,1,1683807262.4540796
-4.6755123,-0.44017756,-1.7853086,3.5653687,2.5825691,-1.3316727,-0.970407,9.747403,0.46564168,1,1683807262.4697044
-0.49871624,-0.93170536,2.5232751,-16.641636,15.303955,7.7848244,0.96227103,6.663321,7.1305385,1,1683807262.4853294
0.2978952,-0.49387845,3.3357496,-4.1972923,1.4609146,2.8239632,0.18271518,4.7990985,8.550184,1,1683807262.5322044
0.86167127,-1.2682725,2.8417802,10.600376,-11.372356,-12.723656,2.2064667,8.479114,4.4052844,1,1683807262.547829
0.089461066,-1.1550168,2.445173,10.600376,-11.372356,-12.723656,0.7356096,9.57873,1.9690609,1,1683807262.5634542
0.089461066,-1.1550168,2.445173,10.600376,-11.372356,-12.723656,-0.31770843,9.745101,1.0499809,1,1683807262.6103296
-3.693427,-0.1802567,-2.4135075,3.9627075,1.5758705,-1.2634468,-3.9236786,8.662382,-2.3954706,1,1683807262.6259553
-2.73867,-0.043828186,-2.9882634,-3.8478851,6.1938667,4.713726,-3.3526864,8.804205,-2.7232082,1,1683807262.641713
-2.73867,-0.043828186,-2.9882634,-15.452824,13.957462,10.46299,-0.37443006,9.799492,-0.012850353,1,1683807262.7209752
-0.04037046,-0.9082747,4.7276053,-11.696663,11.779041,9.914379,0.7787282,4.590505,8.630831,1,1683807262.7366002
0.2676249,-0.6603194,4.496241,-10.031738,11.292248,9.528656,-0.18556139,3.1190956,9.2955475,1,1683807262.752225
0.2676249,-0.6603194,4.496241,-6.82312,9.724121,8.216343,-0.4979222,2.8025587,9.384462,1,1683807262.783475
1.4300728,0.040127814,3.6600933,1.2483597,0.5691719,1.5211296,-0.07293509,3.2939188,9.236621,1,1683807262.7990997
3.0147424,1.5652425,2.395142,7.126465,-10.564861,-5.4595375,-0.07293509,3.2939188,9.236621,1,1683807262.814725
3.1116345,1.1945229,1.0638117,7.126465,-10.564861,-5.4595375,0.46862075,3.6852312,9.075784,1,1683807262.8303504
2.5490716,0.17851266,2.6846054,9.9131775,-18.819656,-10.451374,1.6768736,4.6111317,8.490933,1,1683807262.8772254
2.7460256,-0.03309104,4.4952555,11.34285,-20.878849,-13.1017685,1.6768736,4.6111317,8.490933,1,1683807262.89285
0.99858505,-1.9433327,2.4810545,11.341782,-13.581753,-16.147366,1.6172483,9.456803,2.0307062,1,1683807262.9084747
-4.734809,-0.5934397,-2.1706781,-2.2722816,8.593922,4.3344116,-3.734107,8.83557,-2.0394888,1,1683807262.9240997
-4.734809,-0.5934397,-2.1706781,-4.4603157,10.228004,6.5587616,-3.734107,8.83557,-2.0394888,1,1683807262.9397247
-0.17167303,-1.4156808,0.6694187,-13.767605,13.241558,11.702938,-0.038350012,9.802775,0.27298072,1,1683807262.9553497
-0.298335,-1.6565537,1.5841388,-16.168728,15.428658,11.285305,1.5800966,8.996767,3.568172,1,1683807262.9866
-0.72031397,-1.7097694,3.207374,-15.7063675,15.2986145,11.172352,1.8233391,7.4715548,6.084545,1,1683807263.002225
1.7048861,0.008401666,3.779203,-7.177868,10.132141,9.555359,0.80969,4.3079524,8.772475,1,1683807263.033475
1.7048861,0.008401666,3.779203,-7.177868,10.132141,9.555359,0.7351073,4.1793585,8.840982,1,1683807263.0490997
4.6933618,2.5949168,1.1670581,5.2495193,-6.2538147,-3.32798,0.7351073,4.1793585,8.840982,1,1683807263.0490997
4.411724,1.9132596,0.75630164,10.96674,-22.614136,-12.898293,2.6639347,6.034531,7.256602,1,1683807263.0647247
-0.68418986,-1.4732792,2.521319,9.003544,-10.995312,-13.33395,0.7363328,9.764638,0.5291853,1,1683807263.1116
-2.216144,-1.486458,1.9490045,8.849068,-9.803295,-12.609634,0.11892732,9.805362,0.10552949,1,1683807263.1272256
-4.3711715,-0.6693429,-0.17575255,8.849068,-9.803295,-12.609634,0.11892732,9.805362,0.10552949,1,1683807263.1428509
-4.3711715,-0.6693429,-0.17575255,6.8985558,-3.2923317,-5.1890373,-2.2775087,9.396748,-1.6384373,1,1683807263.158476
-4.5695815,-0.52413356,-0.7936996,6.8985558,-3.2923317,-5.1890373,-2.2775087,9.396748,-1.6384373,1,1683807263.1741028
-4.5695815,-0.52413356,-0.7936996,6.8985558,-3.2923317,-5.1890373,-2.4829807,9.296295,-1.8931717,1,1683807263.1897264
-0.12993768,-1.3197592,0.21962623,-9.908104,13.70285,10.843239,-0.3592444,9.678145,-1.5410469,1,1683807263.2053525
-0.12993768,-1.3197592,0.21962623,-15.294075,16.797447,12.295208,1.5214988,9.668595,0.6112933,1,1683807263.2209754
0.18294097,-1.3461168,0.87589645,-15.294075,16.797447,12.295208,1.5214988,9.668595,0.6112933,1,1683807263.2209754
-0.340313,-1.3309816,2.7519553,-17.953014,19.013252,10.9326935,2.57011,7.5604744,5.6924634,1,1683807263.2366016
-0.22024801,-0.85386103,4.347362,-11.707344,13.836098,9.6118355,0.6238127,3.5933774,9.103235,1,1683807263.26785
3.2919822,1.1720628,3.223965,-3.5954094,5.9371185,6.2530136,0.6238127,3.5933774,9.103235,1,1683807263.2834747
3.581688,1.9957597,1.1760817,5.786381,-7.2764015,-3.2182312,1.1873188,4.08237,8.837132,1,1683807263.2990997
2.493187,0.8977499,1.0935967,8.120346,-13.103504,-7.2257996,1.9754204,4.846681,8.293238,1,1683807263.314725
-0.48602274,-0.24639326,1.0555162,8.2354355,-10.994244,-9.864445,2.8765626,9.051341,2.4431558,1,1683807263.377225
-0.48602274,-0.24639326,1.0555162,7.620735,-9.1950035,-9.213562,1.7958964,9.583858,1.0463347,1,1683807263.408475
-2.6949785,-0.1255852,0.2762389,5.83004,-5.3930473,-5.7663536,0.32494098,9.793845,-0.38130483,1,1683807263.4241002
-3.6192224,-0.11557599,-0.6638681,3.3160973,-0.9327316,-2.3542595,-0.09353716,9.774233,-0.791208,1,1683807263.4553497
-3.6192224,-0.11557599,-0.6638681,1.4475632,1.9019127,-0.2909279,-0.09353716,9.774233,-0.791208,1,1683807263.470975
-3.6192224,-0.11557599,-0.6638681,1.4475632,1.9019127,-0.2909279,0.6202608,4.1375675,8.869396,1,1683807263.4866
-0.60243285,-1.2477688,4.677089,-16.54684,18.535938,9.849358,0.6202608,4.1375675,8.869396,1,1683807263.4866
1.4823027,0.3029756,3.6491137,0.8936119,2.0020485,3.2606888,-2.3013105,1.8054813,9.360267,1,1683807263.51785
1.4823027,0.3029756,3.6491137,4.787159,-3.8813972,-0.25154114,-2.000152,2.2153475,9.341414,1,1683807263.533475
2.2886655,1.386836,0.7201775,4.787159,-3.8813972,-0.25154114,-2.000152,2.2153475,9.341414,1,1683807263.533475
1.6611944,1.0058645,-0.0998494,6.8463516,-8.953209,-3.4313202,-1.2970642,2.8030877,9.307562,1,1683807263.5491009
0.91462904,0.25123104,0.39924598,6.961441,-14.018478,-6.150875,0.2045923,3.7513146,9.058486,1,1683807263.5647247
1.4962094,0.5543583,2.4554248,7.588825,-16.123466,-8.075886,3.979614,6.96764,5.6378236,1,1683807263.595975
0.88972735,0.113104016,1.7754813,7.8348923,-12.579327,-9.471378,3.8038483,8.384952,3.3754544,1,1683807263.6116
0.5849016,0.03475924,1.6153796,7.5611877,-11.762218,-9.369106,3.334123,8.914088,2.364964,1,1683807263.6272252
-2.5627053,-0.21149755,0.751661,6.8707848,-9.9640465,-8.717155,1.9111557,9.601773,0.56905764,1,1683807263.689725
0.10899418,-0.6300491,1.4748108,-13.28722,19.455318,10.53215,2.9503522,8.434142,4.04117,1,1683807263.70535
0.54292357,-0.47630167,2.356349,-14.562283,20.485382,10.31599,2.568809,6.829906,6.5516405,1,1683807263.7209747
1.0576394,0.5799728,2.0429697,-6.4897346,12.507629,5.3432465,-1.916266,2.7577798,9.213738,1,1683807263.752225
1.0576394,0.5799728,2.0429697,-2.5865746,6.1927986,3.0295753,-1.916266,2.7577798,9.213738,1,1683807263.7678502
1.6062803,1.2096428,1.4626027,-2.5865746,6.1927986,3.0295753,-1.916266,2.7577798,9.213738,1,1683807263.7678502
1.8168982,1.4258871,0.47222218,3.7432098,-5.6380463,-1.5043068,-2.1816165,2.8177607,9.136255,1,1683807263.783475
1.1274459,0.80866796,0.6635648,6.655693,-13.837433,-5.165539,-0.75782907,3.5701876,9.102188,1,1683807263.7991
1.2209107,0.5035843,1.369138,7.0412827,-15.466175,-5.837784,-0.15276775,3.8787317,9.005692,1,1683807263.8459747
1.6018823,0.6722395,1.6053855,7.654915,-18.681202,-7.5741386,-0.15276775,3.8787317,9.005692,1,1683807263.8616
1.773707,0.7486279,1.7601187,7.654915,-18.681202,-7.5741386,3.2594094,6.061622,6.985941,1,1683807263.8772247
1.773707,0.7486279,1.7601187,7.654915,-18.681202,-7.5741386,4.231372,7.9359956,3.9097118,1,1683807263.89285
1.6104356,0.41694406,2.3553631,7.3023033,-16.800919,-9.466038,4.231372,7.9359956,3.9097118,1,1683807263.89285
-0.7842516,-0.20271674,2.1320517,5.7694244,-10.711861,-8.517952,3.465097,8.978546,1.883933,1,1683807263.9084754
-0.9597311,-0.29642412,-0.05762876,-7.505913,16.811333,7.792301,2.8618305,8.983332,2.6981611,1,1683807263.9240997
0.38673446,-0.0848356,1.0001167,-11.72657,18.376255,9.457359,2.9712708,8.723572,3.3527946,1,1683807263.9397247
0.58710057,-0.0038065312,1.2024392,-12.140865,18.154621,9.232521,2.4327545,6.5335474,6.896728,1,1683807263.95535
1.5120724,1.1684079,1.2441746,-9.856968,12.947559,5.888653,-0.26018563,3.330971,9.219942,1,1683807264.002225
-1.4507736,-0.097771734,1.3493621,3.480053,-2.1801567,-3.953228,3.7455406,8.73321,2.423296,1,1683807264.1116006
-1.4507736,-0.097771734,1.3493621,1.9781494,2.346115,-1.2315369,3.7455406,8.73321,2.423296,1,1683807264.1272252
-1.8075867,-0.1360797,0.7462924,1.9781494,2.346115,-1.2315369,3.5092363,8.867943,2.2836883,1,1683807264.1428494
-1.5049598,-0.07359799,0.12907325,-0.007610321,6.492138,1.5615845,3.4223578,8.860592,2.4388027,1,1683807264.1584747
-0.1924194,0.32128033,0.06146562,-8.431702,14.698868,6.0388565,3.4283023,8.804072,2.6278207,1,1683807264.252225
0.79137933,0.6314747,0.9510565,-8.732109,12.181721,3.8306618,-1.0233909,2.802271,9.341859,1,1683807264.26785
0.096543334,0.47064495,0.9986457,0.17463684,-4.729347,-1.5308762,-0.5732838,2.6138208,9.434494,1,1683807264.2834754
0.5849016,0.6480657,0.9588667,0.89040756,-6.2739754,-2.215805,-0.29283926,2.6543362,9.436055,1,1683807264.2991002
1.5391731,0.4757709,2.4217575,2.9410553,-10.102634,-3.961773,1.7834461,3.3979874,9.024599,1,1683807264.314725
-0.44745696,-0.19099383,1.4833491,8.997135,-10.546837,-8.239841,4.069893,7.966359,4.0178976,1,1683807264.3459747
-1.2506502,-0.09752909,0.90445304,7.2607803,-5.4037285,-5.429764,3.7830446,8.470163,3.1804538,1,1683807264.3615997
-1.2506502,-0.09752909,0.90445304,1.988697,4.014244,-0.20040512,3.3158205,8.9001465,2.4419456,1,1683807264.377225
-1.7172915,-0.13022582,-0.68485713,1.988697,4.014244,-0.20040512,3.3158205,8.9001465,2.4419456,1,1683807264.377225
-1.5020329,0.025477977,-1.5561433,-1.7290115,9.048672,2.534237,3.2483249,8.838325,2.7391224,1,1683807264.39285
-0.29052475,0.08551804,0.5913165,-11.507072,12.744083,5.866356,3.1198184,8.082882,4.5939245,1,1683807264.4241002
-0.29052475,0.08551804,0.5913165,-11.507072,12.744083,5.866356,1.9031562,5.508089,7.8872895,1,1683807264.4397247
-0.31151375,-0.14243403,1.4787084,-10.908394,10.959797,5.64579,1.9031562,5.508089,7.8872895,1,1683807264.4397247
0.16610731,0.14190324,2.953307,-6.7028236,6.882,5.008793,0.93555385,3.8652413,8.964097,1,1683807264.4553497
1.9516282,1.1947654,-0.20308071,3.0018044,0.28158188,-0.04699707,0.3629167,3.2654305,9.239895,1,1683807264.502225
1.9516282,1.1947654,-0.20308071,4.08514,-3.530922,-2.6174164,0.58755475,4.2216167,8.831937,1,1683807264.5178502
1.9516282,1.1947654,-0.20308071,5.757675,-13.464527,-7.3376846,1.618197,5.0205054,8.267185,1,1683807264.533475
1.8166556,0.61853856,0.6977326,5.757675,-13.464527,-7.3376846,1.618197,5.0205054,8.267185,1,1683807264.533475
1.3573393,0.21560737,3.1060839,8.929977,-17.337914,-10.332012,3.7732704,7.703297,4.753107,1,1683807264.564725
0.659091,-0.17024748,2.0295484,8.503933,-13.733025,-10.451374,3.3636522,8.733951,2.9281983,1,1683807264.58035
-2.3008282,-0.7779579,1.0930963,6.077175,-7.8474426,-7.9117966,2.0261967,9.53051,1.1109867,1,1683807264.595975
-4.0160723,-1.0334808,0.17666247,3.3905983,-2.1717453,-4.106636,1.4818658,9.671677,0.65813625,1,1683807264.6115997
-2.856066,-0.9724701,-0.9677233,-7.905388,14.318619,7.85305,1.5923247,9.59931,1.2198937,1,1683807264.6428502
-2.856066,-0.9724701,-0.9677233,-13.026199,16.676083,11.4611435,1.5923247,9.59931,1.2198937,1,1683807264.658475
0.77233154,-0.3262091,5.206682,-13.000565,15.486069,10.323334,1.9012041,4.9641657,8.240926,1,1683807264.6741
2.7050333,1.6294228,-0.103018984,5.8194923,-5.408001,-1.7929649,-0.24213843,3.6589253,9.095275,1,1683807264.7209756
1.8681575,1.1159354,-0.0107674785,7.9382324,-13.329277,-5.5213547,0.64038736,4.36517,8.758172,1,1683807264.7366002
1.7658968,0.64782304,2.1415756,9.476452,-22.196503,-9.019699,2.9953318,6.090276,7.0786247,1,1683807264.76785
1.8369167,0.5365389,1.9040996,7.8764153,-18.12191,-10.19783,4.0519667,8.477317,2.8083901,1,1683807264.7834752
-0.8015857,-0.25640246,1.7942865,5.075817,-11.051788,-9.135723,2.7895324,9.366856,0.8067853,1,1683807264.7991004
-3.4598637,-0.49898922,-0.0903255,4.213047,-8.441849,-7.9543877,1.6631769,9.658109,0.35379303,1,1683807264.8772247
1.3268415,-0.24713637,2.8835003,-9.298744,13.657055,10.636559,3.3479142,6.5562434,6.4790072,1,1683807264.89285
2.0172794,0.4972452,3.5353878,-5.7429886,12.984943,7.7336884,2.7351415,5.3692784,7.73694,1,1683807264.9084747
1.6406907,0.4884644,2.2526171,3.3160973,-2.6734924,-2.9317093,2.3548872,5.9278245,7.448878,1,1683807264.970975
1.936493,0.4552672,2.5393808,9.797153,-21.113167,-10.810394,3.7360682,8.451347,3.284341,1,1683807264.9866002
-0.8469759,-0.46189448,1.9070265,6.401081,-12.405624,-9.949627,3.2831383,9.05031,1.8663526,1,1683807265.01785
-0.8469759,-0.46189448,1.9070265,6.401081,-12.405624,-9.949627,2.031673,9.588267,0.32836363,1,1683807265.049098
-0.8469759,-0.46189448,1.9070265,6.401081,-12.405624,-9.949627,2.2563305,9.175373,2.6252406,1,1683807265.0647247
-0.7227556,-0.4714184,0.72237647,-9.562969,13.591099,9.048271,2.2563305,9.175373,2.6252406,1,1683807265.0647247
-0.7227556,-0.4714184,0.72237647,-9.917717,12.994423,9.457359,2.867646,7.8615274,5.113059,1,1683807265.2053497
-0.39302814,-0.5800183,1.1097023,-9.917717,12.994423,9.457359,2.867646,7.8615274,5.113059,1,1683807265.2053497
0.75037193,-0.2676249,2.3046043,-9.47031,12.727127,9.1207695,2.57072,6.3531404,7.014229,1,1683807265.220975
2.191288,1.0546669,2.4642208,-9.47031,12.727127,9.1207695,2.57072,6.3531404,7.014229,1,1683807265.2366
2.7575057,1.7470613,0.7685098,-9.47031,12.727127,9.1207695,2.57072,6.3531404,7.014229,1,1683807265.2522247
2.7575057,1.7470613,0.7685098,0.6699753,4.2007637,1.362381,2.57072,6.3531404,7.014229,1,1683807265.2678497
2.7575057,1.7470613,0.7685098,3.9616394,-3.118763,-2.1008492,2.57072,6.3531404,7.014229,1,1683807265.2834747
-3.6836605,-0.728655,-0.031271182,-1.2165833,2.0627975,-1.1100388,0.9277526,9.668106,1.3555044,1,1683807265.2991
-3.6836605,-0.728655,-0.031271182,-1.2165833,2.0627975,-1.1100388,1.9709866,6.03139,7.4771614,1,1683807265.314725
1.80422,0.57924485,2.6567767,-5.2401733,12.17104,8.681774,1.9709866,6.03139,7.4771614,1,1683807265.314725
2.9427366,1.6499265,0.5029777,5.1153374,-11.610947,-5.8867836,1.1304812,5.6137047,7.9610753,1,1683807265.39285
2.9427366,1.6499265,0.5029777,8.8565445,-20.792465,-10.328941,2.6961834,9.175588,2.1701572,1,1683807265.408475
1.9245275,0.5924236,2.8644676,8.8565445,-20.792465,-10.328941,2.6961834,9.175588,2.1701572,1,1683807265.408475
-0.04402534,-0.42651346,1.6695658,5.993061,-11.00172,-9.776058,1.9311327,9.532003,1.2577873,1,1683807265.4241
-0.04402534,-0.42651346,1.6695658,5.993061,-11.00172,-9.776058,0.42401168,9.796064,0.16650921,1,1683807265.4554071
-3.020308,-0.4841119,1.0804179,3.7699127,-5.1512527,-5.7141495,0.42401168,9.796064,0.16650921,1,1683807265.4554071
-3.1091473,-0.16780584,-0.078132465,-1.6800117,6.126709,2.2327614,0.105498016,9.805852,0.06739833,1,1683807265.470975
-0.65442,-0.49436375,1.3525318,-7.917137,13.286419,9.506359,1.7249428,9.424044,2.093409,1,1683807265.4866
-0.2631966,-0.59051275,1.7596183,-7.917137,13.286419,9.506359,1.7249428,9.424044,2.093409,1,1683807265.502225
2.4336321,1.349256,1.2488152,-5.0718117,12.726059,6.3052177,2.1870725,6.4740005,7.0338054,1,1683807265.5490994
2.092197,1.7043554,0.3628792,1.251564,-4.5450974,-2.7644157,1.6505994,6.000657,7.5787873,1,1683807265.5647247
1.7187929,1.3316792,0.60132575,2.7503967,-8.173351,-4.0789986,2.709257,6.8332577,6.4912944,1,1683807265.58035
1.4718081,1.0065924,1.1187259,5.501995,-14.913292,-6.281986,2.709257,6.8332577,6.4912944,1,1683807265.595975
1.4976804,0.98364705,1.2004828,5.501995,-14.913292,-6.281986,3.480172,7.9225955,4.614247,1,1683807265.6116738
1.5516088,0.8601547,1.169985,5.716152,-15.737877,-7.579479,3.4621587,8.387195,3.7200556,1,1683807265.6272252
-1.9623199,-0.7657497,0.94423205,1.0416794,-4.2414856,-4.302635,2.7885509,8.983666,2.7727458,1,1683807265.6584747
-2.4099286,-0.49484903,0.5525233,-5.0867653,8.010063,2.8378487,2.5856209,8.782945,3.5135212,1,1683807265.6741
-1.4573706,-0.34913927,1.1328903,-7.5730705,11.689587,8.289776,2.4446957,7.198594,6.1946826,1,1683807265.70535
1.5003647,0.22023284,3.1932094,-3.0883217,12.541809,7.698574,1.6459007,5.627236,7.861018,1,1683807265.720975
1.6648493,0.33030376,2.7841818,-2.2680092,12.411766,7.224598,0.20292671,5.1132526,8.365635,1,1683807265.7366
1.8117723,1.0676031,0.28552017,9.089794,-18.802567,-7.4282074,0.5187616,6.2311664,7.5547233,1,1683807265.7834752
2.2793994,0.83770984,3.0536113,11.798801,-26.853886,-10.504646,2.3974695,7.83951,5.381878,1,1683807265.7991
2.307698,0.5968216,3.149533,11.812553,-24.895897,-11.401596,2.6993325,8.959272,2.9352055,1,1683807265.814725
0.96149033,-0.42772672,2.1793983,8.957748,-17.113075,-12.347546,1.115336,9.739048,0.2781098,1,1683807265.8303502
-4.5200357,-0.57343644,-0.6404375,1.431675,1.7708015,-0.7990837,-2.3667905,9.414989,-1.3880408,1,1683807265.877225
-2.5160868,-1.0664353,-0.65093195,-6.441803,11.1878395,9.197407,-0.68611056,9.734379,-0.97031075,1,1683807265.8928497
-1.3765842,-1.6011543,0.25843465,-9.594879,13.338623,11.6975975,-0.08528504,9.792117,-0.5268266,1,1683807265.908475
0.3008221,-1.8798804,1.9170358,-9.594879,13.338623,11.6975975,-0.08528504,9.792117,-0.5268266,1,1683807265.9553497
0.74768764,-1.7734643,2.22723,-9.594879,13.338623,11.6975975,-0.08528504,9.792117,-0.5268266,1,1683807265.970975
1.5567347,-0.66056204,3.633736,-12.734337,15.494614,13.750381,1.7494967,9.539643,1.4508065,1,1683807265.9866
4.1271443,1.5940417,3.4365394,-7.506981,15.3125,7.8892326,1.6635381,4.9561768,8.296947,1,1683807266.002225
3.9987836,1.762439,0.82903516,8.59766,-11.334038,-6.280918,1.8868545,5.618757,7.8127933,1,1683807266.033475
-0.9763373,-1.1459934,2.0561485,7.138214,-8.334236,-11.646595,0.509563,9.793351,-0.031698346,1,1683807266.0490997
-3.9081852,-0.9029061,0.115651816,6.442604,-3.1378555,-6.803894,-1.4390345,9.620163,-1.2458006,1,1683807266.0647247
-3.9081852,-0.9029061,0.115651816,-3.3833885,7.128067,5.6192207,-1.5008432,9.477519,-2.023481,1,1683807266.095975
-1.4744469,-1.4891423,-0.21894377,-12.328453,12.46397,11.061668,0.489132,9.786205,-0.4016325,1,1683807266.1115997
0.2212641,-1.668762,2.8739917,-14.360943,13.56226,12.905636,3.119448,8.10701,4.5514646,1,1683807266.1428497
2.6901407,0.19510368,5.337257,-9.609833,11.675701,10.825081,3.3001218,7.536167,5.337205,1,1683807266.189725
6.297064,3.1560085,3.3220704,1.5275383,2.1383667,1.260109,3.0137503,4.9359508,7.9198546,1,1683807266.2053497
2.627659,-0.74231905,2.9320753,10.736694,-20.97044,-14.442921,3.885623,7.716696,4.639496,1,1683807266.220975
1.9174604,-1.0786283,4.1767654,9.890881,-19.734764,-14.94894,3.4917488,8.60777,3.1439443,1,1683807266.2366
-2.8087194,0.061844755,-3.151292,0.87451935,1.65905,0.7904053,-3.2043974,8.857873,-2.7276957,1,1683807266.3147247
-2.3459756,-0.8387259,-1.1788266,-6.24794,4.8867607,5.224018,-2.552219,9.027284,-2.8573964,1,1683807266.3459756
-2.3064394,-1.0822984,-0.60651237,-10.458851,7.8694725,8.075619,-1.404295,9.53208,-1.8269677,1,1683807266.3616
-1.0246545,-1.8369167,1.4845623,-13.70472,11.434975,11.709347,1.1085631,9.654751,1.3142576,1,1683807266.39285
0.1438899,-1.6868241,2.8039424,-13.371334,11.560612,12.336731,2.6803887,8.355516,4.3784995,1,1683807266.4084747
0.1438899,-1.6868241,2.8039424,-10.80719,12.194538,10.323334,2.7249968,5.31455,7.778198,1,1683807266.4241002
4.9779267,1.4883689,4.708573,-10.80719,12.194538,10.323334,2.7249968,5.31455,7.778198,1,1683807266.4241002
4.9823246,1.6050216,2.603819,7.0828056,-6.4476776,-6.8370056,2.5029185,5.5712953,7.6724477,1,1683807266.4397247
3.9990263,0.47381455,2.4847245,9.732132,-11.753674,-9.888878,2.6918473,6.0402675,7.241513,1,1683807266.4553494
2.0316715,-1.4051863,3.5153694,12.30896,-19.582424,-14.472828,3.0450652,7.6660237,5.303776,1,1683807266.4709747
-0.27222005,-1.7456357,3.0289674,9.886608,-9.428253,-13.749447,0.26913658,9.756698,0.951201,1,1683807266.502225
-1.5911149,-1.5340472,1.470413,9.504223,-5.484638,-11.794662,-1.5797703,9.673328,-0.31849352,1,1683807266.51785
-2.0860548,-1.2421576,0.5871764,8.981113,-3.9697838,-10.070057,-2.6665945,9.375123,-1.0801533,1,1683807266.533475
-3.0476513,-0.8299451,-1.0262923,6.3786507,-0.39266586,-6.02417,-4.2232585,8.538391,-2.3303132,1,1683807266.5490997
-3.4188564,-0.7291403,-1.5378386,5.4242897,0.58626175,-4.717064,-4.642747,8.027188,-3.1905408,1,1683807266.6116
-0.9436254,-2.0380259,1.0359982,-14.123421,10.691433,11.489849,0.22497635,9.79465,0.42967248,1,1683807266.6272254
-0.3266489,-2.0416808,1.4701703,-14.53558,11.009865,11.978779,1.2404305,9.529787,1.953171,1,1683807266.6428502
5.7906437,2.6195607,6.09506,3.6623,-4.7581863,-3.5900688,2.342597,8.474689,4.3430715,1,1683807266.689725
2.9298005,-0.36842975,2.6816633,12.561436,-13.72982,-11.616821,2.9971802,7.7113886,5.2651496,1,1683807266.70535
2.9298005,-0.36842975,2.6816633,9.32518,-2.914219,-8.023682,-2.9983182,9.14919,-1.8635478,1,1683807266.7678497
-1.7785448,-1.4388688,2.2870276,9.32518,-2.914219,-8.023682,-2.9983182,9.14919,-1.8635478,1,1683807266.7678497
-2.286436,-0.4084514,-1.5190486,6.473446,1.6792107,-3.9735222,-4.049519,8.316971,-3.25573,1,1683807266.7834754
-2.286436,-0.4084514,-1.5190486,4.336548,3.6680412,-1.9857597,-4.1863837,7.996721,-3.833672,1,1683807266.8303506
-2.67082,0.08893027,-3.6394076,3.026371,4.399967,-0.8203125,-4.1566963,7.8922696,-4.074842,1,1683807266.8459747
-2.1470807,0.053306602,-3.1537337,-5.370083,7.0929527,4.724407,-3.6730483,7.9135985,-4.4781747,1,1683807266.8616
-2.6329973,-0.34865397,-2.7459192,-5.370083,7.0929527,4.724407,-3.6730483,7.9135985,-4.4781747,1,1683807266.8772256
-2.6329973,-0.34865397,-2.7459192,-1.8749428,6.0616875,2.8293037,-3.6730483,7.9135985,-4.4781747,1,1683807266.89285
-1.7555994,-0.0060055233,-2.7861836,-6.9530296,7.5307465,5.477562,-2.6898234,8.419985,-4.2472453,1,1683807266.908475
3.8186634,1.598182,4.8781834,-4.2292023,-4.8348236,0.3280449,2.8363464,7.851148,5.146357,1,1683807266.9241
3.8186634,1.598182,4.8781834,-1.3573074,-6.3762474,-1.5766716,2.9707916,7.815009,5.1254663,1,1683807266.9553506
2.6991642,-0.37281257,3.5563767,10.217857,-9.45282,-10.684757,2.5025284,8.89746,3.2776413,1,1683807266.9709747
1.5316056,-1.1486776,2.7119336,11.744461,-10.238953,-12.58934,0.11475864,9.799173,0.36525026,1,1683807267.01785
-1.2272196,-1.3185459,1.6742064,11.744461,-10.238953,-12.58934,0.11475864,9.799173,0.36525026,1,1683807267.033475
-1.2272196,-1.3185459,1.6742064,1.701107,6.9970894,0.32697678,-4.1011567,7.673745,-4.5237737,1,1683807267.0490997
-3.6468084,-0.5890569,-3.468326,1.701107,6.9970894,0.32697678,-4.1011567,7.673745,-4.5237737,1,1683807267.0490997
-1.9466994,0.037443526,-3.8351483,-1.7482376,8.080425,3.261757,-2.8530562,8.052683,-4.815054,1,1683807267.0803497
-0.9572895,0.062330052,-3.1451955,-5.085697,8.008995,5.3528595,-3.594011,7.7437444,-4.8257546,1,1683807267.1116
-0.9572895,0.062330052,-3.1451955,-9.534264,7.4209976,6.2508774,-1.5973371,8.747262,-4.1357355,1,1683807267.158475
-0.47942576,-0.5373123,-1.0885314,-12.385998,8.230629,6.2189674,-0.36018747,9.414592,-2.7214148,1,1683807267.1741133
-0.6307467,-0.6241953,-0.1942999,-13.2221985,8.478832,6.0709,0.39072925,9.684579,-1.492194,1,1683807267.1897252
-0.6307467,-0.6241953,-0.1942999,-12.753429,4.981556,5.266609,2.55624,8.038352,5.002093,1,1683807267.20535
2.7077174,-0.20173098,2.0124722,-7.145958,-3.5970116,-0.3484726,2.966493,7.4837213,5.6003776,1,1683807267.2209747
4.2948136,0.68590355,7.176236,3.753891,-9.235458,-7.7061844,2.966493,7.4837213,5.6003776,1,1683807267.2366009
0.898766,-1.7632124,3.310848,10.461788,-10.291157,-11.650867,2.4563408,8.623051,3.972375,1,1683807267.252225
0.32742232,-1.6704757,2.7990592,11.853142,-10.120659,-12.316704,1.7386007,9.232379,2.8126187,1,1683807267.2678506
-0.4643058,-1.38444,2.3753815,11.825371,-7.0900154,-11.271687,-0.79413074,9.774424,0.019683873,1,1683807267.2834752
-0.4643058,-1.38444,2.3753815,11.825371,-7.0900154,-11.271687,-3.3136034,8.911661,-2.4026458,1,1683807267.2990987
-1.9996573,-1.1018163,-0.12792067,10.504513,-2.7672195,-8.459339,-3.3136034,8.911661,-2.4026458,1,1683807267.2990987
-3.2624094,-0.6171282,-3.1178675,5.4221535,2.2981834,-3.217163,-4.560984,7.6231704,-4.1539235,1,1683807267.3147254
-2.7811334,-0.18148509,-4.096768,5.4221535,2.2981834,-3.217163,-4.560984,7.6231704,-4.1539235,1,1683807267.3303516
-2.7811334,-0.18148509,-4.096768,5.4221535,2.2981834,-3.217163,-4.4536977,7.836124,-3.8639507,1,1683807267.3615994
-1.8083146,-0.55927193,-1.9617587,-8.876972,5.1392365,5.611744,-2.8989067,8.389346,-4.1696043,1,1683807267.3772113
-1.8083146,-0.55927193,-1.9617587,-8.876972,5.1392365,5.611744,-0.5869273,9.664551,-1.556398,1,1683807267.392851
-1.0732143,-0.9421998,-0.014422355,-11.644459,6.3952065,7.675209,-0.5869273,9.664551,-1.556398,1,1683807267.392851
3.1894786,0.30077663,1.8787278,-8.787518,-0.13912201,5.3006554,0.22427766,9.794843,-0.42560607,1,1683807267.4398003
5.3506026,2.1951551,4.710514,-8.787518,-0.13912201,5.3006554,0.22427766,9.794843,-0.42560607,1,1683807267.4553502
-0.66271555,-1.0122491,0.32285753,-11.6882515,6.0883904,7.972412,0.9931241,9.72764,0.7463916,1,1683807267.4709735
-0.66271555,-1.0122491,0.32285753,1.4400864,-7.5076485,-3.4452057,1.3496542,9.622854,1.322685,1,1683807267.4866016
0.08165085,-0.95757765,0.5315343,1.4400864,-7.5076485,-3.4452057,1.3496542,9.622854,1.322685,1,1683807267.4866016
-1.7592695,-1.2919457,1.3186066,9.524384,-2.7298355,-9.613037,-3.2840292,8.917248,-2.422443,1,1683807267.5022113
-3.1589355,-0.46970472,-3.5488698,3.03051,6.0787773,-1.4125824,-4.483816,7.282531,-4.7990136,1,1683807267.5178504
-2.994921,-0.23638406,-4.4184422,0.079841614,6.4356613,1.0715866,-4.1746864,7.1907682,-5.1995416,1,1683807267.5491004
-2.6371374,-0.048954114,-4.600746,-1.5011024,6.116028,2.1613312,-3.9552405,7.2421374,-5.2988586,1,1683807267.564865
-1.2989825,0.106992334,-3.7111707,-6.2415314,4.666195,4.0553665,-3.1791296,7.721808,-5.141714,1,1683807267.5963652
-1.1034845,-0.16951954,-2.3942323,-11.203461,5.4683495,5.1983833,-2.0590615,8.729145,-3.9664435,1,1683807267.6272116
0.18366891,-0.7501293,0.3733737,-11.203461,5.4683495,5.1983833,-1.1328064,9.3832,-2.615852,1,1683807267.6431344
0.18366891,-0.7501293,0.3733737,-11.495323,3.9365387,5.908947,0.38039428,9.799119,0.05435556,1,1683807267.6588542
0.18366891,-0.7501293,0.3733737,-11.495323,3.9365387,5.908947,-0.21310686,9.749551,-1.0350096,1,1683807267.6741004
0.5192503,-0.7149909,0.52005404,-10.044422,1.0496902,5.654335,-0.21310686,9.749551,-1.0350096,1,1683807267.689933
2.836821,0.5675371,2.9799073,-10.044422,1.0496902,5.654335,1.4735395,9.4917145,1.9764688,1,1683807267.705891
-0.49431825,-0.4863109,0.71872157,10.715332,-2.9876518,-7.1629143,-1.196981,9.4838085,-2.189751,1,1683807267.7219794
-1.3880492,0.34154138,-3.3458045,-3.2395935,1.6270065,0.038318634,-2.5875201,7.69957,-5.4947023,1,1683807267.7844856
-1.4995912,-0.2747072,-2.2204664,-9.0421295,3.6808586,1.9344902,-1.97248,8.657287,-4.1630616,1,1683807267.8001125
-1.4995912,-0.2747072,-2.2204664,-9.989147,4.245491,2.30299,-1.97248,8.657287,-4.1630616,1,1683807267.8157363
-1.5967261,-0.5570881,-1.7757846,-9.989147,4.245491,2.30299,-1.97248,8.657287,-4.1630616,1,1683807267.8157363
-1.6196713,-0.82262015,-0.77735126,-11.776638,4.4425583,3.3597565,-1.1837692,9.462958,-2.285058,1,1683807267.8313608
-1.6345487,-0.9519664,-0.37978867,-12.062092,3.7788582,4.052162,-1.1837692,9.462958,-2.285058,1,1683807267.8782372
-1.0993292,-1.4700944,0.9107922,-11.8320465,3.225975,4.8628616,-0.02870428,9.792467,0.5264639,1,1683807267.8938627
-1.0993292,-1.4700944,0.9107922,-11.8320465,3.225975,4.8628616,-0.52532923,9.773667,-0.60814804,1,1683807267.909488
-1.4993486,-1.2053055,0.22425169,-11.8320465,3.225975,4.8628616,-0.52532923,9.773667,-0.60814804,1,1683807267.909488
3.9092014,1.66262,6.3198276,2.3254204,-3.1986046,-0.04272461,2.6053057,8.405974,4.326935,1,1683807267.9251122
1.4586294,-0.3857487,1.3830447,11.453667,-6.111088,-6.6547585,2.1384315,9.372403,1.9379239,1,1683807267.956363
1.0749735,-0.38867563,1.0960231,12.484798,-8.650665,-9.19754,1.4605155,9.679308,0.5901544,1,1683807267.9719853
2.5585954,0.06477169,2.4556675,12.484798,-8.650665,-9.19754,1.4605155,9.679308,0.5901544,1,1683807267.9876115
-0.86578107,-0.394302,-0.31999126,10.255241,-4.4641876,-8.642521,-1.882026,9.047985,-3.2805963,1,1683807268.0032356
-0.86578107,-0.394302,-0.31999126,10.255241,-4.4641876,-8.642521,-2.7090733,8.518447,-4.0332823,1,1683807268.0344882
-1.2230794,-0.4084514,-0.80225295,9.484997,-3.3584213,-8.19191,-2.7090733,8.518447,-4.0332823,1,1683807268.0344882
-2.6610534,-0.15731134,-3.3821712,7.44503,-1.0371399,-6.882801,-3.0397263,8.247242,-4.348959,1,1683807268.0501118
-2.7581882,0.0064453217,-3.9217887,-0.85769653,2.015934,-1.0440826,-3.6148295,7.567381,-5.083123,1,1683807268.0657372
-2.2317646,-0.97099906,-0.99870634,-8.951473,3.4699059,2.6960564,-3.2050908,8.16677,-4.38197,1,1683807268.0813622
-2.2317646,-0.97099906,-0.99870634,-11.356869,4.8356247,4.2907524,-2.791351,8.65349,-3.6736715,1,1683807268.096989
-2.3403645,-1.1535609,-0.67460525,-11.356869,4.8356247,4.2907524,-2.791351,8.65349,-3.6736715,1,1683807268.1126134
-2.3403645,-1.1535609,-0.67460525,-11.356869,4.8356247,4.2907524,-2.280874,9.121114,-2.7880611,1,1683807268.1282363
-2.2793539,-1.6265414,0.29918423,-12.66077,5.466213,6.9263268,-1.3369935,9.642187,-1.1878874,1,1683807268.143862
-2.2793539,-1.6265414,0.29918423,-12.66077,5.466213,6.9263268,-0.974783,9.739836,-0.5964858,1,1683807268.190738
-2.1543903,-1.7402672,0.6108497,-12.686405,5.4182816,7.5824165,0.21626146,9.727035,1.2281762,1,1683807268.2376106
-2.1543903,-1.7402672,0.6108497,-10.279942,3.0650902,9.650154,0.21626146,9.727035,1.2281762,1,1683807268.2844887
1.0454311,-1.3397776,2.361217,-10.279942,3.0650902,9.650154,1.5025047,9.238253,2.927037,1,1683807268.3001144
4.531061,1.2223363,5.0448823,-6.4982796,0.9655762,6.4767838,2.2746234,8.738104,3.826488,1,1683807268.3157399
4.531061,1.2223363,5.0448823,-4.0982246,0.20280838,4.1779327,2.2746234,8.738104,3.826488,1,1683807268.362613
4.531061,1.2223363,5.0448823,-4.0982246,0.20280838,4.1779327,2.7816846,8.337001,4.3505197,1,1683807268.4094913
5.3000865,2.1729379,6.207815,-4.0982246,0.20280838,4.1779327,2.7816846,8.337001,4.3505197,1,1683807268.4251149
5.734516,2.5033932,5.9862022,2.6353073,-2.1812248,-1.4541054,2.9075177,8.328271,4.2844644,1,1683807268.4407387
3.6465962,0.21804902,2.7395194,2.6353073,-2.1812248,-1.4541054,2.5009682,8.994694,3.001839,1,1683807268.487613
0.5890569,-0.88655776,2.060789,11.973438,-9.790478,-11.727638,0.83341146,9.762358,0.4149685,1,1683807268.5032396
0.5890569,-0.88655776,2.060789,10.865536,-6.8673134,-11.298256,-0.89675045,9.692569,-1.1917859,1,1683807268.534492
-0.7303232,-1.1015737,1.3808457,10.865536,-6.8673134,-11.298256,-0.89675045,9.692569,-1.1917859,1,1683807268.5501156
-1.5371712,-1.0766872,0.43170005,10.865536,-6.8673134,-11.298256,-0.89675045,9.692569,-1.1917859,1,1683807268.5813656
-1.8432255,-1.0164045,-0.17258297,9.437065,-1.5921593,-8.966427,-2.9643328,8.884968,-2.9052472,1,1683807268.5969896
-1.8432255,-1.0164045,-0.17258297,7.552643,0.333786,-6.339531,-2.9643328,8.884968,-2.9052472,1,1683807268.643865
-2.4406688,-0.7215727,-1.9407697,7.552643,0.333786,-6.339531,-2.9643328,8.884968,-2.9052472,1,1683807268.643865
-2.4406688,-0.7215727,-1.9407697,7.552643,0.333786,-6.339531,-3.975175,8.025319,-3.995326,1,1683807268.6594887
-2.84727,-0.5295021,-3.2096336,7.552643,0.333786,-6.339531,-3.975175,8.025319,-3.995326,1,1683807268.6907365
-2.84727,-0.5295021,-3.2096336,3.1669617,0.5180359,-2.3702812,-3.975175,8.025319,-3.995326,1,1683807268.7219877
-2.9280565,-0.27006656,-4.077735,3.1669617,0.5180359,-2.3702812,-3.975175,8.025319,-3.995326,1,1683807268.737613
-2.9280565,-0.27006656,-4.077735,3.1669617,0.5180359,-2.3702812,-4.685809,6.9784527,-5.051215,1,1683807268.7844877
-2.3518448,-0.1543844,-3.853453,3.1669617,0.5180359,-2.3702812,-4.685809,6.9784527,-5.051215,1,1683807268.8001127
-2.3518448,-0.1543844,-3.853453,3.1669617,0.5180359,-2.3702812,-4.1972737,7.752834,-4.2949796,1,1683807268.8157365
-2.9280565,-0.27006656,-4.077735,-1.2794685,0.0004005432,0.28759003,-4.5905905,7.12784,-4.928566,1,1683807268.8313634
-2.4672842,-0.535356,-2.6629338,-6.064625,1.9615936,2.3583984,-4.473415,7.3408237,-4.719243,1,1683807268.862615
-2.5658748,-0.7188884,-2.3456573,-6.064625,1.9615936,2.3583984,-4.107789,7.801053,-4.2941847,1,1683807268.8938649
-2.5658748,-0.7188884,-2.3456573,-7.4314117,2.9330444,3.1083488,-4.107789,7.801053,-4.2941847,1,1683807268.90949
-2.6791155,-1.6516857,-0.06079834,-12.563839,6.20348,10.395832,-2.8693151,8.921776,-2.8877919,1,1683807268.925117
-2.6791155,-1.6516857,-0.06079834,-12.519112,6.239662,11.14151,-2.8693151,8.921776,-2.8877919,1,1683807268.9563653
-2.1392705,-2.3096545,0.98669535,-12.519112,6.239662,11.14151,0.61414117,9.729495,1.0630856,1,1683807268.9719903
3.0079026,-1.0039536,2.4280968,-10.331078,4.1197205,9.720516,2.205685,9.104127,2.9017618,1,1683807268.9876165
-2.0387082,-0.5417103,-0.9198763,3.5003471,2.7689552,-0.4698372,-2.3796227,8.492574,-4.287653,1,1683807269.0188665
-2.4660559,-0.21466713,-2.9128456,6.54274,1.7761421,-2.66428,-3.251921,8.132936,-4.4103026,1,1683807269.0344903
-1.4910531,-0.5844163,-1.530999,6.54274,1.7761421,-2.66428,-2.6315277,8.312877,-4.4879303,1,1683807269.0501158
-1.4910531,-0.5844163,-1.530999,8.909817,0.44246674,-5.2646065,-2.7477787,8.991581,-2.7877588,1,1683807269.0813665
-2.7196376,0.18460917,-4.800142,1.4785385,3.252678,0.6624985,-3.0415628,8.096865,-4.621694,1,1683807269.0969908
-2.7196376,0.18460917,-4.800142,-7.015915,4.8643303,3.754959,-1.5444903,9.127073,-3.23751,1,1683807269.1126153
-1.4554143,0.14140277,-3.489315,-7.015915,4.8643303,3.754959,-1.5444903,9.127073,-3.23751,1,1683807269.1126153
-1.6538392,-0.7965053,-0.6423938,-11.546459,5.9467316,5.179291,-0.3548358,9.7251,-1.2111675,1,1683807269.1282434
-1.6579794,-1.1640553,0.48320198,-11.546459,5.9467316,5.179291,-0.3548358,9.7251,-1.2111675,1,1683807269.1438677
-1.4832429,-1.3131773,0.5676433,-10.740032,4.428673,6.977463,0.2900519,9.801443,-0.13409452,1,1683807269.1594908
-1.4832429,-1.3131773,0.5676433,-10.400238,4.09956,7.504711,0.6346295,9.778305,0.3903583,1,1683807269.175114
-1.4832429,-1.3131773,0.5676433,-10.400238,4.09956,7.504711,1.7640816,9.450706,1.9345684,1,1683807269.1907413
-0.38937324,-1.5162277,0.8612466,-9.810104,3.3911324,8.744659,1.7640816,9.450706,1.9345684,1,1683807269.2219908
2.9788609,-0.14755996,3.1846714,10.057106,-8.957481,-8.836517,3.7536795,8.584102,2.8971503,1,1683807269.2532406
-2.368921,-0.42015913,-2.752501,9.24427,-4.36512,-8.003387,-1.006169,9.191894,-3.266054,1,1683807269.268865
-2.4928987,-0.25176185,-3.2096336,4.8213387,-1.2044334,-5.1379013,-2.9715502,7.9595246,-4.897575,1,1683807269.2844903
-2.4040594,0.036715586,-3.3038263,0.0073432922,0.66516876,-2.1870995,-3.388971,7.6068225,-5.1789484,1,1683807269.3469894
-2.2288377,-0.32913604,-2.7232165,-5.8335114,2.7220917,1.0833359,-3.2990685,7.8674936,-4.836227,1,1683807269.3626142
-2.2193139,-0.44140595,-1.8697499,-8.212204,4.043083,2.4936485,-3.002301,8.247182,-4.3749924,1,1683807269.37824
-2.2193139,-0.44140595,-1.8697499,-10.728416,5.798664,5.276222,-2.009914,9.140306,-2.9300907,1,1683807269.3938656
-2.6112652,-0.8819171,-0.25066993,-9.127312,4.6225357,3.1541443,-1.3187145,9.509275,-2.0012684,1,1683807269.4094903
-2.6112652,-0.8819171,-0.25066993,-11.326027,6.7030907,7.9499817,-1.3187145,9.509275,-2.0012684,1,1683807269.4251153
-2.6112652,-0.8819171,-0.25066993,-11.154461,6.400547,7.002964,-1.3187145,9.509275,-2.0012684,1,1683807269.440741
-1.9547523,-2.2867243,1.367667,-11.887455,7.5989723,10.794239,1.0349311,9.712154,0.87941253,1,1683807269.4563653
-1.051012,-2.5905643,2.001735,-11.887455,7.5989723,10.794239,1.0349311,9.712154,0.87941253,1,1683807269.4719903
-1.051012,-2.5905643,2.001735,-11.99707,7.840767,11.614552,1.0349311,9.712154,0.87941253,1,1683807269.4876146
1.5691856,-1.5084176,3.5602744,-11.828842,8.590717,13.088818,2.5899053,9.001337,2.9049482,1,1683807269.5188646
2.6513324,-0.7176752,4.083043,-3.4910011,4.1911507,5.2783585,3.7057855,7.6735816,4.8532147,1,1683807269.5501156
6.482553,2.979058,5.371182,-10.388622,9.04026,11.992664,3.7057855,7.6735816,4.8532147,1,1683807269.5657406
6.221889,2.5583074,5.697983,0.69761276,0.38064957,1.691494,4.1264443,6.5957727,5.969809,1,1683807269.5813656
-0.99169993,-1.0942488,1.2158606,8.215275,-2.478428,-9.687538,-1.5994747,9.357997,-2.4576354,1,1683807269.6282413
-0.99169993,-1.0942488,1.2158606,8.215275,-2.478428,-9.687538,-2.8362951,8.715409,-3.4881902,1,1683807269.65949
-0.99169993,-1.0942488,1.2158606,7.367325,-0.8220482,-7.332344,-3.1458533,8.480913,-3.787889,1,1683807269.7219896
-1.9039935,-0.7081513,-0.86253566,7.367325,-0.8220482,-7.332344,-3.1458533,8.480913,-3.787889,1,1683807269.753241
-3.170158,-0.46189448,-3.6989625,0.42604446,2.1458435,-0.087451935,-3.901746,7.5017962,-4.9668727,1,1683807269.7688649
-2.673504,-1.5208684,-1.1253835,0.42604446,2.1458435,-0.087451935,-3.901746,7.5017962,-4.9668727,1,1683807269.8626165
-2.673504,-1.5208684,-1.1253835,-14.362011,9.227715,9.630928,-3.4392986,7.8005896,-4.8468976,1,1683807269.8782408
-2.9939504,-0.7425617,-3.1185954,-14.362011,9.227715,9.630928,-3.4392986,7.8005896,-4.8468976,1,1683807269.8938658
-2.9939504,-0.7425617,-3.1185954,-7.7093887,5.042305,5.050316,-3.4392986,7.8005896,-4.8468976,1,1683807269.90949
-2.9939504,-0.7425617,-3.1185954,-7.7093887,5.042305,5.050316,-2.8023741,8.316361,-4.376666,1,1683807269.9251144
-2.9939504,-0.7425617,-3.1185954,-5.6129456,4.1197205,3.957367,-1.9275757,8.930635,-3.5635095,1,1683807269.971989
-2.570758,-2.0345984,-0.0688512,-5.6129456,4.1197205,3.957367,-1.9275757,8.930635,-3.5635095,1,1683807269.9876144
-2.570758,-2.0345984,-0.0688512,-5.6129456,4.1197205,3.957367,-0.32161582,9.645368,-1.7417909,1,1683807270.0032394
1.4786477,-1.9660202,2.135464,-5.6129456,4.1197205,3.957367,-0.32161582,9.645368,-1.7417909,1,1683807270.0032394
-2.3879538,-2.3133245,0.36923352,-13.715401,7.652111,12.159958,3.020822,8.864732,2.9088745,1,1683807270.0188668
2.4934294,-1.3436751,2.286057,-13.715401,7.652111,12.159958,3.426874,8.444963,3.6207051,1,1683807270.0344868
2.4934294,-1.3436751,2.286057,-13.715401,7.652111,12.159958,4.417487,7.4629445,4.57828,1,1683807270.050115
5.1024046,1.1715775,3.6244698,-13.715401,7.652111,12.159958,4.417487,7.4629445,4.57828,1,1683807270.050115
5.1024046,1.1715775,3.6244698,8.3143425,-10.080204,-8.704338,4.417487,7.4629445,4.57828,1,1683807270.0657406
1.1210916,-1.6111636,2.7907636,9.0929985,-12.16917,-12.950497,4.417487,7.4629445,4.57828,1,1683807270.0969899
2.4934294,-1.3436751,2.286057,9.0929985,-12.16917,-12.950497,4.417487,7.4629445,4.57828,1,1683807270.1126168
6.322451,2.5756414,6.5724382,-13.196564,7.135544,11.354599,4.2184935,7.271561,5.049664,1,1683807270.12824
6.04788,2.455076,4.743711,5.817356,-7.89217,-5.6619453,4.3301616,7.8037596,4.064655,1,1683807270.1438642
-2.3879538,-2.3133245,0.36923352,-7.136345,0.73005676,5.1270866,4.3301616,7.8037596,4.064655,1,1683807270.1594884
-2.3879538,-2.3133245,0.36923352,8.705273,-11.221085,-12.551022,2.4997225,9.426637,1.0297127,1,1683807270.2219868
-1.3731719,-0.95001006,1.4411284,8.705273,-11.221085,-12.551022,2.4997225,9.426637,1.0297127,1,1683807270.2536442
-1.3731719,-0.95001006,1.4411284,8.797932,-6.574383,-10.931759,2.4997225,9.426637,1.0297127,1,1683807270.2848938
-1.3731719,-0.95001006,1.4411284,9.0205,-4.1882133,-9.512901,2.4997225,9.426637,1.0297127,1,1683807270.3005195
-0.5743767,-0.95343745,2.6850905,9.0205,-4.1882133,-9.512901,0.2680498,9.7741375,-0.75151044,1,1683807270.316143
-0.5743767,-0.95343745,2.6850905,9.0205,-4.1882133,-9.512901,-0.77909625,9.648691,-1.5704039,1,1683807270.3473933
-1.5603592,-0.23565613,-1.2039709,8.102322,-1.3364792,-6.2265778,-2.6419337,8.790255,-3.4528248,1,1683807270.3630185
-1.5603592,-0.23565613,-1.2039709,4.9448395,0.69387436,-3.9255905,-2.6419337,8.790255,-3.4528248,1,1683807270.409895
-1.554748,0.08259111,-2.2224226,4.9448395,0.69387436,-3.9255905,-2.6419337,8.790255,-3.4528248,1,1683807270.4255197
-1.554748,0.08259111,-2.2224226,4.9448395,0.69387436,-3.9255905,-3.2347074,8.217254,-4.2642465,1,1683807270.441144
-2.0972924,0.060131058,-3.13323,3.0092812,1.1008263,-2.8198242,-3.2347074,8.217254,-4.2642465,1,1683807270.4567697
-2.3249867,0.17264363,-3.5232403,-8.004456,3.7895393,3.5386658,-3.5990236,7.740501,-4.827223,1,1683807270.4723918
-2.3249867,0.17264363,-3.5232403,-8.004456,3.7895393,3.5386658,-3.4730556,7.9140067,-4.634304,1,1683807270.48802
-2.4457948,-0.036745917,-3.4451382,-2.090168,1.2009621,0.185318,-3.5447924,7.8210974,-4.736589,1,1683807270.5192683
-2.7176812,-0.7188884,-1.7399184,-9.173107,4.463787,4.38982,-1.8640016,9.258368,-2.641688,1,1683807270.5348926
-2.3008282,-1.6067656,0.2557352,-12.530861,7.205906,8.583775,-1.8640016,9.258368,-2.641688,1,1683807270.5505183
-2.3008282,-1.6067656,0.2557352,-12.530861,7.205906,8.583775,-0.53853697,9.74231,-0.98374766,1,1683807270.5661428
-1.991119,-1.7976229,0.5622747,-12.768383,7.413521,9.337997,-1.0111476,9.6255865,-1.5798893,1,1683807270.5817683
-0.63001883,-2.0726788,1.2876236,-12.8653145,7.5232697,10.977421,-1.0111476,9.6255865,-1.5798893,1,1683807270.5973935
4.2855473,0.8262296,4.4513364,8.766022,-9.025574,-7.014847,3.579549,7.4564853,5.268589,1,1683807270.6130197
-1.702399,-0.033333685,-2.723702,-1.2550354,-1.6922951,-0.30374527,-4.2224064,6.9156446,-5.524087,1,1683807270.628644
-1.7036273,-0.21783671,-2.3232124,-1.2550354,-1.6922951,-0.30374527,-4.2224064,6.9156446,-5.524087,1,1683807270.6442707
4.836387,2.3215744,3.3606362,-2.6047325,-0.9285927,3.7294579,-0.40058127,9.76712,-0.7831339,1,1683807270.6598926
4.8707976,2.6544716,4.069136,-0.23658752,0.40094376,-0.3271103,-0.22003691,9.786844,-0.58279145,1,1683807270.6755183
-0.38547572,-0.014786326,-0.7243935,5.917492,3.512497,-4.0619087,-2.9805474,8.383796,-4.122948,1,1683807270.6911435
-0.38547572,-0.014786326,-0.7243935,5.917492,3.512497,-4.0619087,-3.1983428,7.956872,-4.757014,1,1683807270.7223935
-0.38547572,-0.014786326,-0.7243935,8.621025,-0.23925781,-5.506401,-3.1983428,7.956872,-4.757014,1,1683807270.7380185
-0.21145204,-0.43041098,1.7022625,-11.630707,7.6223373,4.8532486,2.4185302,8.248256,4.72095,1,1683807270.7536454
-0.011085953,-0.13900663,1.6612703,-3.9735222,2.4601364,1.8598557,2.0226796,5.212,8.056935,1,1683807270.7692685
0.6434706,0.036457773,1.7625452,-2.8347778,1.4087105,1.395359,1.6755275,3.9637806,8.812006,1,1683807270.7848933
0.55341804,0.07209661,1.7786661,-2.2744179,0.87171555,1.1195183,1.6656244,3.755317,8.904699,1,1683807270.8005185
0.64005834,0.2090104,1.7620599,-0.6499481,-0.004940033,0.6006813,1.6978528,3.6499362,8.942352,1,1683807270.816142
0.64005834,0.2090104,1.7620599,0.13204575,2.2693443,0.36636353,1.5779912,3.625727,8.974099,1,1683807270.8317678
0.3542652,0.2085251,1.0364835,0.13204575,2.2693443,0.36636353,1.5779912,3.625727,8.974099,1,1683807270.8473916
0.3542652,0.2085251,1.0364835,0.63058853,-1.2108421,0.26302338,1.5779912,3.625727,8.974099,1,1683807270.9255166
0.3542652,0.2085251,1.0364835,0.63058853,-1.2108421,0.26302338,1.4692513,3.7158113,8.955692,1,1683807270.9411416
0.3542652,0.2085251,1.0364835,0.6592941,-1.3450241,0.23752213,1.4692513,3.7158113,8.955692,1,1683807270.9723945
0.3542652,0.2085251,1.0364835,0.7082939,1.6302109,0.32056808,1.4692513,3.7158113,8.955692,1,1683807270.9880154
0.3542652,0.2085251,1.0364835,0.7082939,1.6302109,0.32056808,1.397696,3.6680958,8.986762,1,1683807271.003643
0.09557275,0.33397382,1.6546733,0.7082939,1.6302109,0.32056808,1.397696,3.6680958,8.986762,1,1683807271.003643
0.11192112,0.35691917,1.7959851,0.7082939,1.6302109,0.32056808,1.5312526,3.7390034,8.935631,1,1683807271.0192692
0.4443329,0.2929664,1.6641972,0.7082939,1.6302109,0.32056808,1.6554433,3.8339136,8.87305,1,1683807271.0348935
0.4443329,0.2929664,1.6641972,0.96183777,-0.58439255,0.1927948,1.6554433,3.8339136,8.87305,1,1683807271.0661433
0.4443329,0.2929664,1.6641972,1.0874748,-0.16048431,0.185318,1.6554433,3.8339136,8.87305,1,1683807271.113019
0.44139078,0.25391534,1.5040954,1.0874748,-0.16048431,0.185318,1.6554433,3.8339136,8.87305,1,1683807271.128644
0.44139078,0.25391534,1.5040954,1.0874748,-0.16048431,0.185318,1.6902708,3.9151676,8.830902,1,1683807271.1442711
0.41723222,0.29419482,1.4416137,1.0864067,0.27303696,0.20227432,1.6738871,4.0398917,8.777686,1,1683807271.1755188
0.41723222,0.29419482,1.4416137,1.0864067,0.27303696,0.20227432,1.622642,4.116173,8.751831,1,1683807271.1911442
0.41723222,0.29419482,1.4416137,0.8872032,0.7460785,0.026569366,1.622642,4.116173,8.751831,1,1683807271.206767
0.41723222,0.29419482,1.4416137,0.8872032,0.7460785,0.026569366,1.4974408,4.2581005,8.706126,1,1683807271.222393
0.16292256,0.58192915,1.2122058,0.8872032,0.7460785,0.026569366,1.4974408,4.2581005,8.706126,1,1683807271.2380157
0.044313483,0.4840664,1.1270213,1.7948341,-0.4236412,-0.9619713,1.4974408,4.2581005,8.706126,1,1683807271.2536397
0.09288846,0.39157224,0.8876042,1.7948341,-0.4236412,-0.9619713,1.4974408,4.2581005,8.706126,1,1683807271.2848914
0.09288846,0.39157224,0.8876042,1.7948341,-0.4236412,-0.9619713,1.4672745,4.411342,8.634671,1,1683807271.300516
0.44895834,0.5401938,1.2754154,1.7948341,-0.4236412,-0.9619713,1.4672745,4.411342,8.634671,1,1683807271.316141
0.048954114,0.3742381,0.82952046,2.3008537,-1.1926842,-0.9215164,1.5863503,4.818339,8.392705,1,1683807271.3473916
0.06066185,0.40695003,0.8634456,2.2497177,-1.4590454,-0.92365265,1.6476324,4.993769,8.277558,1,1683807271.363016
0.06066185,0.40695003,0.8634456,1.8694687,-1.1468887,-0.78092575,1.6476324,4.993769,8.277558,1,1683807271.4098916
0.07702538,0.40255204,0.83000576,1.4400864,-0.5801201,-0.62965393,1.6713086,5.1297135,8.18921,1,1683807271.441542
0.032605745,0.36935484,0.73507,1.4400864,-0.5801201,-0.62965393,1.6713086,5.1297135,8.18921,1,1683807271.4571679
0.032605745,0.36935484,0.73507,0.8584976,0.028038025,-0.36222458,1.6412095,5.314476,8.076705,1,1683807271.4727921
0.109964766,0.4808968,0.71335304,0.32697678,0.19105911,-0.1566124,1.6412095,5.314476,8.076705,1,1683807271.5509183
0.109964766,0.4808968,0.71335304,0.12136459,0.2837181,-0.1417923,1.6412095,5.314476,8.076705,1,1683807271.566544
0.0052624154,0.3979114,0.65038604,0.12136459,0.2837181,-0.1417923,1.6412095,5.314476,8.076705,1,1683807271.566544
0.0052624154,0.3979114,0.65038604,0.12136459,0.2837181,-0.1417923,1.560892,5.421094,8.02158,1,1683807271.5821683
0.0052624154,0.3979114,0.65038604,0.5783844,0.13671875,-0.23231506,1.560892,5.421094,8.02158,1,1683807271.597794
0.038459614,0.42354104,0.63744986,0.5783844,0.13671875,-0.23231506,1.560892,5.421094,8.02158,1,1683807271.6290445
0.038459614,0.42354104,0.63744986,0.5783844,0.13671875,-0.23231506,1.5900677,5.4052033,8.026571,1,1683807271.6602943
0.038459614,0.42354104,0.63744986,-0.018157959,0.38705826,-0.16088486,1.5226024,5.4247947,8.026436,1,1683807271.675919
0.111678466,0.50065744,0.71652263,-0.018157959,0.38705826,-0.16088486,1.5226024,5.4247947,8.026436,1,1683807271.675919
0.07775333,0.48822173,0.76558286,-0.09706497,0.40308,-0.20561218,1.5226024,5.4247947,8.026436,1,1683807271.6915433
0.07775333,0.48822173,0.76558286,-0.1492691,0.48612595,-0.19720078,1.4311856,5.4132113,8.05104,1,1683807271.7071676
0.07775333,0.48822173,0.76558286,-0.1492691,0.48612595,-0.19720078,1.3233671,5.388489,8.085993,1,1683807271.7227926
0.04358554,0.4557525,0.8109731,-0.1492691,0.48612595,-0.19720078,1.3233671,5.388489,8.085993,1,1683807271.7384205
0.04358554,0.4557525,0.8109731,-0.16302109,0.5948067,-0.13431549,1.3799983,5.402347,8.067257,1,1683807271.754044
0.020397548,0.39986774,0.8692995,-0.16302109,0.5948067,-0.13431549,1.3799983,5.402347,8.067257,1,1683807271.754044
0.0008795968,0.37058324,0.85270846,-0.10667801,0.6183052,-0.04486084,1.2664728,5.375799,8.103531,1,1683807271.769669
0.0306494,0.43012285,0.833418,-0.10667801,0.6183052,-0.04486084,1.2664728,5.375799,8.103531,1,1683807271.8009193
0.026494063,0.45722353,0.89956975,-0.10667801,0.6183052,-0.04486084,1.2664728,5.375799,8.103531,1,1683807271.8165443
0.026494063,0.45722353,0.89956975,0.16075134,0.24539948,0.055274963,1.2201432,5.3706236,8.114065,1,1683807271.8321695
0.026494063,0.45722353,0.89956975,-0.0044059753,0.5096245,0.027637482,1.195599,5.3769693,8.113516,1,1683807271.8477943
0.02967881,0.44404474,0.8627177,0.34820557,0.10801315,0.084114075,1.1860627,5.3985023,8.100606,1,1683807271.8634193
