acc_x,acc_y,acc_z,gyr_x,gyr_y,gyr_z,grav_x,grav_y,grav_z,label,timestamp
4.0017104,1.4907953,3.2376292,-2.6590729,-2.9003334,0.4579544,1.6788987,6.2317166,7.38359,1,1683807238.0569627
4.2028046,1.4029418,4.3271008,-2.6590729,-2.9003334,0.4579544,1.6788987,6.2317166,7.38359,1,1683807238.0725877
3.8989494,0.8391657,4.2609644,5.795994,-12.046738,-6.2681007,2.6268752,8.162365,4.7587514,1,1683807238.088213
2.3469918,-0.5988234,3.7984781,10.718536,-14.383907,-12.362499,2.0914025,8.886338,3.5818167,1,1683807238.1038373
1.0246999,-1.3478305,2.93159,7.8051186,-13.644638,-8.2772255,2.0914025,8.886338,3.5818167,1,1683807238.119463
0.10338296,-1.3009692,2.4310236,10.208378,-9.77232,-13.516197,0.13856645,9.690942,1.4956021,1,1683807238.150712
-0.6507652,-1.2885183,2.1464589,10.208378,-9.77232,-13.516197,0.13856645,9.690942,1.4956021,1,1683807238.166338
-0.6507652,-1.2885183,2.1464589,10.095425,-8.608074,-12.971859,-1.0589536,9.730257,0.6091778,1,1683807238.1819632
-2.4133408,-0.33426195,-2.093304,-6.652622,6.6008186,5.4125404,-4.600891,8.090887,-3.0886455,1,1683807238.1975875
-2.4133408,-0.33426195,-2.093304,-9.172039,8.007927,6.8474197,-3.8804476,8.582274,-2.7307656,1,1683807238.2132125
-2.1314602,-0.5658689,-1.4631487,-9.172039,8.007927,6.8474197,-3.8804476,8.582274,-2.7307656,1,1683807238.2132125
-1.6530961,-1.167225,-0.35098946,-12.676792,9.717712,8.921566,-3.0318978,9.083504,-2.1137547,1,1683807238.228837
-0.4311086,-1.5669866,1.5436318,-14.123421,9.729462,9.945221,0.4713587,9.435249,2.6314034,1,1683807238.244463
1.7573587,-0.604192,2.519863,-12.733269,8.516083,7.987232,1.3647672,8.126195,5.317212,1,1683807238.2600865
2.6679385,-0.097771734,3.1043854,-11.35046,6.602955,6.6929436,1.4770609,7.739747,5.838236,1,1683807238.2757125
4.8110003,1.8754369,5.0497656,-2.8613472,-2.6350403,0.737133,1.8654541,7.033237,6.5745006,1,1683807238.3069623
4.9188724,1.8925133,5.2152357,9.196339,-12.241669,-8.868427,1.8654541,7.033237,6.5745006,1,1683807238.3225868
0.015756916,-1.5965289,2.377823,10.751648,-10.994244,-14.120216,-0.7809333,9.724834,0.9940424,1,1683807238.338212
-2.1990528,-1.3248851,1.4179404,10.007038,-9.048004,-13.401108,-2.0298047,9.591959,0.21118802,1,1683807238.3538375
-2.9619815,-1.1498909,0.60669434,9.296474,-5.9992027,-11.300392,-2.0298047,9.591959,0.21118802,1,1683807238.4007125
-3.4583926,-0.5099842,-1.2398372,9.296474,-5.9992027,-11.300392,-5.3488755,7.9404254,-2.123569,1,1683807238.4163373
-3.4583926,-0.5099842,-1.2398372,8.929977,-4.9531174,-10.330009,-5.3488755,7.9404254,-2.123569,1,1683807238.4319627
-3.4583926,-0.5099842,-1.2398372,5.0811577,1.3330078,-4.0193176,-5.4929256,7.699769,-2.590699,1,1683807238.4475873
-3.361258,-0.86336976,-0.3087688,5.0811577,1.3330078,-4.0193176,-4.915117,8.330502,-1.6170236,1,1683807238.4632123
-3.479867,-0.35670686,-2.3554237,0.27050018,4.28915,1.339016,-4.915117,8.330502,-1.6170236,1,1683807238.478837
-3.1479557,-0.16049609,-3.1505642,0.27050018,4.28915,1.339016,-5.3720083,7.6581187,-2.9436564,1,1683807238.494463
-2.8997426,-0.14169091,-3.248912,-1.1707878,4.457512,2.5182152,-5.0382257,7.8249073,-3.0915198,1,1683807238.5100882
-1.8363858,-0.34255746,-2.0230272,-6.9690514,5.7154846,5.8556747,-3.1218233,9.064045,-2.0658398,1,1683807238.525713
-1.724116,-1.0027252,-0.16013213,-12.154751,8.806877,8.632774,-3.1218233,9.064045,-2.0658398,1,1683807238.541337
-1.724116,-1.0027252,-0.16013213,-12.67786,8.803673,9.786472,-0.54942906,9.745948,0.94074875,1,1683807238.556962
-1.6570088,-1.120121,0.16544002,-12.67786,8.803673,9.786472,-1.4173806,9.701054,-0.22578606,1,1683807238.572588
-0.66100186,-1.5562494,2.0183258,-12.461567,9.022102,10.707989,0.9969556,9.11381,3.480651,1,1683807238.5882125
-0.1560526,-1.4161661,2.4490857,-12.08559,9.509964,10.845375,0.9969556,9.11381,3.480651,1,1683807238.6038373
-0.1560526,-1.4161661,2.4490857,-11.791458,9.732666,10.743103,1.9896864,6.6921015,6.8867493,1,1683807238.619463
-0.1560526,-1.4161661,2.4490857,-11.791458,9.732666,10.743103,1.5574776,8.444355,4.7368264,1,1683807238.6507123
3.137249,0.485037,2.5977073,-10.203171,9.724121,9.654427,1.5574776,8.444355,4.7368264,1,1683807238.6507123
5.277642,2.1292613,3.5939567,-0.38785934,-2.822628,-0.30160904,2.134362,5.0395894,8.137409,1,1683807238.6663373
-2.5060775,-0.80699974,0.22231051,7.628212,-5.5293655,-9.281788,-1.7250395,9.648672,-0.31265858,1,1683807238.6819623
-3.4879198,-0.24298105,-1.7250259,4.316387,-1.8585205,-4.6894264,-4.9951396,8.144277,-2.2112691,1,1683807238.7132132
-3.3759077,-0.21589552,-1.9505363,-2.6079369,3.216362,2.8708267,-4.8182573,8.206108,-2.3695085,1,1683807238.7288508
-2.3447626,-0.5846589,-0.793457,-8.245316,7.553177,8.181095,-3.8083842,8.822153,-1.9586289,1,1683807238.7444758
-2.3447626,-0.5846589,-0.793457,-8.964291,8.231697,8.850136,-2.590632,9.381191,-1.2050973,1,1683807238.7601008
-1.9335207,-0.9004645,-0.06568162,-8.964291,8.231697,8.850136,-2.590632,9.381191,-1.2050973,1,1683807238.7601008
-0.29248112,-1.6284977,1.3405814,-10.514259,9.441872,10.599308,0.87994194,9.503373,2.2543266,1,1683807238.791351
0.2305302,-1.5552789,1.817702,-10.514259,9.441872,10.599308,1.6880294,8.965331,3.5977478,1,1683807238.8226006
-0.8784594,-1.5203831,1.0040294,-11.188641,9.971256,11.559143,-0.098210424,9.750341,1.0447977,1,1683807238.8382258
-0.8784594,-1.5203831,1.0040294,-3.7402725,2.6795006,3.364029,2.0141547,4.7024317,8.366643,1,1683807238.8538508
4.159856,1.3634055,3.4929245,-3.7402725,2.6795006,3.364029,2.0141547,4.7024317,8.366643,1,1683807238.8538508
2.9110105,-0.047983523,3.2952275,7.1840096,-10.709724,-6.728325,3.2929847,6.2623277,6.7904263,1,1683807238.8694758
2.9110105,-0.047983523,3.2952275,7.1840096,-10.709724,-6.728325,3.2319787,8.217886,4.265095,1,1683807238.900726
1.0974183,-0.9746691,2.9723396,10.673809,-13.286686,-12.625656,3.2319787,8.217886,4.265095,1,1683807238.900726
-2.7655132,-0.514367,-0.99089617,5.79813,-2.8885841,-6.1733055,-3.9672925,8.703733,-2.1624067,1,1683807238.963226
-3.275846,-0.2703092,-1.5312415,4.1469574,-1.770134,-3.9510918,-4.4647365,8.367806,-2.4932601,1,1683807238.9788508
-3.4691298,-0.22052099,-2.2580464,0.634861,0.8738518,-0.06181717,-4.7120767,8.161461,-2.71243,1,1683807238.9944758
-3.0437386,-0.21101224,-2.1079538,-9.4916725,8.752537,7.726345,-3.050178,9.095374,-2.0349355,1,1683807239.0257244
-2.0413926,-1.1289018,-0.14255534,-11.642323,10.591297,9.246407,-2.1082203,9.493167,-1.2671055,1,1683807239.0413494
-1.5603592,-1.4818174,0.5105453,-12.498817,11.282635,9.878063,-1.6051468,9.643406,-0.77370363,1,1683807239.0569618
-0.8994484,-1.5974995,1.0203778,-12.498817,11.282635,9.878063,-1.6051468,9.643406,-0.77370363,1,1683807239.0725877
-0.8994484,-1.5974995,1.0203778,-14.252262,12.417107,11.138306,-0.101147704,9.74231,1.1169356,1,1683807239.0882125
-0.8994484,-1.5974995,1.0203778,-14.698601,12.424583,11.210804,0.7359229,9.425574,2.6052525,1,1683807239.119463
-0.4372051,-1.5996984,1.5741447,-14.698601,12.424583,11.210804,0.7359229,9.425574,2.6052525,1,1683807239.1507113
-0.2234176,-1.5955431,2.0930007,-14.084034,11.831245,10.091152,1.6028726,7.9118843,5.5680585,1,1683807239.166339
-0.2234176,-1.5955431,2.0930007,-14.084034,11.831245,10.091152,1.6483514,7.4153776,6.2020564,1,1683807239.1819625
0.46140918,-1.374916,2.6831343,-14.084034,11.831245,10.091152,1.6483514,7.4153776,6.2020564,1,1683807239.1819625
1.0303112,-1.0317671,3.0665474,-14.084034,11.831245,10.091152,1.6573403,6.117375,7.4834046,1,1683807239.1975875
1.0303112,-1.0317671,3.0665474,-7.935295,5.3437805,5.570221,1.3148568,8.795102,4.133729,1,1683807239.213213
1.0303112,-1.0317671,3.0665474,-1.1836052,-1.1618423,0.9990883,1.3148568,8.795102,4.133729,1,1683807239.228838
1.0303112,-1.0317671,3.0665474,-1.1836052,-1.1618423,0.9990883,1.8290206,5.8209343,7.6773562,1,1683807239.2444637
4.5379004,1.5205803,4.5811677,-1.1836052,-1.1618423,0.9990883,1.8290206,5.8209343,7.6773562,1,1683807239.2600875
2.849272,-0.2671396,3.1519744,12.140732,-14.750271,-10.925484,2.5635645,6.9937825,6.378522,1,1683807239.2757123
-1.9318221,-0.57929033,-0.68899727,-9.656696,8.641853,6.8942833,-2.331222,9.399758,-1.5428312,1,1683807239.2913375
-1.4551716,-1.0776578,0.46148503,-11.663685,9.567509,8.875637,-0.72304404,9.775099,0.3082783,1,1683807239.3069627
-1.1200756,-1.1681956,0.9859674,-11.928978,9.476986,9.610767,0.0854244,9.696426,1.4637003,1,1683807239.3225873
-0.31249952,-1.3592956,2.1891649,-9.985943,10.58382,9.39127,1.8223991,6.193313,7.3818784,1,1683807239.3694623
2.4402292,0.76985955,2.6499372,-5.4606056,6.4110947,6.1304474,1.3040965,4.5095162,8.610109,1,1683807239.385088
2.658172,1.0863931,2.5098536,-2.0518494,2.2800255,3.2925987,1.3075652,4.3966374,8.667769,1,1683807239.4007123
2.658172,1.0863931,2.5098536,4.417591,-6.8183136,-3.1180954,2.213421,5.061838,8.102405,1,1683807239.4944627
2.7291918,1.2916576,2.08422,4.417591,-6.8183136,-3.1180954,2.213421,5.061838,8.102405,1,1683807239.4944627
1.916232,0.42549738,2.3068032,7.5473022,-12.216034,-7.4473,2.9993808,6.085168,7.0813017,1,1683807239.5257125
2.6222904,0.9719393,1.7818357,8.27589,-12.08292,-8.775768,1.5111859,4.4414577,8.6116295,1,1683807239.5413382
2.6222904,0.9719393,1.7818357,1.5348816,-2.4390411,0.02336502,1.5111859,4.4414577,8.6116295,1,1683807239.5569637
2.455607,0.80743957,1.8164887,1.5348816,-2.4390411,0.02336502,1.5111859,4.4414577,8.6116295,1,1683807239.5725882
1.209203,0.21657798,1.9895267,8.432503,-9.361095,-9.497948,2.935761,8.559082,3.7807143,1,1683807239.6038377
0.16048093,-0.16098139,0.72897345,8.493252,-8.727303,-10.120125,2.0352592,9.300999,2.3493662,1,1683807239.6194623
0.16048093,-0.16098139,0.72897345,8.281231,-8.965893,-10.395966,0.7923235,9.724137,0.99185723,1,1683807239.6350882
0.16048093,-0.16098139,0.72897345,8.092709,-8.954277,-10.374737,0.31969965,9.784239,0.5803862,1,1683807239.6507125
-0.72959524,-0.3550083,0.64159006,8.092709,-8.954277,-10.374737,0.31969965,9.784239,0.5803862,1,1683807239.6663382
-0.72959524,-0.3550083,0.64159006,7.579212,-8.568554,-10.039082,0.31969965,9.784239,0.5803862,1,1683807239.6975877
-2.3030272,-0.44409025,0.13542758,7.579212,-8.568554,-10.039082,-1.1652546,9.726678,-0.4520116,1,1683807239.713213
-2.3030272,-0.44409025,0.13542758,7.579212,-8.568554,-10.039082,-2.527004,9.403329,-1.1670711,1,1683807239.728838
-3.236795,-0.2305302,-0.5223137,4.447365,-4.2414856,-5.4809,-0.66861403,9.78278,-0.14343119,1,1683807239.7444632
-3.236795,-0.2305302,-0.5223137,2.6172829,-1.8521118,-2.9550743,-0.66861403,9.78278,-0.14343119,1,1683807239.7600877
-3.236795,-0.2305302,-0.5223137,2.6172829,-1.8521118,-2.9550743,-3.65292,8.942876,-1.6886462,1,1683807239.7913375
-3.4132452,-0.18782425,-0.7119426,2.6172829,-1.8521118,-2.9550743,-3.65292,8.942876,-1.6886462,1,1683807239.8069637
-3.4132452,-0.18782425,-0.7119426,-4.329338,5.30653,5.0738144,-3.65292,8.942876,-1.6886462,1,1683807239.9007132
-3.4132452,-0.18782425,-0.7119426,-4.329338,5.30653,5.0738144,-3.2264736,9.106699,-1.681752,1,1683807239.916338
-2.8275094,-0.3669587,-1.3633295,-4.329338,5.30653,5.0738144,-3.2264736,9.106699,-1.681752,1,1683807239.916338
-0.76863116,-1.1066996,0.40681353,-8.529701,8.243446,8.7223625,-3.2264736,9.106699,-1.681752,1,1683807239.9319627
-3.4132452,-0.18782425,-0.7119426,-11.053257,10.464458,10.19556,-3.2264736,9.106699,-1.681752,1,1683807239.9475882
-0.76863116,-1.1066996,0.40681353,-11.053257,10.464458,10.19556,-0.33863267,9.782527,0.59823537,1,1683807240.0100884
-0.4267106,-1.332938,1.2307531,-11.053257,10.464458,10.19556,0.9228763,9.439471,2.4930048,1,1683807240.04134
-0.3061452,-1.4020015,2.12547,-14.039173,13.32901,10.75058,1.7687125,7.98388,5.412921,1,1683807240.0569682
-0.23464003,-1.3434325,2.4737296,-14.039173,13.32901,10.75058,1.7687125,7.98388,5.412921,1,1683807240.0725887
-0.23464003,-1.3434325,2.4737296,-14.044514,13.370533,10.587559,1.7687125,7.98388,5.412921,1,1683807240.0882132
-0.23464003,-1.3434325,2.4737296,-12.169704,11.428566,9.298611,1.552232,4.9572544,8.317847,1,1683807240.1194632
0.9051051,-0.8033297,3.2242076,-12.169704,11.428566,9.298611,1.552232,4.9572544,8.317847,1,1683807240.1194632
4.022942,1.6264958,3.7691936,-1.1707878,-0.6793213,1.9940376,2.0992637,5.140061,8.083516,1,1683807240.1350882
4.022942,1.6264958,3.7691936,4.415455,-6.737404,-2.7228928,2.0992637,5.140061,8.083516,1,1683807240.1507127
3.4750292,1.1200756,4.0188627,4.415455,-6.737404,-2.7228928,2.0992637,5.140061,8.083516,1,1683807240.1507127
3.9284918,1.5442536,3.9783406,4.415455,-6.737404,-2.7228928,1.6690506,4.8818865,8.339774,1,1683807240.1663425
3.9284918,1.5442536,3.9783406,4.415455,-6.737404,-2.7228928,2.8593366,6.3056674,6.945009,1,1683807240.181963
2.790445,0.28491354,2.8058987,9.900494,-13.038483,-8.72036,2.8593366,6.3056674,6.945009,1,1683807240.181963
2.790445,0.28491354,2.8058987,9.900494,-13.038483,-8.72036,3.0214252,6.78566,6.4028273,1,1683807240.1975877
1.3422192,-0.5934397,2.5301147,11.216011,-14.86002,-11.463413,3.0894554,7.733936,5.178019,1,1683807240.2132137
0.3957579,-0.7140051,1.9924536,10.656853,-13.721275,-11.722298,2.1894565,9.139154,2.8022342,1,1683807240.2288425
0.3957579,-0.7140051,1.9924536,9.608631,-11.462879,-11.418686,2.1894565,9.139154,2.8022342,1,1683807240.244464
-0.06307316,-0.43091145,1.6446792,8.345184,-8.168011,-10.651646,0.9405428,9.658147,1.4163173,1,1683807240.260089
-0.7161586,-0.38867563,1.109945,8.026619,-6.06102,-9.652424,0.9405428,9.658147,1.4163173,1,1683807240.3694625
-1.407825,-0.3340193,0.34824452,8.026619,-6.06102,-9.652424,-0.4562907,9.79274,0.25382617,1,1683807240.3850875
-1.407825,-0.3340193,0.34824452,6.4639664,-3.2007408,-6.4257812,-2.2053921,9.494565,-1.0769745,1,1683807240.4007125
-2.5526962,-0.24542268,-0.8007819,6.4639664,-3.2007408,-6.4257812,-2.2053921,9.494565,-1.0769745,1,1683807240.4007125
-2.5526962,-0.24542268,-0.8007819,6.4639664,-3.2007408,-6.4257812,-3.687987,8.803717,-2.2502747,1,1683807240.41634
-3.2724187,-0.106795184,-1.4951174,4.126663,-0.88479996,-3.3748436,-3.687987,8.803717,-2.2502747,1,1683807240.41634
-3.4583926,-0.060176555,-1.8912241,-7.260914,7.9631996,6.114559,-3.6826694,8.701043,-2.626818,1,1683807240.431962
2.2547402,0.24561983,4.0022717,-9.19754,7.3687935,6.512966,1.7367654,5.96565,7.5871634,1,1683807240.447587
-1.2669985,-1.0852253,0.5046763,-11.851139,9.593143,9.981403,-0.2733133,9.793955,0.41727144,1,1683807240.4632132
2.4983127,0.16606182,2.1928198,9.163361,-13.210983,-8.890724,2.7719138,5.902321,7.3245807,1,1683807240.4788373
0.66129,-0.5497632,2.2238178,10.225334,-13.920479,-11.412277,2.6347835,8.827156,3.362978,1,1683807240.4944632
-1.7555994,-0.36744398,0.1615425,7.5195312,-6.0182953,-9.167767,-0.7642621,9.776822,0.0051575587,1,1683807240.5100875
-1.7555994,-0.36744398,0.1615425,6.8675804,-5.254593,-7.99057,-1.6278397,9.651472,-0.607956,1,1683807240.5257125
-1.7555994,-0.36744398,0.1615425,6.8675804,-5.254593,-7.99057,-2.3758557,9.449562,-1.1097192,1,1683807240.5413375
-1.7555994,-0.36744398,0.1615425,5.858879,-4.1456223,-6.5205765,-2.3758557,9.449562,-1.1097192,1,1683807240.5725877
-3.4793818,-0.088975765,-1.4724299,5.186634,-3.4425354,-5.637512,-3.2816145,9.073488,-1.7530569,1,1683807240.6038373
-3.4793818,-0.088975765,-1.4724299,5.186634,-3.4425354,-5.637512,-2.974912,9.173524,-1.7795352,1,1683807240.6194627
-3.1975012,-0.1438899,-2.1362677,-0.764904,2.9959297,1.0790634,-2.974912,9.173524,-1.7795352,1,1683807240.6194627
-2.6603255,-0.5024166,-1.489021,-7.120323,7.5424957,6.3030815,-2.3947663,9.4037075,-1.4162549,1,1683807240.6350868
-2.6603255,-0.5024166,-1.489021,-8.442383,8.394718,7.2830772,-2.3947663,9.4037075,-1.4162549,1,1683807240.6507123
-2.6603255,-0.5024166,-1.489021,-8.442383,8.394718,7.2830772,-2.0257533,9.529422,-1.121076,1,1683807240.6663382
-1.4107519,-1.0127344,0.24768233,-4.0619087,5.6069374,3.9360046,0.8815352,9.4259815,2.5581558,1,1683807240.7132137
-1.4107519,-1.0127344,0.24768233,-11.068211,10.164051,9.333725,0.8815352,9.4259815,2.5581558,1,1683807240.7600927
-1.4107519,-1.0127344,0.24768233,-11.068211,10.164051,9.333725,-0.75151587,9.776198,0.17761734,1,1683807240.7757177
-0.38985854,-1.2399585,1.1211674,-12.591476,11.232567,10.34256,1.4715377,8.883918,3.883421,1,1683807240.791338
0.012344686,-1.0791289,1.9844007,-12.591476,11.232567,10.34256,1.6743852,8.526159,4.5465837,1,1683807240.8069634
0.012344686,-1.0791289,1.9844007,-12.591476,11.232567,10.34256,1.8434134,7.1882515,6.4110265,1,1683807240.822589
0.012344686,-1.0791289,1.9844007,-12.061024,12.049541,9.371109,1.8434134,7.1882515,6.4110265,1,1683807240.8538392
0.38721976,-0.5780771,3.199321,-12.62886,11.481838,10.211582,1.8434134,7.1882515,6.4110265,1,1683807240.8694627
0.2561598,-0.72352904,2.9118142,-12.62886,11.481838,10.211582,1.8434134,7.1882515,6.4110265,1,1683807240.9007125
1.7922543,0.13482097,3.1566,-8.066273,9.6954155,6.9454193,1.8434134,7.1882515,6.4110265,1,1683807240.9319627
1.7922543,0.13482097,3.1566,-8.066273,9.6954155,6.9454193,1.4609642,5.7860107,7.781905,1,1683807240.9475875
1.7922543,0.13482097,3.1566,-8.066273,9.6954155,6.9454193,1.0577277,4.878895,8.440853,1,1683807240.9632127
3.6397717,1.5244778,3.256677,-1.8941689,2.2587967,1.9728088,1.0502698,4.783356,8.496283,1,1683807240.994464
3.6397717,1.5244778,3.256677,6.205082,-8.80621,-5.200653,1.0502698,4.783356,8.496283,1,1683807241.0100875
2.2925782,0.1250544,2.859827,9.507427,-14.039841,-8.825836,1.5883707,5.269336,8.116745,1,1683807241.0413382
1.7768766,-0.2173514,3.0204294,9.507427,-14.039841,-8.825836,2.1828127,6.0710945,7.3856306,1,1683807241.056963
0.60711896,-0.6708139,3.0008962,9.507427,-14.039841,-8.825836,2.7093966,7.902714,5.135823,1,1683807241.1038384
0.4814276,-0.685949,2.6977842,11.118011,-14.331703,-10.882893,2.4351091,6.5320315,6.897332,1,1683807241.1350918
0.3476834,-0.4499441,1.7930582,11.118011,-14.331703,-10.882893,2.4351091,6.5320315,6.897332,1,1683807241.1507137
0.3476834,-0.4499441,1.7930582,9.909039,-10.66927,-10.419464,1.8946892,9.197904,2.8247309,1,1683807241.1663377
0.089461066,-0.40185443,1.4006214,9.313564,-8.94146,-10.259647,1.1493275,9.565018,1.83299,1,1683807241.181963
-0.90457433,-0.42235813,0.8251225,8.642387,-7.1634483,-9.314766,-0.62445575,9.786159,0.10748394,1,1683807241.2288392
-1.1530302,-0.39868483,0.69187874,8.642387,-7.1634483,-9.314766,-0.62445575,9.786159,0.10748394,1,1683807241.2600877
-1.1530302,-0.39868483,0.69187874,7.272396,-4.8093224,-7.1639824,-2.3238423,9.448128,-1.2259877,1,1683807241.3069637
-1.1530302,-0.39868483,0.69187874,7.272396,-4.8093224,-7.1639824,-2.9888754,9.177742,-1.7338041,1,1683807241.353838
-2.7176812,-0.1770871,-0.95186025,6.083584,-3.2752419,-5.5181503,-2.9888754,9.177742,-1.7338041,1,1683807241.353838
-2.7176812,-0.1770871,-0.95186025,5.329361,-2.4837685,-4.523201,-2.9888754,9.177742,-1.7338041,1,1683807241.385088
-2.7176812,-0.1770871,-0.95186025,5.329361,-2.4837685,-4.523201,-3.2469854,9.046388,-1.9468857,1,1683807241.4007127
-2.0189476,-0.27349395,0.0658636,5.329361,-2.4837685,-4.523201,-3.2469854,9.046388,-1.9468857,1,1683807241.4319623
-2.0189476,-0.27349395,0.0658636,2.5543976,-0.3735733,-1.2358093,-3.2469854,9.046388,-1.9468857,1,1683807241.4475863
-2.8153012,0.18021119,-1.7457722,2.5543976,-0.3735733,-1.2358093,-3.6809063,8.764489,-2.409365,1,1683807241.4632125
-2.7672267,0.23512533,-1.9007481,1.4561081,0.3540802,-0.16302109,-3.710144,8.72728,-2.4979618,1,1683807241.494463
-2.630313,0.038414117,-1.8775601,-2.22435,2.8499985,2.8995323,-3.710144,8.72728,-2.4979618,1,1683807241.5257132
-2.31889,-0.16951954,-1.4680319,-2.22435,2.8499985,2.8995323,-3.4658053,8.81687,-2.5340464,1,1683807241.5413387
-2.31889,-0.16951954,-1.4680319,-4.68729,4.659786,4.837227,-3.0270271,9.029675,-2.3393288,1,1683807241.5569634
-2.0970497,-0.26080045,-1.1932337,-5.8238983,5.586643,5.7268333,-3.0270271,9.029675,-2.3393288,1,1683807241.572587
-2.0970497,-0.26080045,-1.1932337,-5.8238983,5.586643,5.7268333,-2.7273057,9.167066,-2.16728,1,1683807241.588213
-2.0970497,-0.26080045,-1.1932337,-5.8238983,5.586643,5.7268333,-1.5787647,9.58767,-1.3245558,1,1683807241.6194632
-1.7560999,-0.5924691,-0.3722211,-8.826904,8.581104,7.9255486,-1.5787647,9.58767,-1.3245558,1,1683807241.6350877
-1.7560999,-0.5924691,-0.3722211,-9.721718,9.563236,8.567886,-1.5787647,9.58767,-1.3245558,1,1683807241.650712
0.2747072,-1.272898,2.3075314,-14.309807,12.984943,10.736694,2.2021422,8.113776,5.0485234,1,1683807241.666341
0.37623996,-0.91414374,3.1539156,-13.978558,13.327942,9.847221,2.2063355,7.0295525,6.4720836,1,1683807241.6975877
2.4324188,0.20511287,4.173353,-13.978558,13.327942,9.847221,2.2063355,7.0295525,6.4720836,1,1683807241.728839
2.4324188,0.20511287,4.173353,-6.4289856,6.5890694,4.6082497,1.4624258,4.913107,8.3602085,1,1683807241.7444642
2.4324188,0.20511287,4.173353,-6.4289856,6.5890694,4.6082497,1.3269129,4.595429,8.561058,1,1683807241.7600868
4.0444164,1.5330311,4.1635866,-6.4289856,6.5890694,4.6082497,1.5344563,4.5823545,8.533338,1,1683807241.7757123
4.0444164,1.5330311,4.1635866,-6.4289856,6.5890694,4.6082497,1.8823327,5.8797812,7.6194077,1,1683807241.8069627
4.0444164,1.5330311,4.1635866,-9.012222,9.375782,6.2444687,1.8823327,5.8797812,7.6194077,1,1683807241.8069627
2.2493718,-0.20247409,2.9733255,-9.012222,9.375782,6.2444687,1.8006392,4.887906,8.308818,1,1683807241.8225882
1.2411718,-0.69985574,2.9376867,11.642189,-15.203018,-10.152035,2.6793268,6.3228197,7.000967,1,1683807241.8382134
1.2411718,-0.69985574,2.9376867,12.430458,-16.470737,-11.77557,2.9523005,7.3849707,5.7372923,1,1683807241.8694644
0.82724565,-0.8336,2.8427508,12.430458,-16.470737,-11.77557,2.9523005,7.3849707,5.7372923,1,1683807241.8850875
0.82724565,-0.8336,2.8427508,12.430458,-16.470737,-11.77557,2.3250332,9.005192,3.1098428,1,1683807241.9007127
0.09166005,-0.8199359,2.1672053,10.905056,-12.963848,-11.375027,2.3250332,9.005192,3.1098428,1,1683807241.9007127
-0.059645765,-0.6935166,1.9421802,10.253105,-11.561947,-10.96487,1.6075872,9.460433,2.0214505,1,1683807241.9163377
-0.55728525,-0.34621236,1.2566254,8.650932,-7.645035,-9.678059,0.774764,9.713628,1.1025265,1,1683807241.9632132
-0.55728525,-0.34621236,1.2566254,7.935028,-5.7658195,-8.710747,-0.4865473,9.794466,-0.04573057,1,1683807241.978837
-0.55728525,-0.34621236,1.2566254,7.5984383,-5.022278,-8.151455,-0.4865473,9.794466,-0.04573057,1,1683807241.9944613
-0.55728525,-0.34621236,1.2566254,6.374378,-3.4042168,-6.2745094,-0.4865473,9.794466,-0.04573057,1,1683807242.0413382
-0.55728525,-0.34621236,1.2566254,6.374378,-3.4042168,-6.2745094,-2.16547,9.448641,-1.4846896,1,1683807242.0569634
-1.2235646,-0.24663591,0.48491567,6.374378,-3.4042168,-6.2745094,-2.16547,9.448641,-1.4846896,1,1683807242.0725887
-2.7472084,0.28394297,-2.170193,-4.4059753,4.5480347,3.6207771,-2.7851088,9.168767,-2.0850112,1,1683807242.088217
-2.6944933,-0.11607645,-1.9910432,-4.4059753,4.5480347,3.6207771,-2.7851088,9.168767,-2.0850112,1,1683807242.1194632
-2.6944933,-0.11607645,-1.9910432,-4.4059753,4.5480347,3.6207771,-2.7964084,9.155309,-2.1285713,1,1683807242.1507142
-2.376246,-0.38990405,-1.3467386,-7.4686623,7.2249985,5.665016,-1.9073066,9.504682,-1.4810823,1,1683807242.1663384
-1.991847,-0.61858404,-0.48887384,-7.4686623,7.2249985,5.665016,-1.9073066,9.504682,-1.4810823,1,1683807242.1975899
-1.991847,-0.61858404,-0.48887384,-9.686604,9.003944,7.2415543,-1.201378,9.7040825,-0.7468971,1,1683807242.2132158
-1.991847,-0.61858404,-0.48887384,-10.94244,9.968052,8.3792305,-1.201378,9.7040825,-0.7468971,1,1683807242.2288377
-1.991847,-0.61858404,-0.48887384,-10.94244,9.968052,8.3792305,-0.42655376,9.79496,0.21728078,1,1683807242.244462
-1.5557187,-0.8658114,0.20985967,-10.94244,9.968052,8.3792305,1.329397,9.177281,3.1907063,1,1683807242.2600863
-1.5557187,-0.8658114,0.20985967,-11.284504,10.1960945,8.827705,1.329397,9.177281,3.1907063,1,1683807242.2757134
-0.42598268,-0.99053216,1.3381398,-11.284504,10.1960945,8.827705,1.329397,9.177281,3.1907063,1,1683807242.2757134
-0.42598268,-0.99053216,1.3381398,-11.713753,10.549641,9.623585,1.329397,9.177281,3.1907063,1,1683807242.291339
-0.42598268,-0.99053216,1.3381398,-8.051319,9.74762,6.9124413,1.4369062,5.5412564,7.962422,1,1683807242.3069632
0.39428687,-0.556345,2.917668,-8.051319,9.74762,6.9124413,1.4369062,5.5412564,7.962422,1,1683807242.3069632
1.4771767,0.1709451,3.1692934,-8.051319,9.74762,6.9124413,1.4369062,5.5412564,7.962422,1,1683807242.3225884
2.3094118,0.8655233,3.1924815,-4.6372223,6.314163,4.458046,1.4369062,5.5412564,7.962422,1,1683807242.338213
2.9319994,1.3909762,2.8261597,-4.6372223,6.314163,4.458046,1.4369062,5.5412564,7.962422,1,1683807242.353838
2.9319994,1.3909762,2.8261597,-4.6372223,6.314163,4.458046,1.3304747,5.1152806,8.260395,1,1683807242.4007127
2.9319994,1.3909762,2.8261597,4.170456,-4.947777,-3.0265045,1.3304747,5.1152806,8.260395,1,1683807242.4163382
2.9319994,1.3909762,2.8261597,4.170456,-4.947777,-3.0265045,1.1563299,4.9940257,8.360204,1,1683807242.431963
2.9319994,1.3909762,2.8261597,-0.33245087,1.3511658,1.0289955,1.1563299,4.9940257,8.360204,1,1683807242.431963
3.0391436,1.2711539,2.2108817,-0.33245087,1.3511658,1.0289955,1.1563299,4.9940257,8.360204,1,1683807242.463214
3.0391436,1.2711539,2.2108817,6.126175,-8.279896,-5.016403,1.1563299,4.9940257,8.360204,1,1683807242.4788375
2.8136332,0.9726673,2.0851905,6.126175,-8.279896,-5.016403,1.5646567,5.3931975,8.03963,1,1683807242.4944665
2.8136332,0.9726673,2.0851905,6.126175,-8.279896,-5.016403,2.3963525,6.575885,6.869179,1,1683807242.5100887
1.7827305,-0.048468817,2.5735486,9.71611,-15.39381,-9.335995,2.3963525,6.575885,6.869179,1,1683807242.5100887
1.7827305,-0.048468817,2.5735486,10.670605,-15.417175,-10.650578,2.7370648,7.456064,5.752041,1,1683807242.5413382
0.65275186,-0.4731321,2.945254,10.670605,-15.417175,-10.650578,2.7370648,7.456064,5.752041,1,1683807242.5413382
0.65275186,-0.4731321,2.945254,10.670605,-15.417175,-10.650578,2.7226427,8.2593975,4.532103,1,1683807242.5725877
0.39160258,-0.51412433,2.3097303,10.048561,-12.843552,-10.302238,2.3694282,8.902689,3.3612955,1,1683807242.6038373
0.3376742,-0.4609239,2.0185685,10.048561,-12.843552,-10.302238,2.3694282,8.902689,3.3612955,1,1683807242.6194649
0.3376742,-0.4609239,2.0185685,8.131027,-6.8662453,-9.1485405,1.0208378,9.649586,1.4190718,1,1683807242.6350865
-0.47064495,-0.25347555,0.9305679,8.518753,-8.173351,-9.545879,0.18257573,9.786603,0.5995423,1,1683807242.6507125
-0.73056585,-0.27129495,0.75410265,7.095623,-4.8326874,-7.4408913,-0.24422586,9.801057,0.22365582,1,1683807242.6663373
-1.8251634,-0.1277842,-0.3114531,7.095623,-4.8326874,-7.4408913,-1.471736,9.664652,-0.7738806,1,1683807242.6819623
-2.6747327,0.04989437,-1.509282,3.702755,-1.8127251,-2.9668236,-3.18161,9.028465,-2.1294491,1,1683807242.6975884
-2.9468465,0.099925235,-2.1965504,-1.200695,1.8507767,1.5125847,-3.18161,9.028465,-2.1294491,1,1683807242.713213
-2.450678,-0.3918604,-1.2093395,-1.200695,1.8507767,1.5125847,-3.2008235,8.972037,-2.3297348,1,1683807242.7288375
-2.450678,-0.3918604,-1.2093395,-6.9615746,6.2854576,5.7341766,-3.2008235,8.972037,-2.3297348,1,1683807242.744463
-2.450678,-0.3918604,-1.2093395,-6.9615746,6.2854576,5.7341766,-2.4737306,9.311242,-1.8307984,1,1683807242.760087
-2.450678,-0.3918604,-1.2093395,-6.9615746,6.2854576,5.7341766,-1.7523326,9.573919,-1.1999172,1,1683807242.775712
-1.5679269,-0.90926045,0.17397818,-9.0325165,8.06654,7.3800087,-1.7523326,9.573919,-1.1999172,1,1683807242.775712
-1.0253824,-1.0493438,0.6005978,-11.288776,10.09903,9.568176,-0.049037892,9.78086,0.7090516,1,1683807242.7913368
-0.5606975,-1.1325719,0.94544524,-11.919365,10.620003,10.035744,0.36817548,9.714094,1.2927555,1,1683807242.806962
0.098257035,-1.0041963,2.0258934,-11.919365,10.620003,10.035744,1.4293078,9.150456,3.2243757,1,1683807242.8225877
0.3576926,-0.71694726,2.6665432,-12.105751,11.364613,9.330521,1.4293078,9.150456,3.2243757,1,1683807242.8382134
0.3576926,-0.71694726,2.6665432,-12.404022,10.970478,10.134811,2.0573628,7.6132984,5.8288355,1,1683807242.8538373
0.3576926,-0.71694726,2.6665432,-10.806122,10.96941,8.415546,2.0573628,7.6132984,5.8288355,1,1683807242.8694627
1.6619223,0.054762486,3.2010198,-12.54034,11.230431,9.906902,1.7485825,5.8347683,7.6855917,1,1683807242.885087
3.48381,1.635034,3.357224,-0.13751984,-0.09332657,0.685997,1.6008528,5.0956054,8.2245035,1,1683807242.9163375
3.5797317,1.6081911,3.046529,2.4936485,-3.2593536,-1.4296722,1.7327924,5.2023544,8.130394,1,1683807242.9319623
1.90184,-0.0130726285,2.535726,9.105816,-13.21846,-8.627701,2.7779925,6.946191,6.3406296,1,1683807242.947601
1.90184,-0.0130726285,2.535726,9.105816,-13.21846,-8.627701,2.6667488,8.523993,4.04974,1,1683807242.9632258
3.2961373,1.4432061,2.993814,10.931625,-17.368755,-10.616531,1.3842179,4.7023125,8.493679,1,1683807242.9791389
3.2922246,1.2486938,2.6143134,5.0353622,-6.8024254,-3.9416122,1.3842179,4.7023125,8.493679,1,1683807242.994768
1.9128197,-0.24150999,3.2962134,11.530304,-18.189068,-11.363277,2.2362642,5.6920676,7.6661515,1,1683807243.0260675
1.5425854,-0.43822122,3.6020098,11.530304,-18.189068,-11.363277,2.5792446,6.228785,7.121805,1,1683807243.04179
-2.5446432,-0.2693386,-1.6457105,-7.282276,7.8801537,6.5309906,-1.5704877,9.595877,-1.274014,1,1683807243.0571947
-2.2925327,-0.43505162,-1.2540017,-7.282276,7.8801537,6.5309906,-1.5704877,9.595877,-1.274014,1,1683807243.0728197
-2.2925327,-0.43505162,-1.2540017,-7.282276,7.8801537,6.5309906,0.09074539,9.792438,0.51992023,1,1683807243.1041353
-1.3777975,-1.1740646,0.33724955,-11.26955,10.995045,9.572449,0.09074539,9.792438,0.51992023,1,1683807243.1041353
-0.9175105,-1.4532608,0.87809545,-12.56918,12.285061,10.5758095,0.93379074,9.595509,1.7957337,1,1683807243.1194756
-0.52824336,-1.5725977,1.3957381,-13.65572,13.374805,11.121216,1.6241261,9.1047945,3.2611828,1,1683807243.1351008
-0.52824336,-1.5725977,1.3957381,-14.325829,13.9915085,11.188374,1.6241261,9.1047945,3.2611828,1,1683807243.1507258
-0.52824336,-1.5725977,1.3957381,5.07061,-5.1799583,-3.2512093,1.103637,4.30068,8.743942,1,1683807243.1663508
4.5061746,1.9672031,2.9418418,5.07061,-5.1799583,-3.2512093,1.103637,4.30068,8.743942,1,1683807243.1663508
0.29666677,-1.2807082,2.4917917,10.34256,-13.423004,-13.096428,1.8198838,9.39091,2.1608353,1,1683807243.1819758
-0.6004765,-1.0164045,1.9065412,8.496456,-8.549461,-12.000275,1.8198838,9.39091,2.1608353,1,1683807243.1976008
-1.8983823,-0.95123845,1.070166,8.03196,-6.5211105,-10.7901,-1.3537536,9.708392,-0.29131085,1,1683807243.213226
-2.5334208,-0.709137,-1.546862,-13.066654,12.588673,11.346054,1.1371135,9.550193,1.9160315,1,1683807243.2288508
2.3609138,-0.17561606,3.146606,11.370487,-19.065723,-11.969433,2.8912873,7.048625,6.174766,1,1683807243.2444756
3.8535593,1.3555952,2.2977648,6.4351273,-8.979778,-5.4477882,2.8912873,7.048625,6.174766,1,1683807243.260103
3.8535593,1.3555952,2.2977648,6.4351273,-8.979778,-5.4477882,2.3149416,9.120105,2.7631721,1,1683807243.275726
1.9145335,-0.42871246,3.5527067,10.988102,-14.595928,-12.433796,2.3149416,9.120105,2.7631721,1,1683807243.275726
0.49973232,-0.835799,2.344626,10.452309,-13.084278,-12.303886,1.9149333,9.369116,2.1732635,1,1683807243.2913508
-0.38620368,-0.88778615,1.5673051,9.241066,-9.815979,-11.914024,0.40356562,9.775711,0.66557544,1,1683807243.306976
-0.38620368,-0.88778615,1.5673051,7.333145,-5.6742287,-7.983227,-2.1961062,9.489918,-1.1353271,1,1683807243.3226006
-2.0025992,-0.94415617,1.0074416,-0.53165436,5.1371,1.5350151,-3.007397,9.116265,-2.0049083,1,1683807243.3382242
-0.24416395,-1.5877329,1.9624412,-14.562283,15.4105,10.895443,1.837555,6.6306505,6.9877214,1,1683807243.3538506
-0.24416395,-1.5877329,1.9624412,-14.562283,15.4105,10.895443,1.3173585,9.413144,2.414061,1,1683807243.369476
-0.1990012,-1.223595,3.3808973,-13.794174,15.090866,10.63549,1.3173585,9.413144,2.414061,1,1683807243.385101
1.1328145,-0.63420445,3.558318,-5.1836967,5.981846,5.466881,1.6710973,6.107099,7.488735,1,1683807243.400726
5.210034,2.2210274,3.6788833,1.5306091,-2.0949745,-0.105609894,1.4439794,4.9504642,8.341355,1,1683807243.416351
3.6282914,0.055262946,2.9608746,12.287731,-18.217773,-11.483574,2.6536007,6.601587,6.7489142,1,1683807243.4319758
3.0125432,-0.4499441,3.3213425,13.152771,-20.412216,-13.22113,2.876305,7.175991,6.0334415,1,1683807243.4476008
-0.8977499,-1.9169751,1.3998784,-13.745174,12.277584,11.846733,0.7234288,9.694535,1.2895814,1,1683807243.4632258
0.701069,-1.3358649,3.7989635,-14.1212845,12.096405,12.523117,2.7177167,6.7754545,6.5481005,1,1683807243.4788508
0.5234056,-0.81382424,1.9875704,8.960953,-8.576031,-11.663685,1.8084465,9.461193,1.8400372,1,1683807243.4944758
-1.2289332,-0.703268,0.9251842,8.960953,-8.576031,-11.663685,1.8084465,9.461193,1.8400372,1,1683807243.510101
0.2925266,-0.82627505,1.651989,7.945709,-7.0729256,-9.848423,-1.3204083,9.69476,-0.66220593,1,1683807243.525711
-3.0415397,-0.3437707,-0.70267653,4.5464325,-2.581768,-4.5604515,-3.6499877,8.866928,-2.0556157,1,1683807243.5413375
-3.0415397,-0.3437707,-0.70267653,2.1932411,-0.537529,-0.9482193,-3.6499877,8.866928,-2.0556157,1,1683807243.5569625
-2.825796,-0.0423723,-1.4057928,-1.6149902,2.4302292,3.5249138,-4.0867286,8.562268,-2.4812503,1,1683807243.5725875
1.5308625,-0.88338816,3.3945613,13.177204,-20.004196,-13.55238,3.0209863,7.99667,4.805966,1,1683807243.5882125
1.5308625,-0.88338816,3.3945613,8.894863,-7.358513,-10.748577,-3.0982277,9.137774,-1.7528406,1,1683807243.6038375
-2.2468998,-1.3639362,1.4882324,8.894863,-7.358513,-10.748577,-3.0982277,9.137774,-1.7528406,1,1683807243.6038375
-3.5347812,-0.5082705,-0.7915006,6.0644913,-2.2899055,-4.6520424,-3.7101061,8.794507,-2.2499225,1,1683807243.6194625
-0.7652189,-1.2938869,1.1350743,-15.041599,15.384998,10.107174,0.32853904,9.800473,-0.1147245,1,1683807243.635087
0.2803184,-1.2382449,2.282387,-15.726662,15.486069,9.655495,2.005117,7.7553067,5.657307,1,1683807243.6507118
1.7607708,-1.2516663,2.7517126,14.163609,-18.126183,-14.322491,1.5432643,9.636451,0.9630838,1,1683807243.6663373
1.7607708,-1.2516663,2.7517126,8.943863,-11.524696,-13.968945,1.5432643,9.636451,0.9630838,1,1683807243.6819623
1.7607708,-1.2516663,2.7517126,9.058952,-15.943489,-7.338619,3.3770666,7.2326384,5.6969075,1,1683807243.6975877
0.4714184,-1.5691856,1.8936051,9.058952,-15.943489,-7.338619,3.3770666,7.2326384,5.6969075,1,1683807243.6975877
0.4714184,-1.5691856,1.8936051,9.058952,-15.943489,-7.338619,0.22123215,9.804155,-0.0032753379,1,1683807243.7132258
-3.432763,-1.2392155,0.90493834,7.0731926,-4.285145,-9.180584,-3.807838,8.735893,-2.3140728,1,1683807243.7444758
-4.4043536,-0.6456696,-0.9401373,4.9651337,0.12390137,-4.1449547,-3.807838,8.735893,-2.3140728,1,1683807243.760101
2.7350457,0.69835436,2.8110247,-13.906059,12.487469,9.226246,2.3068514,6.5121107,6.959975,1,1683807243.7757258
2.7350457,0.69835436,2.8110247,-13.906059,12.487469,9.226246,2.3256507,8.001718,5.1705174,1,1683807243.791351
2.7350457,0.69835436,2.8110247,8.40807,-9.675388,-14.073353,0.49115098,9.793075,0.15758412,1,1683807243.806976
0.63688874,-1.6931633,3.9580948,8.40807,-9.675388,-14.073353,0.49115098,9.793075,0.15758412,1,1683807243.806976
0.1758587,-0.539026,2.1669474,-0.5763817,-4.175396,0.020160675,2.2858841,7.0540757,6.4175634,1,1683807243.8226008
4.737539,2.182219,3.7250168,5.5169487,-10.963268,-5.3850365,3.090465,6.936816,6.204835,1,1683807243.8382258
4.737539,2.182219,3.7250168,9.0003395,-13.228073,-13.717537,-1.952936,9.573979,-0.83387107,1,1683807243.8538508
-2.3379228,-1.0376362,1.6319858,9.0003395,-13.228073,-13.717537,-1.952936,9.573979,-0.83387107,1,1683807243.8538508
-2.9456332,0.0847901,-3.4243917,1.74263,4.0174484,-0.3132248,-3.708531,8.529064,-3.1100245,1,1683807243.869476
-2.6315262,0.13799055,-3.8795679,-3.8329315,5.7411194,3.4545517,-3.460542,8.566665,-3.287447,1,1683807243.8851008
-2.0953362,-1.0732598,-0.8857085,-12.396545,9.260693,7.664528,-1.457751,9.550266,-1.684562,1,1683807243.900726
-1.4432061,-1.8859769,0.8783381,-14.647465,10.274868,10.314922,0.7263045,9.63135,1.6970545,1,1683807243.9163506
-0.40816325,-1.8198403,2.4793408,-13.72715,8.40847,10.850716,0.7263045,9.63135,1.6970545,1,1683807243.9476008
1.4007883,-0.60027933,3.4748623,-9.525719,8.384037,9.443474,2.564892,5.1760254,7.9246755,1,1683807243.963226
1.4007883,-0.60027933,3.4748623,-9.525719,8.384037,9.443474,2.3959463,4.04792,8.604892,1,1683807243.9788508
3.9692414,0.9292334,3.2251935,-4.8332214,3.971653,5.3347015,2.3959463,4.04792,8.604892,1,1683807243.9944613
3.9692414,0.9292334,3.2251935,-4.8332214,3.971653,5.3347015,2.5826497,3.9237776,8.608383,1,1683807244.0100873
5.149994,2.3017988,3.6210423,0.3642273,-2.3847008,0.103206635,2.5826497,3.9237776,8.608383,1,1683807244.025715
5.0877547,1.6189283,3.2459247,0.3642273,-2.3847008,0.103206635,2.5826497,3.9237776,8.608383,1,1683807244.0413373
5.0877547,1.6189283,3.2459247,0.3642273,-2.3847008,0.103206635,4.056439,6.470156,6.152461,1,1683807244.0569623
3.740076,-0.54195297,3.4162781,0.3642273,-2.3847008,0.103206635,4.056439,6.470156,6.152461,1,1683807244.0569623
2.184949,-1.4278737,4.3734765,10.180607,-13.086414,-14.861622,4.056439,6.470156,6.152461,1,1683807244.0725873
1.3595382,-1.6331232,4.1284485,10.2978325,-15.906105,-14.971371,3.9437835,7.5563416,4.8496037,1,1683807244.0882125
0.7381637,-1.5611327,3.074843,10.2978325,-15.906105,-14.971371,2.4239104,9.168104,2.4981835,1,1683807244.103838
0.7381637,-1.5611327,3.074843,9.641609,-7.5395584,-13.755856,0.687418,9.728629,1.0254804,1,1683807244.119463
-0.03939987,-1.4210494,1.8528556,9.641609,-7.5395584,-13.755856,0.687418,9.728629,1.0254804,1,1683807244.119463
-0.03939987,-1.4210494,1.8528556,9.648018,-6.9802666,-13.510857,0.687418,9.728629,1.0254804,1,1683807244.1350873
-0.03939987,-1.4210494,1.8528556,9.655495,-6.2612915,-12.145138,0.687418,9.728629,1.0254804,1,1683807244.1507125
-1.4834856,-1.479861,0.91981566,9.655495,-6.2612915,-12.145138,-1.1810389,9.729706,-0.32917783,1,1683807244.166351
-2.2193139,-1.2045623,0.33555102,8.772297,-5.1065254,-10.529213,-2.3273084,9.463578,-1.0930254,1,1683807244.181976
-2.3562276,-0.5946681,-2.2875736,-2.173214,7.713928,1.8992424,-2.6254206,9.154278,-2.3402495,1,1683807244.197601
-1.9220556,-1.0920498,-0.8722871,-11.786251,9.502487,8.486843,-2.6254206,9.154278,-2.3402495,1,1683807244.213225
-1.9220556,-1.0920498,-0.8722871,-11.786251,9.502487,8.486843,-1.7280871,9.531834,-1.5258647,1,1683807244.2288516
-1.1090958,-1.750519,0.6672197,-13.42247,10.4229355,9.54895,-0.77849144,9.767666,-0.39627475,1,1683807244.2444758
-1.1090958,-1.750519,0.6672197,-13.42247,10.4229355,9.54895,0.96293414,9.429877,2.5140738,1,1683807244.2601008
-1.1090958,-1.750519,0.6672197,-14.436512,11.269817,10.387287,0.15631641,9.756677,0.9763267,1,1683807244.2757258
-0.5668092,-1.8564497,1.4853054,-15.091667,11.726837,10.737762,0.15631641,9.756677,0.9763267,1,1683807244.291351
2.7350457,0.45185494,4.4315605,0.9213829,-2.0778847,0.20013809,2.1416323,5.4798107,7.8457294,1,1683807244.306976
2.7350457,0.45185494,4.4315605,0.9213829,-2.0778847,0.20013809,1.6368195,9.496636,1.8179944,1,1683807244.3226006
0.5951534,-1.4373977,2.9425697,11.844597,-15.554562,-14.343853,1.6368195,9.496636,1.8179944,1,1683807244.3226006
0.5951534,-1.4373977,2.9425697,9.121704,-6.401882,-11.481571,-0.15152441,9.80095,0.29799524,1,1683807244.3850868
-0.7669326,-1.4181224,2.5825872,9.121704,-6.401882,-11.481571,-0.15152441,9.80095,0.29799524,1,1683807244.3850868
-0.7669326,-1.4181224,2.5825872,9.121704,-6.401882,-11.481571,-1.3620987,9.6988325,-0.49771744,1,1683807244.4007123
-3.0669267,-0.026494063,-2.8420835,-2.971096,4.379673,3.304348,-3.8013308,8.465788,-3.1702852,1,1683807244.4163375
-1.1151923,-2.053146,1.1433849,-15.026779,12.118835,11.472759,0.63422793,9.706774,1.2436644,1,1683807244.4319623
-1.1151923,-2.053146,1.1433849,-15.026779,12.118835,11.472759,1.4886307,9.253834,2.8846033,1,1683807244.4475873
-0.5445918,-2.0943959,1.8101496,-15.404892,12.239265,11.804142,1.4886307,9.253834,2.8846033,1,1683807244.4475873
-0.5445918,-2.0943959,1.8101496,-13.449039,11.287975,10.004902,1.4886307,9.253834,2.8846033,1,1683807244.4788368
-0.23244104,-1.9757868,2.2553015,-14.107399,11.905746,10.61533,1.8206177,8.891326,3.714843,1,1683807244.4944618
0.68155104,-1.0432473,3.616902,-14.107399,11.905746,10.61533,1.8206177,8.891326,3.714843,1,1683807244.5100873
0.68155104,-1.0432473,3.616902,-14.107399,11.905746,10.61533,2.316142,7.3919554,6.013723,1,1683807244.5257127
1.8984126,-0.31204456,4.1391854,-7.4622536,7.2356796,5.7790375,2.0712798,5.455529,7.881459,1,1683807244.5413375
5.456048,2.1541479,5.0402412,-7.4622536,7.2356796,5.7790375,2.0761905,5.1893063,8.057972,1,1683807244.5569623
5.6922956,2.2939885,4.632912,12.6200485,-17.045918,-11.83939,2.0761905,5.1893063,8.057972,1,1683807244.5725892
3.68956,0.7793683,4.5914197,-0.6765175,0.32310486,0.6624985,2.9216404,6.7501674,6.4861116,1,1683807244.6038373
-3.2402072,-0.022111244,-3.3570418,1.5008354,3.141861,1.7117882,-3.8334787,8.511496,-3.004874,1,1683807244.6194632
-1.8441961,-0.2537182,-2.5143123,-2.183895,4.3445587,4.1267967,-2.8418276,8.923946,-2.9081936,1,1683807244.635088
-1.8441961,-0.2537182,-2.5143123,-9.303017,8.29031,7.172394,-2.8418276,8.923946,-2.9081936,1,1683807244.666343
-1.8441961,-0.2537182,-2.5143123,-9.303017,8.29031,7.172394,-2.0529559,9.294559,-2.3594358,1,1683807244.681963
-1.7780595,-0.9663736,-0.24043325,-12.780132,11.236839,9.339066,-0.22383352,9.798644,-0.3269175,1,1683807244.697586
-0.8677223,-1.776634,1.3786467,-12.984676,10.314255,11.067009,1.5338186,9.380696,2.412538,1,1683807244.728838
-0.8677223,-1.776634,1.3786467,-12.360363,9.136124,11.283169,1.5338186,9.380696,2.412538,1,1683807244.7600877
0.17049013,-1.530635,2.1320517,-11.89373,8.50647,11.189442,2.5712624,8.36425,4.4269967,1,1683807244.7757134
0.17049013,-1.530635,2.1320517,-5.634308,2.4995232,6.1678314,3.5890048,6.307441,6.5958786,1,1683807244.8069625
0.17049013,-1.530635,2.1320517,0.36849976,-2.4199486,0.35247803,3.5890048,6.307441,6.5958786,1,1683807244.8225875
0.17049013,-1.530635,2.1320517,0.36849976,-2.4199486,0.35247803,3.8252268,6.129461,6.630818,1,1683807244.8382132
4.3485146,0.16166383,2.190636,9.879131,-14.223022,-11.876774,4.0340304,7.5085316,4.8496323,1,1683807244.8538375
2.5070937,-0.1897806,3.2505653,9.879131,-14.223022,-11.876774,4.0340304,7.5085316,4.8496323,1,1683807244.8694632
2.5070937,-0.1897806,3.2505653,9.879131,-14.223022,-11.876774,4.015608,6.620385,6.0179553,1,1683807244.885088
2.863664,-1.0715612,2.616755,10.418129,-16.91494,-14.583511,3.6507046,8.428944,3.4344764,1,1683807244.9319623
2.863664,-1.0715612,2.616755,10.418129,-16.91494,-14.583511,2.282295,9.419748,1.4932692,1,1683807244.9475887
2.863664,-1.0715612,2.616755,10.418129,-16.91494,-14.583511,0.40643322,9.79776,0.09538632,1,1683807244.9632123
-0.7473995,-1.4508191,3.312319,8.655205,-9.660435,-13.260517,0.40643322,9.79776,0.09538632,1,1683807244.9632123
-2.8238394,-1.1350136,1.0328135,8.296185,-2.980175,-9.109154,-0.82296324,9.749597,-0.66217095,1,1683807244.9944632
-3.211408,-0.86605406,-0.67069256,8.296185,-2.980175,-9.109154,-0.82296324,9.749597,-0.66217095,1,1683807245.0569627
-2.9873686,-0.34889662,-1.905146,7.534485,-0.7889366,-6.344738,-2.8918762,9.052701,-2.41993,1,1683807245.0725877
-2.9873686,-0.34889662,-1.905146,5.8268356,0.68746567,-3.5655022,-2.8918762,9.052701,-2.41993,1,1683807245.0882127
-2.2810676,0.2444066,-3.094922,3.498211,1.8614578,-1.2176514,-3.2405684,8.694531,-3.173994,1,1683807245.1038375
-2.2810676,0.2444066,-3.094922,0.7765198,2.7807045,0.72752,-3.176734,8.61504,-3.443813,1,1683807245.1194625
-2.1014326,0.23512533,-2.8986962,-2.098713,3.5146332,2.4287605,-3.176734,8.61504,-3.443813,1,1683807245.135087
-2.062139,-0.005505063,-2.1045415,-2.098713,3.5146332,2.4287605,-2.5098736,8.894655,-3.2796392,1,1683807245.166337
-2.062139,-0.005505063,-2.1045415,-7.202301,6.300411,5.43911,-2.5098736,8.894655,-3.2796392,1,1683807245.1819627
-1.9686742,-0.2864301,-1.2330128,-7.202301,6.300411,5.43911,-2.5098736,8.894655,-3.2796392,1,1683807245.1975877
-1.9686742,-0.2864301,-1.2330128,-7.202301,6.300411,5.43911,-1.1750644,9.490312,-2.1733835,1,1683807245.2132125
-1.9686742,-0.2864301,-1.2330128,-10.7891655,10.172596,9.107952,-1.1750644,9.490312,-2.1733835,1,1683807245.228837
-1.9686742,-0.2864301,-1.2330128,-11.251392,10.0938225,10.464058,-0.32599062,9.715187,-1.2958609,1,1683807245.244463
-1.889101,-0.42382917,-0.5154741,-11.251392,10.0938225,10.464058,-0.32599062,9.715187,-1.2958609,1,1683807245.244463
-1.889101,-0.42382917,-0.5154741,-11.251392,10.0938225,10.464058,1.4657352,9.649134,0.9572121,1,1683807245.2600892
-1.889101,-0.42382917,-0.5154741,-8.970699,8.065472,6.776123,1.4657352,9.649134,0.9572121,1,1683807245.275713
-1.4188049,-0.8345706,0.43926764,-8.970699,8.065472,6.776123,1.4657352,9.649134,0.9572121,1,1683807245.275713
-1.4188049,-0.8345706,0.43926764,-3.012619,4.6619225,2.6673508,-2.6752286,8.980095,-2.8933444,1,1683807245.2913373
-2.7977245,-0.21174018,-1.5212324,-3.012619,4.6619225,2.6673508,-2.6752286,8.980095,-2.8933444,1,1683807245.2913373
-2.7977245,-0.21174018,-1.5212324,-7.8862953,7.9387665,5.883312,-2.6752286,8.980095,-2.8933444,1,1683807245.306962
-2.4494648,-0.43846384,-1.4948748,-7.8862953,7.9387665,5.883312,-2.6752286,8.980095,-2.8933444,1,1683807245.306962
-1.9786682,-0.9583056,-0.07276389,-11.26955,10.71907,8.297253,-0.11993553,9.794391,-0.47530532,1,1683807245.3225887
-1.2457669,-1.2877904,0.97815716,-13.461857,13.114853,10.802784,1.5849384,9.403371,2.2880068,1,1683807245.3694625
0.94098663,-0.8108973,2.6208951,-13.280811,13.425941,9.882336,2.429012,7.353642,6.0161643,1,1683807245.385087
0.94098663,-0.8108973,2.6208951,-11.517754,11.395588,7.903118,2.2455504,6.3115416,7.161865,1,1683807245.4007132
4.0256267,1.2984821,4.390553,-11.517754,11.395588,7.903118,2.2455504,6.3115416,7.161865,1,1683807245.4163375
-0.03304554,-1.2843782,2.4559252,8.759613,-7.3254013,-10.826416,-0.3058136,9.800526,-0.16296089,1,1683807245.431963
-3.2253146,-0.5590293,-0.93355554,7.177601,-2.233429,-6.160488,-2.8029928,9.134649,-2.2072153,1,1683807245.4475877
-3.748326,-0.11557599,-3.0085244,1.4774704,3.0556107,1.1961555,-2.8029928,9.134649,-2.2072153,1,1683807245.4632144
-3.748326,-0.11557599,-3.0085244,5.6425858,-0.4225731,-3.5676384,-3.0101418,8.9995985,-2.4731889,1,1683807245.4788368
-3.748326,-0.11557599,-3.0085244,1.4774704,3.0556107,1.1961555,-2.9604049,8.813307,-3.119617,1,1683807245.4944623
-2.895117,-0.3581779,-3.0046117,-4.811859,7.0609093,5.818424,-2.3748605,9.02065,-3.0262678,1,1683807245.5100875
-0.5531299,-1.6377637,1.5753579,-11.842594,11.266613,9.557495,-0.9842223,9.527811,-2.102981,1,1683807245.5257132
-0.29003948,-1.6094499,1.7976987,-14.020081,13.190556,10.886898,2.4329946,9.02149,2.977186,1,1683807245.5413382
-0.29003948,-1.6094499,1.7976987,-14.020081,13.190556,10.886898,3.004868,7.6057076,5.4124274,1,1683807245.572588
0.9273225,-1.7649262,2.9911296,10.930557,-16.580486,-15.126781,1.9510453,9.575615,0.81939054,1,1683807245.5882127
-3.0378847,-0.023567129,-2.5711677,1.5902901,3.2206345,0.7423401,-3.655004,8.430287,-3.4266005,1,1683807245.603838
-3.0378847,-0.023567129,-2.5711677,-5.747261,5.349121,6.2498093,-2.275309,8.96357,-3.2630916,1,1683807245.6350877
-2.156104,-0.042614948,-2.406683,-5.747261,5.349121,6.2498093,-2.275309,8.96357,-3.2630916,1,1683807245.6350877
-1.8395554,-0.48800942,-1.0736389,-6.8763924,6.2587547,6.9635773,-1.8842812,9.134822,-3.0290098,1,1683807245.6507127
-1.6455437,-1.1154804,0.30503812,-10.037079,9.856167,9.773788,0.06272481,9.692605,-1.4899154,1,1683807245.6663377
-0.59121037,-1.3544123,0.7528894,-11.088505,10.501709,11.4291,0.06272481,9.692605,-1.4899154,1,1683807245.6819627
-0.026463732,-1.3270842,1.1580195,-11.19278,10.041618,11.865959,1.7289599,9.649779,0.25066307,1,1683807245.713213
3.850147,1.8022181,3.3957746,-1.0387421,2.2821617,2.57576,4.550368,4.9417214,7.144504,1,1683807245.744462
2.6452358,0.7739997,1.2702894,4.9949074,-6.0162926,-3.6358643,4.820559,5.373076,6.6379704,1,1683807245.7600875
0.7301109,0.36228773,1.134589,3.9222527,-3.3295822,-4.831085,4.7439537,8.225981,2.4491901,1,1683807245.7913375
1.4832733,0.986574,0.19887987,3.4524155,-1.233139,-4.596634,4.0740943,8.746754,1.7511312,1,1683807245.822588
2.0899978,1.2496796,0.09076529,3.4524155,-1.233139,-4.596634,4.0740943,8.746754,1.7511312,1,1683807245.8382134
2.0899978,1.2496796,0.09076529,4.0713882,-2.9461288,-5.626831,3.6709177,8.998604,1.3114462,1,1683807245.8538377
2.0899978,1.2496796,0.09076529,4.6668625,-4.439621,-6.473713,3.4233887,9.132668,1.0223445,1,1683807245.8850875
0.0936164,-0.15242806,0.57593876,4.6668625,-4.439621,-6.473713,3.4233887,9.132668,1.0223445,1,1683807245.9007125
0.0936164,-0.15242806,0.57593876,4.6668625,-4.439621,-6.473713,0.27123025,9.649706,-1.7262675,1,1683807245.9163377
1.5457549,0.778155,0.7611849,6.739807,-9.161892,-9.098473,2.3642483,9.516276,-0.14559615,1,1683807245.9319632
1.5457549,0.778155,0.7611849,6.739807,-9.161892,-9.098473,1.9000609,9.603518,-0.57672507,1,1683807245.9475884
1.5457549,0.778155,0.7611849,6.7248535,-9.276981,-10.323601,1.9000609,9.603518,-0.57672507,1,1683807245.9632132
1.5457549,0.778155,0.7611849,5.7011986,-7.5832176,-9.912376,-0.8669575,9.500829,-2.2700245,1,1683807245.9788377
1.5457549,0.778155,0.7611849,5.7011986,-7.5832176,-9.912376,-2.7321262,8.970684,-2.8692696,1,1683807245.9944632
-2.8724144,-0.74062055,-0.048847955,5.072613,-6.614971,-9.427719,-2.7321262,8.970684,-2.8692696,1,1683807245.9944632
-2.8724144,-0.74062055,-0.048847955,3.2095528,-3.0377197,-6.6718483,-3.5217078,8.591482,-3.1550555,1,1683807246.010088
-3.8420486,-0.40992245,-1.9910432,0.37704468,1.0240555,-1.301899,-3.5217078,8.591482,-3.1550555,1,1683807246.0257127
-3.8420486,-0.40992245,-1.9910432,-3.0990028,3.2387924,3.1680298,-3.3079364,8.696381,-3.0985372,1,1683807246.0569644
-1.661892,-1.8037347,0.6120629,-11.391983,10.3536415,10.596104,-0.4763667,9.746527,-0.9740123,1,1683807246.0725915
-0.44063252,-2.0553448,1.6202629,-12.716179,12.17104,12.063026,2.6361623,8.875615,3.2317958,1,1683807246.0882132
5.034797,1.0737147,4.617292,-10.847645,9.748688,8.989658,3.144164,8.081723,4.5793414,1,1683807246.1038382
5.034797,1.0737147,4.617292,-10.847645,9.748688,8.989658,3.3001914,7.617998,5.219695,1,1683807246.1194625
5.278612,1.3158162,3.1312282,9.609699,-10.833359,-8.623428,2.4023914,9.259608,2.1583676,1,1683807246.1507123
2.3862855,-1.0356798,2.06957,11.793461,-15.50663,-13.886833,2.4023914,9.259608,2.1583676,1,1683807246.1663373
2.3862855,-1.0356798,2.06957,11.793461,-15.50663,-13.886833,1.3147255,9.673402,0.9312308,1,1683807246.1819632
1.7431941,-1.437155,2.142061,11.793461,-15.50663,-13.886833,1.3147255,9.673402,0.9312308,1,1683807246.1819632
-2.7415972,-1.7229482,2.0041614,4.4527054,2.0658684,-5.3136063,0.039789684,9.8063,0.072693445,1,1683807246.1975877
-1.5754944,-0.12998317,-2.4501169,-2.8102112,7.00243,5.6074715,-2.0664046,9.348568,-2.1224124,1,1683807246.2132125
-1.5754944,-0.12998317,-2.4501169,-7.9320908,6.7583656,7.3534393,-0.8791573,9.671563,-1.3632112,1,1683807246.2288365
-0.3288479,-0.2659264,-1.0897447,-7.9320908,6.7583656,7.3534393,-0.8791573,9.671563,-1.3632112,1,1683807246.2444632
0.16512156,-0.29935107,0.15910086,-9.363766,7.1504974,7.301235,-0.8791573,9.671563,-1.3632112,1,1683807246.2757127
0.30740392,-0.2598147,0.69456303,-9.795151,7.782154,7.163849,-0.09888546,9.792319,-0.52066976,1,1683807246.2913404
0.30740392,-0.2598147,0.69456303,-9.795151,7.782154,7.163849,1.7699251,7.1628494,6.45998,1,1683807246.3069623
0.5360991,0.4525829,0.94324625,-5.915489,5.949936,4.192753,1.7699251,7.1628494,6.45998,1,1683807246.3069623
0.6261516,0.6329457,0.9793704,-4.8843575,3.956833,3.1851196,1.7315688,6.7636805,6.8865585,1,1683807246.3225875
0.25688776,0.2724627,1.1528937,-3.6816597,1.7207336,1.3251305,1.0300522,4.981307,8.384269,1,1683807246.3382132
0.25688776,0.2724627,1.1528937,-3.6816597,1.7207336,1.3251305,0.9314695,4.645892,8.585944,1,1683807246.3538368
0.2874007,0.28638458,1.2749301,-3.6816597,1.7207336,1.3251305,0.9314695,4.645892,8.585944,1,1683807246.3694625
0.2874007,0.28638458,1.2749301,-3.5282516,1.4213943,1.3336754,0.90297073,4.4844155,8.67439,1,1683807246.3850884
0.50362986,0.25904128,1.7144707,-3.5282516,1.4213943,1.3336754,0.90297073,4.4844155,8.67439,1,1683807246.4007134
0.49948967,0.30029133,1.4726119,-3.5282516,1.4213943,1.3336754,0.90297073,4.4844155,8.67439,1,1683807246.4163382
0.1438899,0.27393374,1.3298442,-1.8270111,1.3169861,1.0279274,0.78177756,3.9012864,8.963211,1,1683807246.4319634
0.16683525,0.25074574,1.5482724,-1.3870811,0.116558075,1.2292671,0.6187094,3.4462106,9.160306,1,1683807246.4632142
0.24687856,0.275147,1.7486385,-1.121788,-0.2169609,1.3037682,0.6187094,3.4462106,9.160306,1,1683807246.478838
0.5190076,0.3713112,1.8687186,-1.121788,-0.2169609,1.3037682,0.6187094,3.4462106,9.160306,1,1683807246.494463
0.5190076,0.3713112,1.8687186,-1.121788,-0.2169609,1.3037682,0.7441249,3.2883344,9.208882,1,1683807246.5100875
0.5190076,0.3713112,1.8687186,-0.23658752,0.059013367,1.2504959,0.7441249,3.2883344,9.208882,1,1683807246.525718
0.6644596,0.4564804,1.7244799,0.93099594,0.8813286,0.47718048,0.67868274,3.4045904,9.171617,1,1683807246.5569625
0.6644596,0.4564804,1.7244799,0.6869316,0.8973503,0.72752,0.67868274,3.4045904,9.171617,1,1683807246.5725884
0.5192503,0.7830383,1.5843965,0.7572937,0.36262512,-0.50081253,0.5802028,3.6072521,9.100632,1,1683807246.588212
0.5192503,0.7830383,1.5843965,2.1166039,-0.579052,-1.445694,0.5802028,3.6072521,9.100632,1,1683807246.6194632
-0.07770783,0.23708168,1.0767479,2.1166039,-0.579052,-1.445694,0.5334439,3.8357291,9.009606,1,1683807246.6350882
-0.07770783,0.23708168,1.0767479,2.979374,-1.2247276,-1.394558,0.57240266,4.0882897,8.895427,1,1683807246.6507156
0.11704704,0.39595506,1.5358216,2.979374,-1.2247276,-1.394558,0.57240266,4.0882897,8.895427,1,1683807246.6507156
0.46946207,0.6758943,1.5717031,2.979374,-1.2247276,-1.394558,0.57240266,4.0882897,8.895427,1,1683807246.6975884
-0.016211879,0.32347932,1.2100067,3.1402588,-1.3961601,-1.3753319,0.6038569,4.2287602,8.827419,1,1683807246.7288358
-0.016211879,0.32347932,1.2100067,2.6545334,-0.9029579,-1.0280609,0.6651675,4.6134195,8.628112,1,1683807246.744463
-0.17899795,0.38303408,0.77363575,2.6545334,-0.9029579,-1.0280609,0.65691227,4.8038716,8.524181,1,1683807246.7600877
-0.0052320845,0.43304977,0.73604053,0.96717834,0.8164406,-0.31536102,0.5300625,5.0289855,8.402306,1,1683807246.775713
-0.0052320845,0.43304977,0.73604053,1.3964272,0.38812637,-0.43899536,0.5300625,5.0289855,8.402306,1,1683807246.791338
-0.0052320845,0.43304977,0.73604053,1.3964272,0.38812637,-0.43899536,0.48204762,5.0637684,8.384287,1,1683807246.8069625
-0.009372256,0.45770884,0.70944035,0.80415726,0.9591675,-0.28024673,0.48204762,5.0637684,8.384287,1,1683807246.8069625
0.023324482,0.4652764,0.6806411,0.32484055,1.1934853,-0.21736145,0.2137246,5.1691775,8.330926,1,1683807246.8225873
-0.019866755,0.4516123,0.61426187,-0.07036209,1.0464859,-0.13431549,0.32385984,5.137355,8.34704,1,1683807246.8382125
-0.06771379,0.46723273,0.48955628,-0.43258667,0.66610336,-0.05968094,0.32385984,5.137355,8.34704,1,1683807246.8538375
-0.0969983,0.43574923,0.92397094,-0.1918602,0.52337646,0.01695633,-0.19178136,5.1043124,8.371356,1,1683807246.8694632
-0.119443186,0.42402634,0.9788851,-0.1918602,0.52337646,0.01695633,-0.19178136,5.1043124,8.371356,1,1683807246.8850873
-0.1052938,0.40644956,1.0054853,0.039253235,0.46689987,0.079841614,-0.27713516,5.075398,8.386531,1,1683807246.900712
-0.09601254,0.41451758,1.0076844,0.039253235,0.46689987,0.079841614,-0.27713516,5.075398,8.386531,1,1683807246.9163373
-0.07576665,0.43452084,0.5134722,0.2726364,0.6885338,0.049934387,-0.3695467,5.112797,8.360211,1,1683807246.931962
