acc_x,acc_y,acc_z,gyr_x,gyr_y,gyr_z,grav_x,grav_y,grav_z,label,timestamp
-0.27149212,0.49651724,0.6369646,5.9096146,-8.66375,-4.702778,3.2908092,9.237969,0.029844094,1,1683900607.9390233
-1.1671795,0.35276383,-0.032984883,4.2318726,-4.079933,-2.6382446,2.742888,9.371899,-0.90246785,1,1683900607.952514
-1.1671795,0.35276383,-0.032984883,2.1076584,-0.48892975,-0.8176422,2.742888,9.371899,-0.90246785,1,1683900607.9577677
-1.1671795,0.35276383,-0.032984883,2.1076584,-0.48892975,-0.8176422,2.5764258,9.385137,-1.2048342,1,1683900607.9629755
-1.3568084,0.26563823,-0.64970356,2.1076584,-0.48892975,-0.8176422,2.5764258,9.385137,-1.2048342,1,1683900607.9733527
-1.1169059,0.26953575,-0.62066174,2.1076584,-0.48892975,-0.8176422,2.5764258,9.385137,-1.2048342,1,1683900607.9836571
-1.1169059,0.26953575,-0.62066174,-0.6598282,3.189392,0.8675766,2.5764258,9.385137,-1.2048342,1,1683900607.988791
-1.1169059,0.26953575,-0.62066174,-0.6598282,3.189392,0.8675766,2.6169174,9.37859,-1.1679813,1,1683900607.9990027
-0.48113945,0.5531299,-0.48301998,-0.6598282,3.189392,0.8675766,2.6169174,9.37859,-1.1679813,1,1683900608.0195017
-0.48113945,0.5531299,-0.48301998,-2.9341125,6.9115067,2.2279549,2.6169174,9.37859,-1.1679813,1,1683900608.0348487
-0.48113945,0.5531299,-0.48301998,-2.9341125,6.9115067,2.2279549,2.837176,9.354075,-0.788733,1,1683900608.045143
-0.48113945,0.5531299,-0.48301998,-2.9341125,6.9115067,2.2279549,2.9834557,9.328646,-0.49573398,1,1683900608.0605156
0.18611056,0.6639288,0.10588526,-2.9341125,6.9115067,2.2279549,2.9834557,9.328646,-0.49573398,1,1683900608.0861688
0.18611056,0.6639288,0.10588526,-2.9341125,6.9115067,2.2279549,3.419342,9.162192,0.72987163,1,1683900608.1014943
0.18611056,0.6639288,0.10588526,-5.8774376,11.286507,3.5573578,3.419342,9.162192,0.72987163,1,1683900608.1117198
0.4284698,0.7642483,0.42146337,-5.8774376,11.286507,3.5573578,3.419342,9.162192,0.72987163,1,1683900608.1321683
0.4284698,0.7642483,0.42146337,-5.8774376,11.286507,3.5573578,3.6089256,8.947237,1.758687,1,1683900608.1424308
0.4284698,0.7642483,0.42146337,-6.7531586,12.44875,3.787403,3.6089256,8.947237,1.758687,1,1683900608.1475506
0.4284698,0.7642483,0.42146337,-6.941681,12.701225,3.7799263,3.6089256,8.947237,1.758687,1,1683900608.1629379
0.47483063,0.81012386,0.564959,-6.941681,12.701225,3.7799263,3.6089256,8.947237,1.758687,1,1683900608.1834452
0.47483063,0.81012386,0.564959,-6.941681,12.701225,3.7799263,3.6490815,8.8065405,2.3020463,1,1683900608.1885808
0.5978377,0.77595603,0.9342228,-6.941681,12.701225,3.7799263,3.6490815,8.8065405,2.3020463,1,1683900608.193674
0.5978377,0.77595603,0.9342228,-6.941681,12.701225,3.7799263,3.5416324,8.289781,3.860928,1,1683900608.2090037
0.5978377,0.77595603,0.9342228,-6.5486145,12.20789,3.5263824,3.5416324,8.289781,3.860928,1,1683900608.2141285
0.5978377,0.77595603,0.9342228,-6.1810493,11.769028,3.364563,3.5416324,8.289781,3.860928,1,1683900608.239746
0.5978377,0.77595603,0.9342228,-6.1810493,11.769028,3.364563,3.4413528,8.100473,4.3254833,1,1683900608.2499692
0.6854486,0.78693587,1.0062133,-6.1810493,11.769028,3.364563,3.4413528,8.100473,4.3254833,1,1683900608.2550597
0.95757765,0.9424122,0.76826715,-6.1810493,11.769028,3.364563,3.4413528,8.100473,4.3254833,1,1683900608.2704608
0.95757765,0.9424122,0.76826715,-4.5895576,9.44788,2.3790932,3.4413528,8.100473,4.3254833,1,1683900608.2755916
0.95757765,0.9424122,0.76826715,-4.5895576,9.44788,2.3790932,3.0214148,7.5770044,5.443386,1,1683900608.290944
1.1755205,1.0117184,0.46978053,-4.5895576,9.44788,2.3790932,3.0214148,7.5770044,5.443386,1,1683900608.3063269
1.1755205,1.0117184,0.46978053,-3.076973,5.9739685,1.1711884,3.0214148,7.5770044,5.443386,1,1683900608.31658
1.1755205,1.0117184,0.46978053,-3.076973,5.9739685,1.1711884,2.7563856,7.334996,5.896657,1,1683900608.326839
1.1755205,1.0117184,0.46978053,-3.076973,5.9739685,1.1711884,2.67813,7.2676888,6.0148745,1,1683900608.347291
1.2594765,1.0668751,0.40095967,-3.076973,5.9739685,1.1711884,2.67813,7.2676888,6.0148745,1,1683900608.3524158
1.2594765,1.0668751,0.40095967,-2.0840263,3.5612297,0.44887543,2.67813,7.2676888,6.0148745,1,1683900608.3626678
1.2516663,1.198663,0.7440934,-2.0840263,3.5612297,0.44887543,2.67813,7.2676888,6.0148745,1,1683900608.367801
1.2516663,1.198663,0.7440934,-2.0840263,3.5612297,0.44887543,2.7588465,7.3460727,5.8816986,1,1683900608.3729253
1.2516663,1.198663,0.7440934,1.6773415,-4.658451,-1.9169998,2.7588465,7.3460727,5.8816986,1,1683900608.388287
1.2516663,1.198663,0.7440934,2.9354477,-6.972122,-2.6126099,2.7588465,7.3460727,5.8816986,1,1683900608.4036705
1.1225626,1.1532727,0.98132676,2.9354477,-6.972122,-2.6126099,2.7588465,7.3460727,5.8816986,1,1683900608.4088023
1.1225626,1.1532727,0.98132676,2.9354477,-6.972122,-2.6126099,2.8705428,7.464535,5.6754813,1,1683900608.434474
0.659091,0.8923662,1.0723499,2.9354477,-6.972122,-2.6126099,2.8705428,7.464535,5.6754813,1,1683900608.4396007
0.659091,0.8923662,1.0723499,2.9354477,-6.972122,-2.6126099,3.218385,7.9885015,4.6900144,1,1683900608.44986
0.659091,0.8923662,1.0723499,5.4600716,-10.425739,-3.9175797,3.218385,7.9885015,4.6900144,1,1683900608.4600837
0.4272414,0.81060916,0.76069957,5.4600716,-10.425739,-3.9175797,3.218385,7.9885015,4.6900144,1,1683900608.4856205
0.4272414,0.81060916,0.76069957,5.9373856,-10.717602,-4.2404175,3.218385,7.9885015,4.6900144,1,1683900608.501087
0.4272414,0.81060916,0.76069957,5.9373856,-10.717602,-4.2404175,3.335893,8.371415,3.8680265,1,1683900608.506217
0.33815947,0.803542,0.56740063,5.9373856,-10.717602,-4.2404175,3.335893,8.371415,3.8680265,1,1683900608.5164406
0.33815947,0.803542,0.56740063,5.9373856,-10.717602,-4.2404175,3.34885,8.550242,3.4422314,1,1683900608.5266638
0.33815947,0.803542,0.56740063,5.90641,-10.64724,-4.2894173,3.34885,8.550242,3.4422314,1,1683900608.531759
0.22663267,0.7652189,0.26453117,5.90641,-10.64724,-4.2894173,3.34885,8.550242,3.4422314,1,1683900608.54708
0.22663267,0.7652189,0.26453117,5.90641,-10.64724,-4.2894173,3.2213414,8.994422,2.2121744,1,1683900608.5676155
0.22663267,0.7652189,0.26453117,5.24498,-10.10931,-4.25951,3.2213414,8.994422,2.2121744,1,1683900608.5778399
0.22663267,0.7652189,0.26453117,4.956188,-9.795151,-4.236145,3.2213414,8.994422,2.2121744,1,1683900608.5881498
0.21515241,0.7473995,0.24110052,4.956188,-9.795151,-4.236145,3.2213414,8.994422,2.2121744,1,1683900608.6035178
0.21515241,0.7473995,0.24110052,4.956188,-9.795151,-4.236145,3.127946,9.111895,1.8329508,1,1683900608.6137662
0.21515241,0.7473995,0.24110052,4.132805,-8.573227,-4.033737,3.127946,9.111895,1.8329508,1,1683900608.618862
-0.0008341004,0.68467516,0.26867133,4.132805,-8.573227,-4.033737,3.127946,9.111895,1.8329508,1,1683900608.629081
-0.0008341004,0.68467516,0.26867133,4.132805,-8.573227,-4.033737,2.7299676,9.382286,0.83089143,1,1683900608.649551
-0.0008341004,0.68467516,0.26867133,3.564968,-7.257576,-3.5245132,2.7299676,9.382286,0.83089143,1,1683900608.6751282
-0.0008341004,0.68467516,0.26867133,3.564968,-7.257576,-3.5245132,2.4159765,9.499898,0.29221892,1,1683900608.6802614
-0.55191666,0.633431,0.37752903,3.564968,-7.257576,-3.5245132,2.4159765,9.499898,0.29221892,1,1683900608.7007725
-0.55191666,0.633431,0.37752903,3.2027435,-6.2403297,-3.0845833,2.4159765,9.499898,0.29221892,1,1683900608.7059014
-0.55191666,0.633431,0.37752903,3.2027435,-6.2403297,-3.0845833,2.267269,9.540684,0.07233218,1,1683900608.7161076
-1.1044551,0.44917068,0.023885604,3.2027435,-6.2403297,-3.0845833,2.267269,9.540684,0.07233218,1,1683900608.721197
-1.1044551,0.44917068,0.023885604,1.2566376,-1.4145851,-1.1394119,2.267269,9.540684,0.07233218,1,1683900608.7468457
-1.1044551,0.44917068,0.023885604,1.2566376,-1.4145851,-1.1394119,1.9594264,9.603809,-0.31285092,1,1683900608.7519748
-1.1044551,0.44917068,0.023885604,0.27757645,0.51776886,-0.3308487,1.9594264,9.603809,-0.31285092,1,1683900608.7621946
-1.2050173,0.3691122,-0.10546063,0.27757645,0.51776886,-0.3308487,1.9594264,9.603809,-0.31285092,1,1683900608.77753
-1.2050173,0.3691122,-0.10546063,0.27757645,0.51776886,-0.3308487,1.929096,9.609632,-0.3224152,1,1683900608.7877903
-1.2050173,0.3691122,-0.10546063,0.27757645,0.51776886,-0.3308487,2.0856483,9.582044,0.06992856,1,1683900608.7929244
-0.86943597,0.34836584,-0.0073552495,0.27757645,0.51776886,-0.3308487,2.0856483,9.582044,0.06992856,1,1683900608.7980669
-0.86943597,0.34836584,-0.0073552495,-2.8840446,6.193466,2.0627975,2.0856483,9.582044,0.06992856,1,1683900608.8083212
-0.4762562,0.48943496,0.057568096,-2.8840446,6.193466,2.0627975,2.0856483,9.582044,0.06992856,1,1683900608.8288252
-0.4762562,0.48943496,0.057568096,-4.509716,9.067497,3.20261,2.0856483,9.582044,0.06992856,1,1683900608.8442311
-0.4762562,0.48943496,0.057568096,-4.509716,9.067497,3.20261,2.320184,9.506,0.6504627,1,1683900608.854492
-0.32152298,0.50945336,0.16836697,-4.509716,9.067497,3.20261,2.320184,9.506,0.6504627,1,1683900608.8698723
-0.32152298,0.50945336,0.16836697,-5.15419,9.998627,3.6159706,2.320184,9.506,0.6504627,1,1683900608.8852587
-0.32152298,0.50945336,0.16836697,-5.15419,9.998627,3.6159706,2.4447014,9.442557,1.0158417,1,1683900608.8904095
-0.32152298,0.50945336,0.16836697,-6.356888,11.389847,4.3019676,2.4447014,9.442557,1.0158417,1,1683900608.9006753
0.21539506,0.5875403,0.46856728,-6.356888,11.389847,4.3019676,2.4447014,9.442557,1.0158417,1,1683900608.9058046
0.21539506,0.5875403,0.46856728,-6.356888,11.389847,4.3019676,2.7425866,9.129671,2.301678,1,1683900608.9211876
0.21539506,0.5875403,0.46856728,-6.4782524,11.378098,4.3211937,2.7425866,9.129671,2.301678,1,1683900608.9314067
0.21539506,0.5875403,0.46856728,-6.4782524,11.378098,4.3211937,2.8212972,8.82937,3.2020144,1,1683900608.9468029
0.36964297,0.6534343,0.5342186,-6.4782524,11.378098,4.3211937,2.8212972,8.82937,3.2020144,1,1683900608.9519386
0.36964297,0.6534343,0.5342186,-6.0479355,9.8111725,3.5733795,2.8212972,8.82937,3.2020144,1,1683900608.9673164
0.86605406,0.94703764,0.4226766,-6.0479355,9.8111725,3.5733795,2.8212972,8.82937,3.2020144,1,1683900608.9775662
0.86605406,0.94703764,0.4226766,-6.0479355,9.8111725,3.5733795,2.7903395,8.496357,4.024462,1,1683900608.9929726
0.86605406,0.94703764,0.4226766,-6.0479355,9.8111725,3.5733795,2.7080948,8.194175,4.65748,1,1683900609.013469
0.86605406,0.94703764,0.4226766,-4.9432373,6.3586235,2.1948433,2.7080948,8.194175,4.65748,1,1683900609.0186012
1.4049284,1.0851798,0.25720623,-4.9432373,6.3586235,2.1948433,2.7080948,8.194175,4.65748,1,1683900609.0236995
1.4049284,1.0851798,0.25720623,-3.967514,3.7230492,1.2681198,2.7080948,8.194175,4.65748,1,1683900609.0545197
1.4049284,1.0851798,0.25720623,-3.967514,3.7230492,1.2681198,2.686997,8.080446,4.8638277,1,1683900609.0647368
1.7187929,1.1876832,0.38265494,-3.967514,3.7230492,1.2681198,2.686997,8.080446,4.8638277,1,1683900609.0698264
1.9191589,1.5039741,1.1431271,-3.967514,3.7230492,1.2681198,2.686997,8.080446,4.8638277,1,1683900609.0852127
1.9191589,1.5039741,1.1431271,0.6791878,-5.275154,-1.9638634,2.686997,8.080446,4.8638277,1,1683900609.095462
1.9191589,1.5039741,1.1431271,0.6791878,-5.275154,-1.9638634,2.803139,8.0300045,4.8817844,1,1683900609.1005929
1.2111593,1.2538198,1.5065371,0.6791878,-5.275154,-1.9638634,2.803139,8.0300045,4.8817844,1,1683900609.1313179
1.2111593,1.2538198,1.5065371,5.1224136,-10.660057,-4.430008,2.803139,8.0300045,4.8817844,1,1683900609.1364503
1.2111593,1.2538198,1.5065371,5.1224136,-10.660057,-4.430008,2.999412,8.425302,4.023456,1,1683900609.1415746
0.9800377,1.0907911,1.3920681,5.1224136,-10.660057,-4.430008,2.999412,8.425302,4.023456,1,1683900609.1569629
0.9800377,1.0907911,1.3920681,5.9949303,-11.245918,-4.890232,2.999412,8.425302,4.023456,1,1683900609.162096
0.9800377,1.0907911,1.3920681,6.787472,-11.232166,-5.4249573,2.999412,8.425302,4.023456,1,1683900609.172312
0.9800377,1.0907911,1.3920681,6.787472,-11.232166,-5.4249573,2.906826,8.966806,2.705019,1,1683900609.1877067
0.9800377,1.0907911,1.3920681,6.787472,-11.232166,-5.4249573,3.0109863,8.606354,3.6104069,1,1683900609.192836
0.55073375,0.8938372,1.0316002,6.787472,-11.232166,-5.4249573,3.0109863,8.606354,3.6104069,1,1683900609.197967
0.55073375,0.8938372,1.0316002,6.7746544,-10.865669,-5.5485916,3.0109863,8.606354,3.6104069,1,1683900609.2184722
0.33596048,0.83379716,0.7824165,6.7746544,-10.865669,-5.5485916,3.0109863,8.606354,3.6104069,1,1683900609.2441099
0.33596048,0.83379716,0.7824165,6.7746544,-10.865669,-5.5485916,2.7913456,9.127141,2.252567,1,1683900609.249234
0.33596048,0.83379716,0.7824165,6.7746544,-10.865669,-5.5485916,2.2570603,9.487303,1.0330346,1,1683900609.2645829
-0.25782803,0.5597269,0.35361308,6.7746544,-10.865669,-5.5485916,2.2570603,9.487303,1.0330346,1,1683900609.2697163
-0.25782803,0.5597269,0.35361308,5.63591,-9.420109,-5.379162,2.2570603,9.487303,1.0330346,1,1683900609.2952998
-0.25782803,0.5597269,0.35361308,0.89014053,1.4296722,0.044059753,2.2570603,9.487303,1.0330346,1,1683900609.3517115
-1.1264299,0.340313,-0.6453208,0.89014053,1.4296722,0.044059753,2.2570603,9.487303,1.0330346,1,1683900609.3773553
-1.1264299,0.340313,-0.6453208,-0.050468445,3.2959366,1.7868233,2.2570603,9.487303,1.0330346,1,1683900609.392745
-1.1264299,0.340313,-0.6453208,-0.050468445,3.2959366,1.7868233,0.9416024,9.718979,-0.9084233,1,1683900609.4030037
-0.527015,0.5436212,-0.86227787,-0.050468445,3.2959366,1.7868233,0.9416024,9.718979,-0.9084233,1,1683900609.4234746
-0.527015,0.5436212,-0.86227787,-0.050468445,3.2959366,1.7868233,1.2458558,9.703446,-0.6792395,1,1683900609.4337368
-0.527015,0.5436212,-0.86227787,-2.5059319,6.5172386,3.1461334,1.2458558,9.703446,-0.6792395,1,1683900609.4439974
-0.275147,0.6292757,-0.83811927,-2.5059319,6.5172386,3.1461334,1.2458558,9.703446,-0.6792395,1,1683900609.4542544
-0.275147,0.6292757,-0.83811927,-3.5520172,7.591095,3.5785866,1.2458558,9.703446,-0.6792395,1,1683900609.4593515
-0.275147,0.6292757,-0.83811927,-3.5520172,7.591095,3.5785866,1.4354635,9.689762,-0.4672606,1,1683900609.4696224
0.2400541,0.66539985,-0.40346196,-3.5520172,7.591095,3.5785866,1.4354635,9.689762,-0.4672606,1,1683900609.4850104
0.2400541,0.66539985,-0.40346196,-3.5520172,7.591095,3.5785866,2.0156324,9.58496,0.48597,1,1683900609.5054853
0.2400541,0.66539985,-0.40346196,-5.8700943,9.052677,4.125061,2.0156324,9.58496,0.48597,1,1683900609.510619
0.2400541,0.66539985,-0.40346196,-5.8700943,9.052677,4.125061,2.3234618,9.437789,1.3038628,1,1683900609.526006
0.2400541,0.66539985,-0.40346196,-6.9140434,9.147472,3.8162422,2.3234618,9.437789,1.3038628,1,1683900609.5464473
0.46726307,0.7552097,0.1813031,-6.9140434,9.147472,3.8162422,2.3234618,9.437789,1.3038628,1,1683900609.551578
0.46726307,0.7552097,0.1813031,-6.9140434,9.147472,3.8162422,2.519561,9.225897,2.1691082,1,1683900609.5772293
0.5029019,0.81280816,0.34677348,-6.9140434,9.147472,3.8162422,2.519561,9.225897,2.1691082,1,1683900609.5823505
0.5029019,0.81280816,0.34677348,-6.942749,8.81609,3.5849953,2.519561,9.225897,2.1691082,1,1683900609.5874727
0.5029019,0.81280816,0.34677348,-6.4240456,7.316189,2.988453,2.519561,9.225897,2.1691082,1,1683900609.5977292
0.5029019,0.81280816,0.34677348,-6.4240456,7.316189,2.988453,2.6376913,8.842222,3.3208535,1,1683900609.6182115
0.5029019,0.81280816,0.34677348,-5.8189583,6.169033,2.6124763,2.6376913,8.842222,3.3208535,1,1683900609.6437552
0.7479303,0.9790064,0.8456262,-5.8189583,6.169033,2.6124763,2.6376913,8.842222,3.3208535,1,1683900609.6488774
0.7479303,0.9790064,0.8456262,3.4562874,-6.0933304,-2.5881767,2.6376913,8.842222,3.3208535,1,1683900609.674503
1.4044431,1.4632245,1.2485725,3.4562874,-6.0933304,-2.5881767,2.6376913,8.842222,3.3208535,1,1683900609.67963
1.4044431,1.4632245,1.2485725,3.4562874,-6.0933304,-2.5881767,2.610608,8.7406225,3.5995345,1,1683900609.6847527
0.80845565,1.0651615,0.83708805,3.4562874,-6.0933304,-2.5881767,2.610608,8.7406225,3.5995345,1,1683900609.7104003
0.80845565,1.0651615,0.83708805,5.472889,-8.156662,-3.9560318,2.610608,8.7406225,3.5995345,1,1683900609.7155278
0.80845565,1.0651615,0.83708805,5.472889,-8.156662,-3.9560318,2.5575893,8.990798,2.9655836,1,1683900609.7206643
0.80845565,1.0651615,0.83708805,6.055546,-8.6712265,-4.456711,2.5575893,8.990798,2.9655836,1,1683900609.7514367
0.80845565,1.0651615,0.83708805,6.055546,-8.6712265,-4.456711,2.4814372,9.127897,2.58734,1,1683900609.756571
-0.08406216,0.6802923,0.29478627,6.055546,-8.6712265,-4.456711,2.4814372,9.127897,2.58734,1,1683900609.7617009
-0.08406216,0.6802923,0.29478627,6.055546,-8.6712265,-4.456711,1.852781,9.577834,1.0013459,1,1683900609.7821782
-0.08406216,0.6802923,0.29478627,6.2771797,-9.174042,-5.2300262,1.852781,9.577834,1.0013459,1,1683900609.787269
-0.08406216,0.6802923,0.29478627,6.2771797,-9.174042,-5.2300262,1.425435,9.697784,0.30248716,1,1683900609.802667
-0.5043275,0.55240196,0.37484473,6.2771797,-9.174042,-5.2300262,1.425435,9.697784,0.30248716,1,1683900609.8077917
-0.5043275,0.55240196,0.37484473,5.6806374,-8.596725,-4.746437,1.425435,9.697784,0.30248716,1,1683900609.8129246
-0.76497626,0.5160352,0.46441194,5.6806374,-8.596725,-4.746437,1.425435,9.697784,0.30248716,1,1683900609.843662
-0.76497626,0.5160352,0.46441194,5.321617,-7.88723,-4.2489624,1.425435,9.697784,0.30248716,1,1683900609.8538787
-0.76497626,0.5160352,0.46441194,5.321617,-7.88723,-4.2489624,1.214525,9.731151,-0.0028372435,1,1683900609.8640926
-1.2970262,0.4481849,0.40461454,5.321617,-7.88723,-4.2489624,1.214525,9.731151,-0.0028372435,1,1683900609.8897173
-1.2970262,0.4481849,0.40461454,4.3553734,-5.2165413,-2.7170181,1.214525,9.731151,-0.0028372435,1,1683900609.894855
-1.2970262,0.4481849,0.40461454,4.3553734,-5.2165413,-2.7170181,0.7518711,9.753378,-0.6904238,1,1683900609.8999882
-1.2970262,0.4481849,0.40461454,3.624649,-3.2777786,-1.7391586,0.7518711,9.753378,-0.6904238,1,1683900609.91535
-1.4585838,0.39498448,0.20913173,3.624649,-3.2777786,-1.7391586,0.7518711,9.753378,-0.6904238,1,1683900609.9204972
-0.1792406,0.6253782,-0.52596855,3.624649,-3.2777786,-1.7391586,0.7518711,9.753378,-0.6904238,1,1683900609.935881
-0.1792406,0.6253782,-0.52596855,3.624649,-3.2777786,-1.7391586,1.5327954,9.685974,-0.053235374,1,1683900609.9511838
-0.1792406,0.6253782,-0.52596855,-5.563278,9.231586,3.252678,1.5327954,9.685974,-0.053235374,1,1683900609.9563253
-0.1792406,0.6253782,-0.52596855,-6.198139,9.607697,3.4326553,1.5327954,9.685974,-0.053235374,1,1683900609.966594
-0.1792406,0.6253782,-0.52596855,-6.198139,9.607697,3.4326553,1.6896846,9.654766,0.31756437,1,1683900609.981932
-0.052821305,0.656619,-0.15988947,-6.198139,9.607697,3.4326553,1.6896846,9.654766,0.31756437,1,1683900609.99219
-0.052821305,0.656619,-0.15988947,-6.198139,9.607697,3.4326553,1.9563754,9.541009,1.1454865,1,1683900610.0024514
-0.052821305,0.656619,-0.15988947,-6.9277954,9.738674,3.5211754,1.9563754,9.541009,1.1454865,1,1683900610.0075777
0.1338807,0.70640725,-0.0036852073,-6.9277954,9.738674,3.5211754,1.9563754,9.541009,1.1454865,1,1683900610.0332117
0.1338807,0.70640725,-0.0036852073,-6.6275215,7.957592,3.0215645,1.9563754,9.541009,1.1454865,1,1683900610.0434318
0.41650426,0.86431,0.42731723,-6.6275215,7.957592,3.0215645,1.9563754,9.541009,1.1454865,1,1683900610.0485606
0.41650426,0.86431,0.42731723,-6.6275215,7.957592,3.0215645,2.188511,9.256421,2.3873577,1,1683900610.0536845
0.41650426,0.86431,0.42731723,-3.0641556,1.459446,0.94207764,2.188511,9.256421,2.3873577,1,1683900610.1100552
0.41650426,0.86431,0.42731723,-3.0641556,1.459446,0.94207764,2.3160307,8.885167,3.443861,1,1683900610.1203673
1.2704563,1.2191666,0.96302205,-3.0641556,1.459446,0.94207764,2.3160307,8.885167,3.443861,1,1683900610.125471
1.2704563,1.2191666,0.96302205,-1.607914,-0.68172455,0.14953613,2.3160307,8.885167,3.443861,1,1683900610.135691
1.2704563,1.2191666,0.96302205,-1.607914,-0.68172455,0.14953613,2.34686,8.850028,3.5127804,1,1683900610.1510432
1.4539887,1.3489982,1.1477677,-1.607914,-0.68172455,0.14953613,2.34686,8.850028,3.5127804,1,1683900610.1561778
1.4539887,1.3489982,1.1477677,-1.607914,-0.68172455,0.14953613,2.4019601,8.891036,3.3690448,1,1683900610.1715527
1.4539887,1.3489982,1.1477677,1.6112518,-4.7073174,-1.557045,2.4019601,8.891036,3.3690448,1,1683900610.181861
1.5589337,1.4895821,1.4501518,1.6112518,-4.7073174,-1.557045,2.4019601,8.891036,3.3690448,1,1683900610.1971893
0.14193356,0.83379716,0.21742724,1.6112518,-4.7073174,-1.557045,2.4019601,8.891036,3.3690448,1,1683900610.2176764
0.14193356,0.83379716,0.21742724,6.4518166,-8.397522,-4.758053,2.4019601,8.891036,3.3690448,1,1683900610.233052
0.14193356,0.83379716,0.21742724,6.4518166,-8.397522,-4.758053,1.6122254,9.642191,0.7741191,1,1683900610.2381754
-0.26026967,0.6182959,0.08758055,6.4518166,-8.397522,-4.758053,1.6122254,9.642191,0.7741191,1,1683900610.2637358
-0.26026967,0.6182959,0.08758055,6.0375214,-8.3558655,-4.745369,1.6122254,9.642191,0.7741191,1,1683900610.2688677
-0.26026967,0.6182959,0.08758055,6.0375214,-8.3558655,-4.745369,1.1775008,9.735497,0.06306677,1,1683900610.273994
-0.26026967,0.6182959,0.08758055,5.767956,-8.21207,-4.539757,1.1775008,9.735497,0.06306677,1,1683900610.2842553
-0.26026967,0.6182959,0.08758055,5.767956,-8.21207,-4.539757,0.9461733,9.757423,-0.26045403,1,1683900610.3047688
-0.4118333,0.55508626,0.119807154,5.767956,-8.21207,-4.539757,0.9461733,9.757423,-0.26045403,1,1683900610.3150036
-0.85502875,0.5504456,0.25256562,5.767956,-8.21207,-4.539757,0.9461733,9.757423,-0.26045403,1,1683900610.3303852
-0.85502875,0.5504456,0.25256562,4.971142,-6.745281,-3.3338547,0.9461733,9.757423,-0.26045403,1,1683900610.3406436
-0.85502875,0.5504456,0.25256562,4.971142,-6.745281,-3.3338547,0.28899956,9.742057,-1.0859067,1,1683900610.3509095
-0.85502875,0.5504456,0.25256562,4.634552,-5.743923,-2.742653,0.28899956,9.742057,-1.0859067,1,1683900610.3714092
-0.85502875,0.5504456,0.25256562,4.634552,-5.743923,-2.742653,0.109625645,9.717777,-1.3126937,1,1683900610.3816278
-0.9882877,0.5628965,0.20473374,4.634552,-5.743923,-2.742653,0.109625645,9.717777,-1.3126937,1,1683900610.3867183
-0.9882877,0.5628965,0.20473374,2.7702904,-1.228199,-0.50455093,0.109625645,9.717777,-1.3126937,1,1683900610.402091
-0.9882877,0.5628965,0.20473374,2.7702904,-1.228199,-0.50455093,-0.1870206,9.634114,-1.8218843,1,1683900610.4071832
-1.2365009,0.53409725,-0.36368296,2.7702904,-1.228199,-0.50455093,-0.1870206,9.634114,-1.8218843,1,1683900610.4174423
-0.9128699,0.52019054,-1.0772938,2.7702904,-1.228199,-0.50455093,-0.1870206,9.634114,-1.8218843,1,1683900610.4687166
-0.9128699,0.52019054,-1.0772938,-0.60869217,3.9926147,1.7623901,-0.1870206,9.634114,-1.8218843,1,1683900610.4789755
-0.9128699,0.52019054,-1.0772938,-0.60869217,3.9926147,1.7623901,-0.008210095,9.612937,-1.9395239,1,1683900610.489231
-0.9128699,0.52019054,-1.0772938,-0.60869217,3.9926147,1.7623901,0.66279733,9.602663,-1.8761544,1,1683900610.5046272
-0.9128699,0.52019054,-1.0772938,-5.8711624,8.36441,2.8936577,0.66279733,9.602663,-1.8761544,1,1683900610.5097475
-0.21706326,0.71030474,-0.6868135,-5.8711624,8.36441,2.8936577,0.66279733,9.602663,-1.8761544,1,1683900610.5199978
-0.21706326,0.71030474,-0.6868135,-6.492138,8.825703,3.0044746,0.66279733,9.602663,-1.8761544,1,1683900610.540444
-0.21706326,0.71030474,-0.6868135,-6.492138,8.825703,3.0044746,0.8795502,9.645709,-1.5352756,1,1683900610.5455737
0.11607645,0.74838525,0.046103004,-6.492138,8.825703,3.0044746,0.8795502,9.645709,-1.5352756,1,1683900610.5711756
0.11607645,0.74838525,0.046103004,-6.910839,9.0942,3.0449295,0.8795502,9.645709,-1.5352756,1,1683900610.5814288
0.11607645,0.74838525,0.046103004,-6.910839,9.0942,3.0449295,1.2768718,9.693543,-0.7584097,1,1683900610.5916884
0.11607645,0.74838525,0.046103004,-6.910839,9.0942,3.0449295,0.8795502,9.645709,-1.5352756,1,1683900610.6070795
-0.092600316,0.70152396,-0.43323177,-6.910839,9.0942,3.0449295,0.8795502,9.645709,-1.5352756,1,1683900610.6275609
-0.092600316,0.70152396,-0.43323177,-6.13739,7.6709366,2.242775,0.8795502,9.645709,-1.5352756,1,1683900610.6531644
0.40161178,0.948994,0.77632004,-6.13739,7.6709366,2.242775,0.8795502,9.645709,-1.5352756,1,1683900610.6582966
0.40161178,0.948994,0.77632004,-6.13739,7.6709366,2.242775,1.9170167,9.478605,1.6283398,1,1683900610.6787903
0.76110905,1.0563806,0.8998124,-6.13739,7.6709366,2.242775,1.9170167,9.478605,1.6283398,1,1683900610.6839228
0.76110905,1.0563806,0.8998124,-3.2398605,3.5899353,1.0422134,1.9170167,9.478605,1.6283398,1,1683900610.6890583
0.93024945,1.1413072,0.89345807,-3.2398605,3.5899353,1.0422134,1.9170167,9.478605,1.6283398,1,1683900610.704423
0.93024945,1.1413072,0.89345807,-1.885891,1.5553093,0.50855637,1.9170167,9.478605,1.6283398,1,1683900610.7248337
0.93024945,1.1413072,0.89345807,-1.885891,1.5553093,0.50855637,1.9361091,9.454742,1.7406116,1,1683900610.7299614
0.93024945,1.1413072,0.89345807,-1.885891,1.5553093,0.50855637,1.94458,9.493685,1.50298,1,1683900610.7504427
0.93024945,1.1413072,0.89345807,2.8736305,-5.410404,-1.3268661,1.94458,9.493685,1.50298,1,1683900610.7555764
1.2184691,1.3780401,1.1790086,2.8736305,-5.410404,-1.3268661,1.94458,9.493685,1.50298,1,1683900610.7658112
0.9090178,1.3453434,0.6581962,2.8736305,-5.410404,-1.3268661,1.94458,9.493685,1.50298,1,1683900610.7760575
0.9090178,1.3453434,0.6581962,2.8736305,-5.410404,-1.3268661,1.2325348,9.72866,0.06655022,1,1683900610.7863111
0.9090178,1.3453434,0.6581962,3.1954002,-5.1005173,-1.5506363,1.2325348,9.72866,0.06655022,1,1683900610.7914379
0.5819746,1.1403366,0.34604552,3.1954002,-5.1005173,-1.5506363,1.2325348,9.72866,0.06655022,1,1683900610.796506
0.5819746,1.1403366,0.34604552,4.9093246,-7.130871,-2.4529266,1.2325348,9.72866,0.06655022,1,1683900610.8016353
0.5819746,1.1403366,0.34604552,4.9093246,-7.130871,-2.4529266,1.0144572,9.744158,-0.43892837,1,1683900610.8170202
0.5819746,1.1403366,0.34604552,5.3770256,-7.682686,-2.776699,1.0144572,9.744158,-0.43892837,1,1683900610.832309
0.5819746,1.1403366,0.34604552,5.3770256,-7.682686,-2.776699,0.8603828,9.741216,-0.7340569,1,1683900610.8374383
0.41406262,1.0685889,0.16959536,5.3770256,-7.682686,-2.776699,0.8603828,9.741216,-0.7340569,1,1683900610.857932
0.41406262,1.0685889,0.16959536,5.4782295,-8.029957,-3.2550812,0.8603828,9.741216,-0.7340569,1,1683900610.8784382
-0.19925901,0.79474604,-0.24994199,5.4782295,-8.029957,-3.2550812,0.8603828,9.741216,-0.7340569,1,1683900610.8938355
-0.19925901,0.79474604,-0.24994199,5.4782295,-8.029957,-3.2550812,0.2582929,9.669789,-1.6120931,1,1683900610.8989635
-0.19925901,0.79474604,-0.24994199,5.2065277,-7.8061867,-3.216629,0.2582929,9.669789,-1.6120931,1,1683900610.9246035
-0.3847326,0.70103866,-0.31632122,5.2065277,-7.8061867,-3.216629,0.2582929,9.669789,-1.6120931,1,1683900610.9348686
-0.3847326,0.70103866,-0.31632122,4.014511,-6.267967,-2.5178146,0.2582929,9.669789,-1.6120931,1,1683900610.9451287
-0.3847326,0.70103866,-0.31632122,4.014511,-6.267967,-2.5178146,-0.6236097,9.466846,-2.4819987,1,1683900610.9502513
-0.9270344,0.5338546,-0.29264793,4.014511,-6.267967,-2.5178146,-0.6236097,9.466846,-2.4819987,1,1683900610.9553497
-0.9270344,0.5338546,-0.29264793,4.014511,-6.267967,-2.5178146,-0.94828427,9.363411,-2.7563908,1,1683900610.986106
-1.1942801,0.5123803,-0.33781067,4.014511,-6.267967,-2.5178146,-0.94828427,9.363411,-2.7563908,1,1683900610.9963236
-1.1942801,0.5123803,-0.33781067,3.0355835,-4.4059753,-1.5271378,-0.94828427,9.363411,-2.7563908,1,1683900611.0014548
-1.282619,0.52604437,-0.4239505,3.0355835,-4.4059753,-1.5271378,-0.94828427,9.363411,-2.7563908,1,1683900611.0117166
-1.282619,0.52604437,-0.4239505,2.4422455,-3.188324,-0.87625504,-0.94828427,9.363411,-2.7563908,1,1683900611.0168412
-1.282619,0.52604437,-0.4239505,2.4422455,-3.188324,-0.87625504,-1.0489488,9.322338,-2.8572862,1,1683900611.0219786
-1.282619,0.52604437,-0.4239505,2.4422455,-3.188324,-0.87625504,-1.0109932,9.289483,-2.9755292,1,1683900611.0476315
-1.282619,0.52604437,-0.4239505,-5.325756,9.822788,3.6297226,-1.0109932,9.289483,-2.9755292,1,1683900611.0630267
-0.031589657,0.824531,-0.48350528,-5.325756,9.822788,3.6297226,-1.0109932,9.289483,-2.9755292,1,1683900611.068175
-0.031589657,0.824531,-0.48350528,-5.325756,9.822788,3.6297226,0.8031469,9.659896,-1.4871975,1,1683900611.083523
0.22980225,0.9021327,-0.32438925,-5.325756,9.822788,3.6297226,0.8031469,9.659896,-1.4871975,1,1683900611.0937843
0.22980225,0.9021327,-0.32438925,-5.325756,9.822788,3.6297226,1.293485,9.690231,-0.772477,1,1683900611.104043
0.22980225,0.9021327,-0.32438925,-6.5625,11.145916,3.79488,1.293485,9.690231,-0.772477,1,1683900611.1143088
0.43041098,0.91799575,-0.28118283,-6.5625,11.145916,3.79488,1.293485,9.690231,-0.772477,1,1683900611.1347957
0.43041098,0.91799575,-0.28118283,-7.299633,11.276894,3.4422684,1.293485,9.690231,-0.772477,1,1683900611.1399305
0.43041098,0.91799575,-0.28118283,-7.299633,11.276894,3.4422684,1.684487,9.660529,0.08398519,1,1683900611.1501555
0.5526901,0.9668134,-0.16354434,-7.299633,11.276894,3.4422684,1.684487,9.660529,0.08398519,1,1683900611.1603663
0.5526901,0.9668134,-0.16354434,-7.299633,11.276894,3.4422684,1.8192427,9.621769,0.5313389,1,1683900611.1654968
0.5526901,0.9668134,-0.16354434,-7.4402237,10.692101,3.0556107,1.8192427,9.621769,0.5313389,1,1683900611.1859987
1.003711,1.0932328,0.59424347,-7.4402237,10.692101,3.0556107,1.8192427,9.621769,0.5313389,1,1683900611.1911385
1.003711,1.0932328,0.59424347,-7.4402237,10.692101,3.0556107,1.9923292,9.44868,1.7098131,1,1683900611.1962712
1.003711,1.0932328,0.59424347,-5.8849144,5.6842422,1.2946892,1.9923292,9.44868,1.7098131,1,1683900611.2167132
1.1711226,1.305807,1.786719,-5.8849144,5.6842422,1.2946892,1.9923292,9.44868,1.7098131,1,1683900611.2679815
1.1711226,1.305807,1.786719,-1.0496902,-1.5872192,-0.3958702,1.9923292,9.44868,1.7098131,1,1683900611.283352
1.1711226,1.305807,1.786719,-1.0496902,-1.5872192,-0.3958702,2.0237398,9.346407,2.1724515,1,1683900611.2884765
0.8863151,1.2274622,1.3832873,-1.0496902,-1.5872192,-0.3958702,2.0237398,9.346407,2.1724515,1,1683900611.3038673
0.8863151,1.2274622,1.3832873,3.7898064,-5.706539,-1.9075203,2.0237398,9.346407,2.1724515,1,1683900611.3141396
0.8863151,1.2274622,1.3832873,3.7898064,-5.706539,-1.9075203,1.9871652,9.442725,1.7482824,1,1683900611.3192315
0.85166204,1.1525449,0.5024773,3.7898064,-5.706539,-1.9075203,1.9871652,9.442725,1.7482824,1,1683900611.3448622
0.85166204,1.1525449,0.5024773,5.8457947,-8.517818,-4.410782,1.9871652,9.442725,1.7482824,1,1683900611.3499932
0.85166204,1.1525449,0.5024773,5.8457947,-8.517818,-4.410782,1.5373398,9.625315,1.0771698,1,1683900611.355131
0.85166204,1.1525449,0.5024773,5.8457947,-8.517818,-4.410782,0.88806623,9.766236,0.048495572,1,1683900611.3807259
0.85166204,1.1525449,0.5024773,5.860615,-9.3060875,-5.2439117,0.88806623,9.766236,0.048495572,1,1683900611.3858545
0.21295342,0.76497626,0.1432378,5.860615,-9.3060875,-5.2439117,0.88806623,9.766236,0.048495572,1,1683900611.3909872
-0.102852166,0.658818,0.18935597,5.860615,-9.3060875,-5.2439117,0.88806623,9.766236,0.048495572,1,1683900611.4063485
-0.102852166,0.658818,0.18935597,5.860615,-9.3060875,-5.2439117,0.3491109,9.785266,-0.5450522,1,1683900611.416594
-0.102852166,0.658818,0.18935597,5.4270935,-9.201679,-5.246048,0.3491109,9.785266,-0.5450522,1,1683900611.4217293
-0.26660883,0.631232,0.23109132,5.4270935,-9.201679,-5.246048,0.3491109,9.785266,-0.5450522,1,1683900611.4575787
-0.26660883,0.631232,0.23109132,5.1885033,-8.909817,-5.1512527,0.3491109,9.785266,-0.5450522,1,1683900611.4627216
-0.26660883,0.631232,0.23109132,5.1885033,-8.909817,-5.1512527,0.06338543,9.773358,-0.8048804,1,1683900611.4678607
-0.26660883,0.631232,0.23109132,5.1885033,-8.909817,-5.1512527,-0.77586514,9.67137,-1.4258409,1,1683900611.472994
-0.8120802,0.49748784,0.151048,5.1885033,-8.909817,-5.1512527,-0.77586514,9.67137,-1.4258409,1,1683900611.493451
-1.0192859,0.4535535,0.09710446,5.1885033,-8.909817,-5.1512527,-0.77586514,9.67137,-1.4258409,1,1683900611.5190485
-1.0192859,0.4535535,0.09710446,3.8516235,-6.1571503,-3.9601707,-0.77586514,9.67137,-1.4258409,1,1683900611.5241375
-1.0192859,0.4535535,0.09710446,3.8516235,-6.1571503,-3.9601707,-1.0254164,9.623728,-1.5820149,1,1683900611.5292711
-1.5310748,0.38351938,-0.26360607,3.8516235,-6.1571503,-3.9601707,-1.0254164,9.623728,-1.5820149,1,1683900611.5446105
-1.5310748,0.38351938,-0.26360607,2.1630669,-2.6855087,-1.955452,-1.0254164,9.623728,-1.5820149,1,1683900611.549735
-1.5310748,0.38351938,-0.26360607,2.1630669,-2.6855087,-1.955452,-1.5594162,9.4925165,-1.9054512,1,1683900611.5650864
-1.5310748,0.38351938,-0.26360607,2.1630669,-2.6855087,-1.955452,-1.6752874,9.45432,-1.9949021,1,1683900611.585558
-1.656766,0.3901012,-0.5267117,2.1630669,-2.6855087,-1.955452,-1.6752874,9.45432,-1.9949021,1,1683900611.5906954
-1.656766,0.3901012,-0.5267117,0.50561905,0.21629333,-0.2893257,-1.6752874,9.45432,-1.9949021,1,1683900611.5958292
-1.656766,0.3901012,-0.5267117,0.50561905,0.21629333,-0.2893257,-2.4959388,9.211205,-2.2570722,1,1683900611.6061044
-1.8488367,0.36765632,-0.80907744,0.50561905,0.21629333,-0.2893257,-2.4959388,9.211205,-2.2570722,1,1683900611.6214151
-1.8488367,0.36765632,-0.80907744,0.0028038025,1.7097855,0.50642014,-2.4959388,9.211205,-2.2570722,1,1683900611.6265519
-1.8488367,0.36765632,-0.80907744,-3.1728363,5.885582,2.8893852,-2.4959388,9.211205,-2.2570722,1,1683900611.6470718
-1.3292376,0.526287,-1.2068979,-3.1728363,5.885582,2.8893852,-2.4959388,9.211205,-2.2570722,1,1683900611.6675992
-1.3292376,0.526287,-1.2068979,-3.1728363,5.885582,2.8893852,-2.0844805,9.337054,-2.1551647,1,1683900611.6778486
-1.158156,0.47113025,-1.1109763,-3.1728363,5.885582,2.8893852,-2.0844805,9.337054,-2.1551647,1,1683900611.6829815
-1.158156,0.47113025,-1.1109763,-4.142151,6.6143036,3.4827232,-2.0844805,9.337054,-2.1551647,1,1683900611.6983552
-1.158156,0.47113025,-1.1109763,-4.142151,6.6143036,3.4827232,-1.8639877,9.409832,-2.037402,1,1683900611.7034748
-0.5155499,0.44697168,-0.43030483,-4.142151,6.6143036,3.4827232,-1.8639877,9.409832,-2.037402,1,1683900611.7240002
-0.5155499,0.44697168,-0.43030483,-6.4069557,7.99057,4.684353,-1.8639877,9.409832,-2.037402,1,1683900611.739344
-0.5155499,0.44697168,-0.43030483,-6.4069557,7.99057,4.684353,-1.0690496,9.646093,-1.4072715,1,1683900611.770023
-0.5155499,0.44697168,-0.43030483,-6.4069557,7.99057,4.684353,0.3904559,9.769104,0.76324564,1,1683900611.8367014
-0.5155499,0.44697168,-0.43030483,-7.3742676,7.78389,3.396473,0.3904559,9.769104,0.76324564,1,1683900611.8572276
-0.5155499,0.44697168,-0.43030483,-7.3742676,7.78389,3.396473,0.5279654,9.724576,1.1507691,1,1683900611.8623552
0.8265177,0.9275197,1.109217,-7.3742676,7.78389,3.396473,0.5279654,9.724576,1.1507691,1,1683900611.8674808
0.8265177,0.9275197,1.109217,-7.800312,8.456135,3.9643097,0.5279654,9.724576,1.1507691,1,1683900611.8726108
0.8265177,0.9275197,1.109217,-7.800312,8.456135,3.9643097,0.739498,9.564454,2.0358675,1,1683900611.8828754
0.8265177,0.9275197,1.109217,3.165493,-4.293022,-2.9694939,0.739498,9.564454,2.0358675,1,1683900612.1697555
0.8265177,0.9275197,1.109217,3.165493,-4.293022,-2.9694939,-1.9733601,9.455544,-1.6937848,1,1683900612.1748958
0.8265177,0.9275197,1.109217,0.82618713,0.15127182,-0.8869362,-1.9733601,9.455544,-1.6937848,1,1683900612.1851609
-1.9996573,0.1792406,-0.09351024,0.82618713,0.15127182,-0.8869362,-1.9733601,9.455544,-1.6937848,1,1683900612.1954005
-1.9923475,0.2029139,-0.57063085,0.82618713,0.15127182,-0.8869362,-1.9733601,9.455544,-1.6937848,1,1683900612.200534
-1.9923475,0.2029139,-0.57063085,0.82618713,0.15127182,-0.8869362,-2.168394,9.389612,-1.8175871,1,1683900612.2122002
-1.9923475,0.2029139,-0.57063085,-0.37117004,2.1379662,0.11014938,-2.168394,9.389612,-1.8175871,1,1683900612.2326503
-1.9923475,0.2029139,-0.57063085,-0.37117004,2.1379662,0.11014938,-2.1648188,9.387905,-1.830624,1,1683900612.248057
-1.8817761,0.2417223,-0.74294084,-0.37117004,2.1379662,0.11014938,-2.1648188,9.387905,-1.830624,1,1683900612.2532256
-1.8817761,0.2417223,-0.74294084,-3.3932686,5.9676933,2.5634766,-2.1648188,9.387905,-1.830624,1,1683900612.278992
-1.8817761,0.2417223,-0.74294084,-3.3932686,5.9676933,2.5634766,-1.829067,9.491248,-1.6556304,1,1683900612.2841547
-1.3804969,0.28319985,-0.80859214,-3.3932686,5.9676933,2.5634766,-1.829067,9.491248,-1.6556304,1,1683900612.2944484
-1.3804969,0.28319985,-0.80859214,-3.3932686,5.9676933,2.5634766,-1.6409136,9.547587,-1.5236007,1,1683900612.3201997
-1.2147688,0.2614829,-0.69730794,-3.3932686,5.9676933,2.5634766,-1.6409136,9.547587,-1.5236007,1,1683900612.3253953
-1.2147688,0.2614829,-0.69730794,-4.132538,6.530056,3.1760406,-1.6409136,9.547587,-1.5236007,1,1683900612.3305655
-0.81573504,0.22878617,-0.109115504,-4.132538,6.530056,3.1760406,-1.6409136,9.547587,-1.5236007,1,1683900612.3356907
-0.81573504,0.22878617,-0.109115504,-5.4875755,6.979599,4.5394897,-1.6409136,9.547587,-1.5236007,1,1683900612.3459806
-0.81573504,0.22878617,-0.109115504,-5.4875755,6.979599,4.5394897,-0.9479475,9.716514,-0.9279766,1,1683900612.356305
-0.5580132,0.20218594,0.26598704,-5.4875755,6.979599,4.5394897,-0.9479475,9.716514,-0.9279766,1,1683900612.387181
-0.5580132,0.20218594,0.26598704,-5.7102776,6.9828033,4.8601913,-0.9479475,9.716514,-0.9279766,1,1683900612.3923128
-0.5580132,0.20218594,0.26598704,-5.7102776,6.9828033,4.8601913,-0.69286627,9.7585945,-0.6783509,1,1683900612.397506
-0.38351938,0.22366025,0.3811839,-5.7102776,6.9828033,4.8601913,-0.69286627,9.7585945,-0.6783509,1,1683900612.4129083
-0.38351938,0.22366025,0.3811839,-5.93071,6.981735,5.3363037,-0.69286627,9.7585945,-0.6783509,1,1683900612.4180615
-0.38351938,0.22366025,0.3811839,-5.93071,6.981735,5.3363037,-0.16498685,9.804472,-0.124532074,1,1683900612.4334896
-0.38351938,0.22366025,0.3811839,-5.796528,6.4917374,5.348053,-0.16498685,9.804472,-0.124532074,1,1683900612.4386225
0.29276925,0.5192048,0.66697705,-5.796528,6.4917374,5.348053,-0.16498685,9.804472,-0.124532074,1,1683900612.4437954
0.29276925,0.5192048,0.66697705,-5.796528,6.4917374,5.348053,0.6008646,9.756961,0.78170544,1,1683900612.4644108
0.29276925,0.5192048,0.66697705,-5.796528,6.4917374,5.348053,1.3561891,9.5352955,1.8464241,1,1683900612.515918
0.29276925,0.5192048,0.66697705,-3.8960838,3.861637,3.4859276,1.3561891,9.5352955,1.8464241,1,1683900612.526248
1.456673,1.2645569,1.1075034,-3.8960838,3.861637,3.4859276,1.3561891,9.5352955,1.8464241,1,1683900612.5365424
1.9406484,1.6096622,1.299574,-3.8960838,3.861637,3.4859276,1.3561891,9.5352955,1.8464241,1,1683900612.5519662
1.9406484,1.6096622,1.299574,-3.8960838,3.861637,3.4859276,1.5551101,9.445793,2.1281462,1,1683900612.5571413
1.9406484,1.6096622,1.299574,-1.895504,1.4019012,1.6303444,1.5551101,9.445793,2.1281462,1,1683900612.5674446
1.9406484,1.6096622,1.299574,-1.895504,1.4019012,1.6303444,1.602868,9.428488,2.1690612,1,1683900612.5931594
2.0616992,1.7209463,1.3642547,-1.895504,1.4019012,1.6303444,1.602868,9.428488,2.1690612,1,1683900612.5983143
2.0616992,1.7209463,1.3642547,-0.64914703,-0.0500679,0.5554199,1.602868,9.428488,2.1690612,1,1683900612.6034818
2.0616992,1.7209463,1.3642547,-0.64914703,-0.0500679,0.5554199,1.5867085,9.51013,1.8465941,1,1683900612.6138878
1.5213537,1.5833046,1.1819354,-0.64914703,-0.0500679,0.5554199,1.5867085,9.51013,1.8465941,1,1683900612.6190562
1.5213537,1.5833046,1.1819354,3.2795143,-4.3037033,-2.5445175,1.5867085,9.51013,1.8465941,1,1683900612.6242123
1.5213537,1.5833046,1.1819354,3.2795143,-4.3037033,-2.5445175,1.5224643,9.51013,1.8465941,1,1683900612.6345382
1.2096883,1.3983011,0.9942629,3.2795143,-4.3037033,-2.5445175,1.5224643,9.51013,1.8465941,1,1683900612.6498957
0.40136912,1.0009812,0.36410758,3.2795143,-4.3037033,-2.5445175,1.5224643,9.51013,1.8465941,1,1683900612.655071
0.40136912,1.0009812,0.36410758,3.2795143,-4.3037033,-2.5445175,0.92011434,9.736729,0.7210373,1,1683900612.6704407
0.40136912,1.0009812,0.36410758,5.800934,-7.162781,-4.7911644,0.92011434,9.736729,0.7210373,1,1683900612.675553
-0.053791896,0.81135225,0.16788167,5.800934,-7.162781,-4.7911644,0.92011434,9.736729,0.7210373,1,1683900612.6858127
-0.053791896,0.81135225,0.16788167,5.860615,-7.7049828,-5.0798225,0.92011434,9.736729,0.7210373,1,1683900612.7064366
-0.053791896,0.81135225,0.16788167,5.860615,-7.7049828,-5.0798225,0.45926788,9.795382,0.09980684,1,1683900612.7116277
-0.053791896,0.81135225,0.16788167,5.736046,-7.724209,-5.053253,0.45926788,9.795382,0.09980684,1,1683900612.7271192
-0.053791896,0.81135225,0.16788167,5.736046,-7.724209,-5.053253,0.20655239,9.802578,-0.19284025,1,1683900612.7322733
-0.22634453,0.74081767,0.119807154,5.736046,-7.724209,-5.053253,0.20655239,9.802578,-0.19284025,1,1683900612.7374625
-0.80818266,0.5872977,0.017061146,5.736046,-7.724209,-5.053253,0.20655239,9.802578,-0.19284025,1,1683900612.7580197
-0.80818266,0.5872977,0.017061146,5.736046,-7.724209,-5.053253,-0.5645977,9.744598,-0.94573945,1,1683900612.7631614
-0.80818266,0.5872977,0.017061146,5.0265503,-6.860237,-4.419327,-0.5645977,9.744598,-0.94573945,1,1683900612.7786818
-0.80818266,0.5872977,0.017061146,5.0265503,-6.860237,-4.419327,-1.326621,9.579305,-1.6270769,1,1683900612.8250663
-0.80818266,0.5872977,0.017061146,3.1346512,-2.9773712,-1.8979073,-1.326621,9.579305,-1.6270769,1,1683900612.8560145
-0.80818266,0.5872977,0.017061146,3.1346512,-2.9773712,-1.8979073,-1.4267572,9.532104,-1.809348,1,1683900612.8663766
-1.595255,0.4757709,-0.2831392,3.1346512,-2.9773712,-1.8979073,-1.4267572,9.532104,-1.809348,1,1683900612.8715394
-1.595255,0.4757709,-0.2831392,1.4376831,0.29079437,-0.05821228,-1.4267572,9.532104,-1.809348,1,1683900612.876703
-1.7495029,0.36057404,-0.5803974,1.4376831,0.29079437,-0.05821228,-1.4267572,9.532104,-1.809348,1,1683900612.8818877
-1.7495029,0.36057404,-0.5803974,0.41282654,2.0570564,0.91444016,-1.4267572,9.532104,-1.809348,1,1683900612.897395
-1.7495029,0.36057404,-0.5803974,0.41282654,2.0570564,0.91444016,-1.3844066,9.530394,-1.8507863,1,1683900612.9232216
-1.7495029,0.36057404,-0.5803974,-2.8617477,6.3500786,3.5562897,-1.3844066,9.530394,-1.8507863,1,1683900612.9387724
-1.7495029,0.36057404,-0.5803974,-2.8617477,6.3500786,3.5562897,-0.90283555,9.613558,-1.7131195,1,1683900612.943987
-1.1054409,0.3376287,-0.92475957,-2.8617477,6.3500786,3.5562897,-0.90283555,9.613558,-1.7131195,1,1683900612.9594896
-0.15556732,0.44745696,-0.45129383,-2.8617477,6.3500786,3.5562897,-0.90283555,9.613558,-1.7131195,1,1683900612.995753
-0.15556732,0.44745696,-0.45129383,-6.1895943,9.153881,5.2905083,-0.90283555,9.613558,-1.7131195,1,1683900613.0105467
-0.15556732,0.44745696,-0.45129383,-6.1895943,9.153881,5.2905083,0.22457534,9.770226,-0.8140241,1,1683900613.015738
-0.15556732,0.44745696,-0.45129383,-7.2538376,9.53413,5.2915764,0.22457534,9.770226,-0.8140241,1,1683900613.036383
-1.6577367,0.2841856,-1.0097014,-3.602085,5.4829025,3.4444046,-1.6265119,9.513062,-1.7396845,1,1683900613.0424323
-1.6577367,0.2841856,-1.0097014,-4.734421,6.336193,4.3850136,-1.6265119,9.513062,-1.7396845,1,1683900613.0683455
-0.7191007,0.30590254,-0.32388878,-4.734421,6.336193,4.3850136,-1.1500968,9.637096,-1.4050031,1,1683900613.0735843
-0.7191007,0.30590254,-0.32388878,-5.550461,7.0189857,4.9145317,-1.1500968,9.637096,-1.4050031,1,1683900613.0845582
-0.30957258,0.36618525,-0.104732685,-5.550461,7.0189857,4.9145317,-1.1500968,9.637096,-1.4050031,1,1683900613.1000795
-0.30957258,0.36618525,-0.104732685,-5.550461,7.0189857,4.9145317,-0.61157477,9.7415495,-0.94793284,1,1683900613.1052322
-0.30957258,0.36618525,-0.104732685,-6.136322,7.4419594,4.992237,-0.61157477,9.7415495,-0.94793284,1,1683900613.1206849
-0.30957258,0.36618525,-0.104732685,-6.136322,7.4419594,4.992237,-0.075044565,9.79885,-0.3838024,1,1683900613.130988
0.06066185,0.4955315,0.15958616,-6.136322,7.4419594,4.992237,-0.075044565,9.79885,-0.3838024,1,1683900613.1412604
0.23614141,0.59389466,0.3209012,-6.136322,7.4419594,4.992237,-0.075044565,9.79885,-0.3838024,1,1683900613.1516135
0.23614141,0.59389466,0.3209012,-6.2833214,7.4941635,4.8612595,-0.075044565,9.79885,-0.3838024,1,1683900613.1568155
0.23614141,0.59389466,0.3209012,-6.2833214,7.4941635,4.8612595,0.7738558,9.735976,0.884481,1,1683900613.1831255
-1.0839666,0.31151375,0.059767086,5.6795692,-6.972122,-5.29932,-1.3374143,9.6578245,-1.0526752,1,1683900613.2011857
0.866782,1.0095193,0.6628217,5.6795692,-6.972122,-5.29932,-1.3374143,9.6578245,-1.0526752,1,1683900613.2139482
0.866782,1.0095193,0.6628217,-5.7113457,5.7152176,3.4827232,-1.3374143,9.6578245,-1.0526752,1,1683900613.2192152
0.866782,1.0095193,0.6628217,-5.7113457,5.7152176,3.4827232,0.37686402,9.78109,0.5988571,1,1683900613.2244327
1.0759441,1.1857269,0.84098554,-5.7113457,5.7152176,3.4827232,0.37686402,9.78109,0.5988571,1,1683900613.2296946
1.0759441,1.1857269,0.84098554,-5.7113457,5.7152176,3.4827232,0.5119086,9.754609,0.86944824,1,1683900613.2349215
1.6641214,1.6779977,1.4521081,-5.7113457,5.7152176,3.4827232,0.5119086,9.754609,0.86944824,1,1683900613.250697
1.6641214,1.6779977,1.4521081,-5.7113457,5.7152176,3.4827232,0.7196653,9.682702,1.3775883,1,1683900613.255917
1.6641214,1.6779977,1.4521081,-1.8156624,0.6711769,0.46596527,0.7196653,9.682702,1.3775883,1,1683900613.2611024
1.6641214,1.6779977,1.4521081,1.3450241,-2.6067352,-1.3183212,0.6958027,9.68902,1.3450426,1,1683900613.2716265
1.5821217,1.6721287,1.5729163,1.3450241,-2.6067352,-1.3183212,0.6958027,9.68902,1.3450426,1,1683900613.2769144
1.5821217,1.6721287,1.5729163,2.869358,-4.0501595,-2.1354294,0.6958027,9.68902,1.3450426,1,1683900613.2874155
1.5821217,1.6721287,1.5729163,2.869358,-4.0501595,-2.1354294,0.63401484,9.71136,1.2074363,1,1683900613.3134565
1.4259174,1.5840325,1.4445406,2.869358,-4.0501595,-2.1354294,0.63401484,9.71136,1.2074363,1,1683900613.3186345
0.74134845,1.1737765,0.80487657,5.863819,-6.8048286,-4.099827,0.23014902,9.793047,0.46221247,1,1683900613.3290439
-0.2736911,0.7083484,0.20669009,5.863819,-6.8048286,-4.099827,0.23014902,9.793047,0.46221247,1,1683900613.3496826
-0.2736911,0.7083484,0.20669009,6.73954,-7.724209,-5.102253,0.23014902,9.793047,0.46221247,1,1683900613.3652558
-0.2736911,0.7083484,0.20669009,6.73954,-7.724209,-5.102253,-0.7461055,9.747312,-0.7769375,1,1683900613.370424
-0.2736911,0.7083484,0.20669009,6.288929,-7.183075,-4.8433685,-0.7461055,9.747312,-0.7769375,1,1683900613.3860507
-0.2736911,0.7083484,0.20669009,6.288929,-7.183075,-4.8433685,-1.3137523,9.628071,-1.3208705,1,1683900613.3912394
-0.7132317,0.51213765,-0.004670962,6.288929,-7.183075,-4.8433685,-1.3137523,9.628071,-1.3208705,1,1683900613.3964596
-0.9563189,0.42866695,-0.0910686,5.9085464,-6.6599655,-4.5547104,-1.3137523,9.628071,-1.3208705,1,1683900613.401734
-0.9563189,0.42866695,-0.0910686,4.1914177,-3.8466835,-2.9162216,-1.3137523,9.628071,-1.3208705,1,1683900613.4120522
-1.7007004,0.22585924,-0.38588518,4.1914177,-3.8466835,-2.9162216,-1.3137523,9.628071,-1.3208705,1,1683900613.4224465
-1.7007004,0.22585924,-0.38588518,4.1914177,-3.8466835,-2.9162216,-2.2763166,9.304295,-2.1021109,1,1683900613.427595
-1.7007004,0.22585924,-0.38588518,0.560894,1.7342186,0.74287415,-2.2763166,9.304295,-2.1021109,1,1683900613.474224
-1.981853,0.17728426,-1.0167685,0.560894,1.7342186,0.74287415,-2.2763166,9.304295,-2.1021109,1,1683900613.4794738
-1.981853,0.17728426,-1.0167685,0.560894,1.7342186,0.74287415,-2.5073104,9.14888,-2.4863179,1,1683900613.484757
-1.981853,0.17728426,-1.0167685,-1.4822769,4.079933,2.5559998,-2.5073104,9.14888,-2.4863179,1,1683900613.49006
-1.6496838,0.21217999,-1.0045754,-1.4822769,4.079933,2.5559998,-2.5073104,9.14888,-2.4863179,1,1683900613.5004892
-1.6496838,0.21217999,-1.0045754,-1.4822769,4.079933,2.5559998,-2.2620287,9.208671,-2.5007977,1,1683900613.5107932
-1.6496838,0.21217999,-1.0045754,-1.4822769,4.079933,2.5559998,-2.0632856,9.268288,-2.4519548,1,1683900613.5211418
-1.6496838,0.21217999,-1.0045754,-2.4196815,5.0322914,3.3176994,-2.0632856,9.268288,-2.4519548,1,1683900613.526374
-1.4246587,0.23244104,-0.8664332,-2.4196815,5.0322914,3.3176994,-2.0632856,9.268288,-2.4519548,1,1683900613.5418265
-1.4246587,0.23244104,-0.8664332,-2.4196815,5.0322914,3.3176994,-1.2503921,9.502282,-2.0769079,1,1683900613.5573182
-0.5584985,0.3717965,-0.5057227,-4.5352173,6.844349,4.871807,-1.2503921,9.502282,-2.0769079,1,1683900613.5628135
-0.5584985,0.3717965,-0.5057227,-4.5352173,6.844349,4.871807,-0.024298342,9.74338,-1.111915,1,1683900613.5682287
0.4189459,0.70689255,-0.10400474,-4.5352173,6.844349,4.871807,-0.024298342,9.74338,-1.111915,1,1683900613.5682545
0.4189459,0.70689255,-0.10400474,-5.958481,7.431278,4.949646,-0.024298342,9.74338,-1.111915,1,1683900613.5733626
0.72889763,0.8508886,0.17934676,-5.958481,7.431278,4.949646,-0.024298342,9.74338,-1.111915,1,1683900613.593973
0.72889763,0.8508886,0.17934676,-5.958481,7.431278,4.949646,0.4857209,9.781934,-0.49823946,1,1683900613.59912
0.72889763,0.8508886,0.17934676,-6.08305,7.0189857,4.2912865,0.6951815,9.780231,-0.18488745,1,1683900613.6150057
0.898766,0.94972193,0.33603632,-6.08305,7.0189857,4.2912865,0.6951815,9.780231,-0.18488745,1,1683900613.6254354
0.898766,0.94972193,0.33603632,-5.920162,6.5024185,3.8385391,0.6951815,9.780231,-0.18488745,1,1683900613.6305928
1.5787095,1.6374756,1.2993313,-4.102764,3.4493446,1.8912315,1.1055428,9.724788,0.61373246,1,1683900613.641162
1.5787095,1.6374756,1.2993313,-4.102764,3.4493446,1.8912315,1.1965891,9.693395,0.88127834,1,1683900613.6467907
1.5787095,1.6374756,1.2993313,-1.6963005,0.34620285,0.2753067,1.1965891,9.693395,0.88127834,1,1683900613.6520083
1.3927354,1.5752517,1.4108582,1.1617088,-2.7088737,-1.2641144,1.1965891,9.693395,0.88127834,1,1683900613.6625319
-1.0244118,0.47991106,-0.24798565,4.6525764,-5.24004,-3.2401276,-1.0237916,9.550328,-1.9782485,1,1683900613.6685557
-1.0244118,0.47991106,-0.24798565,4.2201233,-4.54443,-2.7576065,-1.0237916,9.550328,-1.9782485,1,1683900613.6789875
-1.2511355,0.41817245,-0.31583592,4.2201233,-4.54443,-2.7576065,-1.0237916,9.550328,-1.9782485,1,1683900613.6841402
-1.2511355,0.41817245,-0.31583592,4.2201233,-4.54443,-2.7576065,-1.2166591,9.488983,-2.1562283,1,1683900613.7048514
-1.5879452,0.27661803,-0.81615967,0.547142,1.3294029,1.1786652,-1.5071394,9.317057,-2.6629677,1,1683900613.7258265
-1.1898822,0.30053398,-0.8530118,0.547142,1.3294029,1.1786652,-1.5071394,9.317057,-2.6629677,1,1683900613.736202
-1.1898822,0.30053398,-0.8530118,-1.4992332,4.1194534,2.7594757,-1.5071394,9.317057,-2.6629677,1,1683900613.7567906
-1.1898822,0.30053398,-0.8530118,-1.4992332,4.1194534,2.7594757,-1.2233685,9.366684,-2.6341958,1,1683900613.7620366
-0.7469142,0.4228131,-0.6091966,-1.4992332,4.1194534,2.7594757,-1.2233685,9.366684,-2.6341958,1,1683900613.767258
-0.7469142,0.4228131,-0.6091966,-3.3581543,6.3287163,3.9131737,-1.2233685,9.366684,-2.6341958,1,1683900613.7724009
-0.54923236,0.4403747,-0.504009,-4.129467,7.167053,4.30624,-0.46940905,9.531313,-2.259228,1,1683900613.7777884
0.08556354,0.5665513,-0.18209171,-4.129467,7.167053,4.30624,-0.46940905,9.531313,-2.259228,1,1683900613.7829635
0.3737983,0.696398,0.019745432,-5.7507324,8.543453,4.940033,0.44835898,9.679775,-1.507083,1,1683900613.7933662
0.3737983,0.696398,0.019745432,-5.7507324,8.543453,4.940033,1.0314616,9.715992,-0.8402212,1,1683900613.8139966
0.3737983,0.696398,0.019745432,-6.3228416,8.808746,4.839897,1.0314616,9.715992,-0.8402212,1,1683900613.8243108
0.3737983,0.696398,0.019745432,-6.3228416,8.808746,4.839897,1.2919118,9.709682,-0.47267288,1,1683900613.8398402
0.3737983,0.696398,0.019745432,-6.4782524,8.770294,4.660988,1.2919118,9.709682,-0.47267288,1,1683900613.8449852
0.50143087,0.7500838,0.090264834,-6.4782524,8.770294,4.660988,1.2919118,9.709682,-0.47267288,1,1683900613.8501363
1.0852253,1.0517399,0.3623939,-6.2588882,7.3833466,3.4784508,1.8805999,9.602059,0.6589242,1,1683900613.8555784
0.57660604,1.1523021,0.65623987,5.1395035,-6.8133736,-4.1402817,1.551547,9.663537,0.6157498,1,1683900613.8614242
0.57660604,1.1523021,0.65623987,5.1395035,-6.8133736,-4.1402817,0.9085986,9.7605,-0.2783398,1,1683900613.8770115
0.032605745,0.80378467,0.16616797,5.1395035,-6.8133736,-4.1402817,0.9085986,9.7605,-0.2783398,1,1683900613.8925304
0.032605745,0.80378467,0.16616797,4.912529,-6.7388725,-4.634552,0.9085986,9.7605,-0.2783398,1,1683900613.9028902
0.032605745,0.80378467,0.16616797,5.2907753,-6.987076,-4.6888924,0.9085986,9.7605,-0.2783398,1,1683900613.9132593
-0.26905048,0.6119567,-0.016136052,5.2907753,-6.987076,-4.6888924,0.9085986,9.7605,-0.2783398,1,1683900613.9184122
-0.26905048,0.6119567,-0.016136052,5.2907753,-6.987076,-4.6888924,0.40917155,9.764332,-0.81289613,1,1683900613.9235775
-0.26905048,0.6119567,-0.016136052,4.658985,-6.564102,-4.4971657,0.40917155,9.764332,-0.81289613,1,1683900613.9441774
-0.26905048,0.6119567,-0.016136052,4.658985,-6.564102,-4.4971657,-0.09735395,9.72454,-1.2626332,1,1683900613.949361
-0.42037144,0.55240196,-0.05103178,4.658985,-6.564102,-4.4971657,-0.09735395,9.72454,-1.2626332,1,1683900613.9598994
-0.42037144,0.55240196,-0.05103178,3.7641716,-5.5222893,-3.6566925,-0.09735395,9.72454,-1.2626332,1,1683900613.9807904
-0.42037144,0.55240196,-0.05103178,3.7641716,-5.5222893,-3.6566925,-0.56975853,9.654655,-1.62277,1,1683900613.9910831
-0.8618684,0.43183655,-0.058599345,3.7641716,-5.5222893,-3.6566925,-0.56975853,9.654655,-1.62277,1,1683900613.996237
-0.8618684,0.43183655,-0.058599345,3.7641716,-5.5222893,-3.6566925,-0.77893627,9.613948,-1.7707798,1,1683900614.0014188
-0.9777932,0.401081,-0.07397713,3.7641716,-5.5222893,-3.6566925,-0.77893627,9.613948,-1.7707798,1,1683900614.0065985
-0.9777932,0.401081,-0.07397713,3.4371948,-4.9811554,-3.2454681,-0.77893627,9.613948,-1.7707798,1,1683900614.0169299
-1.3377758,0.35397705,-0.19234356,2.3517227,-2.9390526,-1.6347504,-0.77893627,9.613948,-1.7707798,1,1683900614.027387
-1.3377758,0.35397705,-0.19234356,2.3517227,-2.9390526,-1.6347504,-1.2457845,9.496056,-2.107922,1,1683900614.0325856
-1.3377758,0.35397705,-0.19234356,-1.1466217,3.420639,2.8585434,-1.2457845,9.496056,-2.107922,1,1683900614.0482407
-1.0685889,0.35788974,-0.4256642,-1.1466217,3.420639,2.8585434,-1.2457845,9.496056,-2.107922,1,1683900614.0534484
-1.0685889,0.35788974,-0.4256642,2.3517227,-2.9390526,-1.6347504,-1.2457845,9.496056,-2.107922,1,1683900614.1116495
-1.0685889,0.35788974,-0.4256642,2.3517227,-2.9390526,-1.6347504,-1.0308045,9.481978,-2.2803292,1,1683900614.1322927
-0.77864033,0.4128039,-0.5218284,2.3517227,-2.9390526,-1.6347504,-1.0308045,9.481978,-2.2803292,1,1683900614.1557446
-0.77864033,0.4128039,-0.5218284,-1.9179344,4.6137238,3.4827232,-1.0308045,9.481978,-2.2803292,1,1683900614.1764445
-0.77864033,0.4128039,-0.5218284,-1.9179344,4.6137238,3.4827232,-0.020778466,9.644539,-1.7756196,1,1683900614.1875887
-0.77864033,0.4128039,-0.5218284,-4.173126,7.3726654,4.500103,-0.020778466,9.644539,-1.7756196,1,1683900614.203387
-0.0047467896,0.7127464,-0.5347645,-4.173126,7.3726654,4.500103,-0.020778466,9.644539,-1.7756196,1,1683900614.2085369
0.28104636,0.81841934,-0.44812426,-4.173126,7.3726654,4.500103,-0.020778466,9.644539,-1.7756196,1,1683900614.218953
0.28104636,0.81841934,-0.44812426,-4.173126,7.3726654,4.500103,0.5487526,9.709085,-1.2660643,1,1683900614.239654
0.28104636,0.81841934,-0.44812426,-5.42696,8.532772,4.523468,0.5487526,9.709085,-1.2660643,1,1683900614.2448037
0.44090548,0.8755325,-0.22578341,-5.42696,8.532772,4.523468,0.5487526,9.709085,-1.2660643,1,1683900614.2654915
0.44090548,0.8755325,-0.22578341,-6.522045,8.303795,3.670311,0.5487526,9.709085,-1.2660643,1,1683900614.2861516
0.44090548,0.8755325,-0.22578341,-6.522045,8.303795,3.670311,1.4633559,9.695989,0.12952398,1,1683900614.2964606
0.68789023,0.9736379,0.02656989,-6.522045,8.303795,3.670311,1.4633559,9.695989,0.12952398,1,1683900614.3016114
0.68789023,0.9736379,0.02656989,-6.350479,7.574005,3.2323837,1.4633559,9.695989,0.12952398,1,1683900614.3324654
0.68789023,0.9736379,0.02656989,-6.350479,7.574005,3.2323837,1.6166451,9.659717,0.49671665,1,1683900614.337607
1.5401437,1.5169102,0.83830124,-4.2061043,3.1735039,1.1881447,1.8681475,9.528662,1.3729626,1,1683900614.3481567
1.5401437,1.5169102,0.83830124,-1.3085747,-0.84581375,-0.5321884,1.8681475,9.528662,1.3729626,1,1683900614.353322
1.7207493,1.724859,1.4850627,-1.3085747,-0.84581375,-0.5321884,1.8681475,9.528662,1.3729626,1,1683900614.358475
1.7207493,1.724859,1.4850627,-1.3085747,-0.84581375,-0.5321884,1.8893069,9.489114,1.5992603,1,1683900614.3636265
1.7207493,1.724859,1.4850627,0.3680992,-2.6568031,-1.3865471,1.8893069,9.489114,1.5992603,1,1683900614.37392
1.642647,1.6899482,1.6293014,0.3680992,-2.6568031,-1.3865471,1.8893069,9.489114,1.5992603,1,1683900614.3843112
0.95172375,1.2784789,1.1104304,4.3234634,-5.9420586,-3.387127,1.8595722,9.499425,1.5726743,1,1683900614.3949516
0.95172375,1.2784789,1.1104304,4.3234634,-5.9420586,-3.387127,1.5905292,9.622547,1.0233265,1,1683900614.4001675
0.95172375,1.2784789,1.1104304,4.3234634,-5.9420586,-3.387127,1.2658492,9.714628,0.44047722,1,1683900614.4253078
0.7228011,1.1811014,0.8583197,4.3234634,-5.9420586,-3.387127,1.2658492,9.714628,0.44047722,1,1683900614.43064
0.7228011,1.1811014,0.8583197,5.015869,-6.458626,-3.808899,1.2658492,9.714628,0.44047722,1,1683900614.440927
0.7228011,1.1811014,0.8583197,5.6517982,-7.0328712,-4.4864845,1.2658492,9.714628,0.44047722,1,1683900614.461624
0.7228011,1.1811014,0.8583197,5.6517982,-7.0328712,-4.4864845,0.84596175,9.768537,-0.17441104,1,1683900614.4719496
0.04822617,0.84527737,0.24671175,5.6517982,-7.0328712,-4.4864845,0.84596175,9.768537,-0.17441104,1,1683900614.477147
0.04822617,0.84527737,0.24671175,5.3440475,-6.7836,-4.450302,0.84596175,9.768537,-0.17441104,1,1683900614.4978046
-0.26735193,0.63563,0.0360938,5.3440475,-6.7836,-4.450302,0.84596175,9.768537,-0.17441104,1,1683900614.5030036
-0.26735193,0.63563,0.0360938,5.3440475,-6.7836,-4.450302,0.37146315,9.771294,-0.7444629,1,1683900614.5082037
-0.424269,0.57167727,-0.019548282,5.0905037,-6.5236473,-4.320259,0.12650754,9.754609,-1.0009929,1,1683900614.523743
-0.424269,0.57167727,-0.019548282,4.133873,-5.1654053,-3.447876,0.12650754,9.754609,-1.0009929,1,1683900614.5290422
-0.424269,0.57167727,-0.019548282,4.133873,-5.1654053,-3.447876,-0.56644523,9.653123,-1.633014,1,1683900614.554819
-1.0204991,0.42622533,-0.104490034,4.133873,-5.1654053,-3.447876,-0.56644523,9.653123,-1.633014,1,1683900614.560121
-1.2528492,0.36618525,-0.11912471,4.133873,-5.1654053,-3.447876,-0.56644523,9.653123,-1.633014,1,1683900614.5653372
-1.9052067,0.16459076,-0.29070675,2.357998,-1.7278099,-0.6142998,-1.1192014,9.496698,-2.17497,1,1683900614.5760074
-1.886902,0.061116815,-0.51938677,2.357998,-1.7278099,-0.6142998,-1.1192014,9.496698,-2.17497,1,1683900614.5935311
-1.886902,0.061116815,-0.51938677,2.357998,-1.7278099,-0.6142998,-0.9573222,9.475848,-2.337145,1,1683900614.60143
-1.886902,0.061116815,-0.51938677,0.9753227,0.80856323,1.4268684,-0.9573222,9.475848,-2.337145,1,1683900614.6065845
-1.6755561,0.04939391,-0.59601784,0.9753227,0.80856323,1.4268684,-0.9573222,9.475848,-2.337145,1,1683900614.6274295
-1.6755561,0.04939391,-0.59601784,0.13698578,2.13583,2.415409,-0.9573222,9.475848,-2.337145,1,1683900614.6378233
-0.6995676,0.24000861,-0.4085879,-2.3749542,5.4180145,4.67474,-0.27122143,9.559609,-2.1704128,1,1683900614.6483994
-0.6995676,0.24000861,-0.4085879,-3.684063,6.987076,5.357666,-0.27122143,9.559609,-2.1704128,1,1683900614.6536262
-0.6995676,0.24000861,-0.4085879,4.8838234,-6.693077,-4.0529633,1.3531209,9.686657,-0.7128258,1,1683900614.6594026
0.027965114,0.4613637,-0.22699665,4.8838234,-6.693077,-4.0529633,1.3531209,9.686657,-0.7128258,1,1683900614.6594262
0.15218541,0.951193,0.16739638,4.8838234,-6.693077,-4.0529633,1.3531209,9.686657,-0.7128258,1,1683900614.664686
0.15218541,0.951193,0.16739638,4.8838234,-6.693077,-4.0529633,0.8960502,9.687877,-1.2298529,1,1683900614.6852643
-0.108463384,0.77375704,0.030967874,4.533348,-6.2882614,-4.032669,0.8960502,9.687877,-1.2298529,1,1683900614.6904688
-0.42574003,0.6370859,-0.020048741,4.533348,-6.2882614,-4.032669,0.8960502,9.687877,-1.2298529,1,1683900614.6956694
-0.42574003,0.6370859,-0.020048741,4.0592384,-5.5851746,-3.768444,0.8960502,9.687877,-1.2298529,1,1683900614.7163122
-0.60071915,0.57167727,-0.058599345,4.0592384,-5.5851746,-3.768444,0.43107244,9.653809,-1.6698897,1,1683900614.721565
-1.0763991,0.38985854,-0.2384769,2.877903,-3.3811188,-2.2802925,0.20850095,9.626146,-1.8612438,1,1683900614.732036
-1.0763991,0.38985854,-0.2384769,2.0885658,-2.0175362,-1.0775948,0.20850095,9.626146,-1.8612438,1,1683900614.7475374
-1.2365009,0.34910893,-0.33585432,2.0885658,-2.0175362,-1.0775948,0.20850095,9.626146,-1.8612438,1,1683900614.7579587
-1.287017,0.35666135,-0.35587275,1.1659813,-0.42390823,0.27317047,-0.62213933,9.417164,-2.664646,1,1683900614.7632918
-1.1701064,0.35105014,-0.30998206,1.1659813,-0.42390823,0.27317047,-0.62213933,9.417164,-2.664646,1,1683900614.7736151
-1.1701064,0.35105014,-0.30998206,0.11455536,1.4797401,1.6845512,-0.62213933,9.417164,-2.664646,1,1683900614.7787929
-1.1701064,0.35105014,-0.30998206,-2.7243614,5.9495354,3.822651,-0.62213933,9.417164,-2.664646,1,1683900614.789091
0.2400541,0.6934711,-0.40980113,-2.7243614,5.9495354,3.822651,-0.62213933,9.417164,-2.664646,1,1683900614.7942786
0.2400541,0.6934711,-0.40980113,-4.967804,8.695793,4.6556473,-0.62213933,9.417164,-2.664646,1,1683900614.8096938
0.2400541,0.6934711,-0.40980113,-4.967804,8.695793,4.6556473,1.1073856,9.601072,-1.6623715,1,1683900614.820019
0.577334,0.8291565,-0.36342514,-6.1384583,9.715176,4.4766045,1.6786407,9.612787,-0.9730735,1,1683900614.8304331
0.577334,0.8291565,-0.36342514,-6.1384583,9.715176,4.4766045,2.1349542,9.570208,-0.15328538,1,1683900614.835732
0.8894847,0.98681664,-0.25385466,-6.817112,9.590607,3.8513565,2.1349542,9.570208,-0.15328538,1,1683900614.8357594
0.8894847,0.98681664,-0.25385466,-6.7201805,8.006592,2.682705,2.4200962,9.478781,0.6828269,1,1683900614.8410232
1.2260367,1.1852416,-0.047134258,-6.7201805,8.006592,2.682705,2.4200962,9.478781,0.6828269,1,1683900614.8410494
1.4229906,1.3119035,0.19204025,-6.256752,6.5353966,1.8965721,2.4939485,9.424887,1.0592927,1,1683900614.8515441
0.9858916,1.2408836,1.4382014,0.84968567,-3.5238457,-2.0778847,2.2428489,9.449767,1.3571765,1,1683900614.8674169
0.9858916,1.2408836,1.4382014,3.7183762,-5.4136086,-3.1453323,2.2428489,9.449767,1.3571765,1,1683900614.872604
0.9858916,1.2408836,1.4382014,3.7183762,-5.4136086,-3.1453323,-0.58352864,9.482453,-2.4316585,1,1683900614.8778205
-0.8967641,0.38668895,-0.497412,3.7183762,-5.4136086,-3.1453323,-0.58352864,9.482453,-2.4316585,1,1683900614.8880806
-0.8967641,0.38668895,-0.497412,-1.4587784,3.7540245,2.5698853,-0.58352864,9.482453,-2.4316585,1,1683900614.8984241
-0.8967641,0.38668895,-0.497412,-1.4587784,3.7540245,2.5698853,-0.3195419,9.514834,-2.3529165,1,1683900614.9139044
-0.4110902,0.5040848,-0.49351448,-1.4587784,3.7540245,2.5698853,-0.3195419,9.514834,-2.3529165,1,1683900614.9242501
-0.4110902,0.5040848,-0.49351448,-3.0044746,5.93565,3.6031532,-0.3195419,9.514834,-2.3529165,1,1683900614.9449239
-0.4110902,0.5040848,-0.49351448,-3.0044746,5.93565,3.6031532,0.10970817,9.574632,-2.1177301,1,1683900614.9501004
0.026494063,0.6651572,-0.45787564,-3.0044746,5.93565,3.6031532,0.10970817,9.574632,-2.1177301,1,1683900614.9552517
0.026494063,0.6651572,-0.45787564,-4.4298744,7.6646614,4.1177177,0.10970817,9.574632,-2.1177301,1,1683900614.9603732
0.026494063,0.6651572,-0.45787564,-4.4298744,7.6646614,4.1177177,0.36382806,9.60685,-1.9355772,1,1683900614.986106
0.31961212,0.7688738,-0.35293064,-4.4298744,7.6646614,4.1177177,0.36382806,9.60685,-1.9355772,1,1683900615.0067244
0.31961212,0.7688738,-0.35293064,-5.59412,8.741589,4.1400146,0.36382806,9.60685,-1.9355772,1,1683900615.0169752
1.0500718,1.2372288,0.45147583,-5.59412,8.741589,4.1400146,0.36382806,9.60685,-1.9355772,1,1683900615.0481265
1.0500718,1.2372288,0.45147583,-5.59412,8.741589,4.1400146,1.1577958,9.672955,-1.1242129,1,1683900615.058464
0.31961212,0.7688738,-0.35293064,-5.59412,8.741589,4.1400146,1.1577958,9.672955,-1.1242129,1,1683900615.063734
0.31961212,0.7688738,-0.35293064,-4.672737,4.7969055,1.4545059,2.146367,9.511853,1.043136,1,1683900615.0691133
-0.6061029,0.503827,-0.095694065,-4.672737,4.7969055,1.4545059,2.146367,9.511853,1.043136,1,1683900615.074281
-0.6061029,0.503827,-0.095694065,-4.672737,4.7969055,1.4545059,-0.20121777,9.675691,-1.5845917,1,1683900615.0796037
-0.6061029,0.503827,-0.095694065,-4.672737,4.7969055,1.4545059,-0.8900779,9.53994,-2.0899065,1,1683900615.0847569
-1.3831812,0.29589334,-0.22309911,-4.672737,4.7969055,1.4545059,-0.8900779,9.53994,-2.0899065,1,1683900615.0899282
-1.3831812,0.29589334,-0.22309911,3.3657646,-4.5326805,-3.0771065,-0.8900779,9.53994,-2.0899065,1,1683900615.0950859
-1.3831812,0.29589334,-0.22309911,2.9024696,-3.689003,-2.4539948,-1.062117,9.49494,-2.2109716,1,1683900615.1055732
-1.4629818,0.20705406,-0.56404907,2.9024696,-3.689003,-2.4539948,-1.062117,9.49494,-2.2109716,1,1683900615.1108515
-1.4629818,0.20705406,-0.56404907,-0.43085098,2.400055,1.7857552,-1.062117,9.49494,-2.2109716,1,1683900615.1211822
-1.3831812,0.29589334,-0.22309911,-0.43085098,2.400055,1.7857552,-1.062117,9.49494,-2.2109716,1,1683900615.126416
-1.4629818,0.20705406,-0.56404907,-1.2446213,3.6102295,2.6210213,-1.019293,9.44484,-2.4344242,1,1683900615.131699
-1.4629818,0.20705406,-0.56404907,-1.2446213,3.6102295,2.6210213,-0.30092454,9.570445,-2.1181154,1,1683900615.1470678
-1.4629818,0.20705406,-0.56404907,-3.3294487,6.234989,4.5640564,-0.30092454,9.570445,-2.1181154,1,1683900615.1625056
-0.33226013,0.4123186,-0.32780147,-3.3294487,6.234989,4.5640564,-0.30092454,9.570445,-2.1181154,1,1683900615.167635
-0.33226013,0.4123186,-0.32780147,-3.8928795,6.8518257,4.9645996,-0.30092454,9.570445,-2.1181154,1,1683900615.172791
-0.33226013,0.4123186,-0.32780147,-3.8928795,6.8518257,4.9645996,0.002881235,9.613017,-1.9391452,1,1683900615.1832612
0.47555858,0.7432593,-0.21357521,-3.8928795,6.8518257,4.9645996,0.002881235,9.613017,-1.9391452,1,1683900615.209185
0.47555858,0.7432593,-0.21357521,-5.2851677,8.063068,5.1978493,0.002881235,9.613017,-1.9391452,1,1683900615.214341
0.47555858,0.7432593,-0.21357521,-5.2851677,8.063068,5.1978493,0.9504076,9.688212,-1.1855991,1,1683900615.2194667
1.9113487,1.7746472,1.3469206,-5.2851677,8.063068,5.1978493,0.9504076,9.688212,-1.1855991,1,1683900615.2400725
1.9113487,1.7746472,1.3469206,-5.2851677,8.063068,5.1978493,2.2519486,9.458307,1.2804449,1,1683900615.245186
1.9113487,1.7746472,1.3469206,-0.12617111,-2.3712158,-1.209774,2.2519486,9.458307,1.2804449,1,1683900615.2554681
1.9113487,1.7746472,1.3469206,-0.12617111,-2.3712158,-1.209774,1.9825238,9.573994,0.7606896,1,1683900615.2760246
1.2060333,1.3900056,1.1397148,-0.12617111,-2.3712158,-1.209774,1.9825238,9.573994,0.7606896,1,1683900615.2863226
1.2060333,1.3900056,1.1397148,3.9548302,-6.3638306,-3.3924675,1.9825238,9.573994,0.7606896,1,1683900615.2967029
0.95806295,1.2711539,0.9224999,3.9548302,-6.3638306,-3.3924675,1.828281,9.622863,0.47779873,1,1683900615.3173375
0.19464871,0.9634012,0.34384653,3.9548302,-6.3638306,-3.3924675,1.828281,9.622863,0.47779873,1,1683900615.3275614
0.19464871,0.9634012,0.34384653,5.6049347,-7.6613235,-4.5962334,1.828281,9.622863,0.47779873,1,1683900615.3429987
0.19464871,0.9634012,0.34384653,5.6049347,-7.6613235,-4.5962334,1.1972773,9.721988,-0.46889538,1,1683900615.34816
0.19464871,0.9634012,0.34384653,5.6049347,-7.6613235,-4.5962334,0.94771,9.73001,-0.7740366,1,1683900615.3686988
0.19464871,0.9634012,0.34384653,5.5026627,-7.5442314,-4.623871,0.94771,9.73001,-0.7740366,1,1683900615.3789728
0.0052624154,0.84063673,0.2049764,5.5026627,-7.5442314,-4.623871,0.94771,9.73001,-0.7740366,1,1683900615.38415
0.0052624154,0.84063673,0.2049764,5.0019836,-6.987076,-4.4023705,0.94771,9.73001,-0.7740366,1,1683900615.39963
-0.30321825,0.6597886,0.073673815,5.0019836,-6.987076,-4.4023705,0.94771,9.73001,-0.7740366,1,1683900615.4048064
-0.30321825,0.6597886,0.073673815,5.0019836,-6.987076,-4.4023705,0.43176484,9.708013,-1.3185081,1,1683900615.4202273
-0.91458356,0.4945609,-0.022232568,5.0019836,-6.987076,-4.4023705,0.43176484,9.708013,-1.3185081,1,1683900615.4305012
-0.91458356,0.4945609,-0.022232568,4.338417,-5.9506035,-3.887806,0.43176484,9.708013,-1.3185081,1,1683900615.4356258
-0.91458356,0.4945609,-0.022232568,4.338417,-5.9506035,-3.887806,-0.2951411,9.606903,-1.9469683,1,1683900615.4561563
-0.91458356,0.4945609,-0.022232568,3.9558983,-5.199585,-3.4947395,-0.2951411,9.606903,-1.9469683,1,1683900615.4664128
-1.557675,0.2856415,-0.43494546,3.9558983,-5.199585,-3.4947395,-0.2951411,9.606903,-1.9469683,1,1683900615.497201
-1.557675,0.2856415,-0.43494546,1.5878868,-0.61777115,-0.77825546,-0.2951411,9.606903,-1.9469683,1,1683900615.507461
-1.557675,0.2856415,-0.43494546,1.5878868,-0.61777115,-0.77825546,-0.83644694,9.465913,-2.422237,1,1683900615.5177264
-1.557675,0.2856415,-0.43494546,1.5878868,-0.61777115,-0.77825546,-0.8422506,9.454022,-2.4662676,1,1683900615.527994
-1.5976967,0.25490108,-0.5584378,1.5878868,-0.61777115,-0.77825546,-0.8422506,9.454022,-2.4662676,1,1683900615.5484772
-1.5976967,0.25490108,-0.5584378,0.75582504,0.7691765,0.08451462,-0.8422506,9.454022,-2.4662676,1,1683900615.5536127
-1.4703068,0.22146125,-0.6985212,0.75582504,0.7691765,0.08451462,-0.8422506,9.454022,-2.4662676,1,1683900615.5791855
-1.4703068,0.22146125,-0.6985212,-1.0731888,3.4600258,1.8092537,-0.8422506,9.454022,-2.4662676,1,1683900615.584315
-1.4703068,0.22146125,-0.6985212,-1.0731888,3.4600258,1.8092537,-0.67919004,9.472951,-2.4438262,1,1683900615.5894144
-0.969983,0.25074574,-0.37391964,-1.0731888,3.4600258,1.8092537,-0.67919004,9.472951,-2.4438262,1,1683900615.594547
-0.969983,0.25074574,-0.37391964,-3.5881996,6.5833282,3.9121056,-0.67919004,9.472951,-2.4438262,1,1683900615.5996802
-0.969983,0.25074574,-0.37391964,-3.5881996,6.5833282,3.9121056,-0.062392246,9.581188,-2.0898137,1,1683900615.6150324
-0.969983,0.25074574,-0.37391964,-4.232807,7.3099136,4.4234657,-0.062392246,9.581188,-2.0898137,1,1683900615.625255
-0.7718159,0.27589008,-0.3092541,-4.232807,7.3099136,4.4234657,-0.062392246,9.581188,-2.0898137,1,1683900615.6303883
-0.7718159,0.27589008,-0.3092541,-4.232807,7.3099136,4.4234657,0.5063596,9.6542,-1.646335,1,1683900615.6456993
-0.03451659,0.3896159,-0.06396792,-4.232807,7.3099136,4.4234657,0.5063596,9.6542,-1.646335,1,1683900615.6610768
-0.03451659,0.3896159,-0.06396792,-5.5132103,8.206863,5.3118706,0.5063596,9.6542,-1.646335,1,1683900615.6713755
-0.03451659,0.3896159,-0.06396792,-5.5132103,8.206863,5.3118706,1.1161278,9.684512,-1.065304,1,1683900615.681626
-0.03451659,0.3896159,-0.06396792,-5.7421875,8.199387,5.349121,1.1161278,9.684512,-1.065304,1,1683900615.6867468
0.5253468,0.61708266,0.09125059,-5.7421875,8.199387,5.349121,1.1161278,9.684512,-1.065304,1,1683900615.6919177
0.5253468,0.61708266,0.09125059,-5.7421875,8.199387,5.349121,1.6937834,9.651443,-0.3887896,1,1683900615.7073226
0.5253468,0.61708266,0.09125059,-5.7421875,8.199387,5.349121,1.9483721,9.611092,-0.03377498,1,1683900615.7382913
0.768434,0.742774,0.17227966,-5.7421875,8.199387,5.349121,1.9483721,9.611092,-0.03377498,1,1683900615.74342
0.768434,0.742774,0.17227966,-5.8636856,7.704048,4.9560547,1.9483721,9.611092,-0.03377498,1,1683900615.7537127
0.768434,0.742774,0.17227966,0.018692017,1.3263321,1.7836189,1.9483721,9.611092,-0.03377498,1,1683900615.7640407
0.768434,0.742774,0.17227966,0.018692017,1.3263321,1.7836189,-0.0032545587,9.418042,-2.7332857,1,1683900615.769168
-1.5520637,0.15702319,-0.7695411,0.018692017,1.3263321,1.7836189,-0.0032545587,9.418042,-2.7332857,1,1683900615.7845743
-1.5520637,0.15702319,-0.7695411,-1.8753433,3.8860703,3.379383,-0.0032545587,9.418042,-2.7332857,1,1683900615.815194
-1.1854842,0.1582516,-0.5169451,-1.8753433,3.8860703,3.379383,-0.0032545587,9.418042,-2.7332857,1,1683900615.8254433
-1.1854842,0.1582516,-0.5169451,-1.8753433,3.8860703,3.379383,0.33405042,9.4478445,-2.607114,1,1683900615.830545
-1.1854842,0.1582516,-0.5169451,-1.8753433,3.8860703,3.379383,0.5772138,9.472571,-2.471355,1,1683900615.845912
-1.1854842,0.1582516,-0.5169451,-2.7051353,5.1026535,4.0270615,0.5772138,9.472571,-2.471355,1,1683900615.8562071
-0.9843902,0.1565379,-0.38344356,-2.7051353,5.1026535,4.0270615,0.5772138,9.472571,-2.471355,1,1683900615.8664353
-0.33348852,0.26685148,0.037792332,-2.7051353,5.1026535,4.0270615,0.5772138,9.472571,-2.471355,1,1683900615.876661
-0.33348852,0.26685148,0.037792332,-4.4628525,7.583618,5.30653,0.5772138,9.472571,-2.471355,1,1683900615.8972116
-0.33348852,0.26685148,0.037792332,-4.4628525,7.583618,5.30653,1.4811472,9.525088,-1.8025777,1,1683900615.902346
0.5199782,0.58485603,0.3509288,-4.4628525,7.583618,5.30653,1.4811472,9.525088,-1.8025777,1,1683900615.9433842
0.5199782,0.58485603,0.3509288,-4.990101,8.244114,5.6101418,1.4811472,9.525088,-1.8025777,1,1683900615.9587483
0.5199782,0.58485603,0.3509288,-4.990101,8.244114,5.6101418,2.4456553,9.458482,-0.85222924,1,1683900615.974108
1.2665588,0.9838897,0.30845034,-4.990101,8.244114,5.6101418,2.4456553,9.458482,-0.85222924,1,1683900615.9945726
1.2665588,0.9838897,0.30845034,-4.990101,8.244114,5.6101418,3.2208166,9.261479,0.14742018,1,1683900616.004844
1.2665588,0.9838897,0.30845034,-4.424534,7.1383476,4.6066475,3.2208166,9.261479,0.14742018,1,1683900616.009973
1.2665588,0.9838897,0.30845034,-4.424534,7.1383476,4.6066475,3.407976,9.185213,0.43354124,1,1683900616.015108
1.5350177,1.1322838,0.28527752,-4.424534,7.1383476,4.6066475,3.407976,9.185213,0.43354124,1,1683900616.0304554
1.5350177,1.1322838,0.28527752,-3.9685822,6.1551476,4.0047646,3.407976,9.185213,0.43354124,1,1683900616.035584
-0.8933519,0.43599188,-0.30289978,-3.9685822,6.1551476,4.0047646,3.407976,9.185213,0.43354124,1,1683900616.0509615
-0.8933519,0.43599188,-0.30289978,1.6784096,-3.4791183,-3.1080818,3.407976,9.185213,0.43354124,1,1683900616.061211
-0.8933519,0.43599188,-0.30289978,1.6784096,-3.4791183,-3.1080818,0.7601668,9.43102,-2.5784473,1,1683900616.0663066
-1.1913532,0.3266489,-0.34537825,1.6784096,-3.4791183,-3.1080818,0.7601668,9.43102,-2.5784473,1,1683900616.08168
-1.1913532,0.3266489,-0.34537825,1.6784096,-3.4791183,-3.1080818,0.3547708,9.413573,-2.7256496,1,1683900616.097029
-1.1913532,0.3266489,-0.34537825,0.43952942,-1.3933563,-1.3610458,0.3547708,9.413573,-2.7256496,1,1683900616.102158
-1.1867126,0.33641544,-0.337568,0.43952942,-1.3933563,-1.3610458,0.3547708,9.413573,-2.7256496,1,1683900616.117495
-1.1867126,0.33641544,-0.337568,-0.43085098,0.18638611,-0.05393982,0.3547708,9.413573,-2.7256496,1,1683900616.122655
-1.1867126,0.33641544,-0.337568,-0.43085098,0.18638611,-0.05393982,0.28318575,9.4197,-2.712832,1,1683900616.1380112
-1.1867126,0.33641544,-0.337568,-0.43085098,0.18638611,-0.05393982,0.30999315,9.430647,-2.6715505,1,1683900616.1431444
-1.1491175,0.34348255,-0.28483772,-0.43085098,0.18638611,-0.05393982,0.30999315,9.430647,-2.6715505,1,1683900616.1482384
-1.1491175,0.34348255,-0.28483772,-0.8898735,1.033268,0.5767822,0.30999315,9.430647,-2.6715505,1,1683900616.1687186
-1.1491175,0.34348255,-0.28483772,-0.8898735,1.033268,0.5767822,0.6249462,9.487402,-2.4018831,1,1683900616.1943197
-0.95242137,0.30418885,0.012177866,-0.8898735,1.033268,0.5767822,0.6249462,9.487402,-2.4018831,1,1683900616.2045708
-0.95242137,0.30418885,0.012177866,-2.1746826,3.624115,2.313137,0.6249462,9.487402,-2.4018831,1,1683900616.2096713
-0.95242137,0.30418885,0.012177866,-2.515545,4.436817,2.8425217,0.6249462,9.487402,-2.4018831,1,1683900616.235301
-0.95242137,0.30418885,0.012177866,-2.515545,4.436817,2.8425217,0.80002236,9.5077715,-2.265528,1,1683900616.2404292
-0.8518592,0.29687908,0.0890516,-2.515545,4.436817,2.8425217,0.80002236,9.5077715,-2.265528,1,1683900616.245521
-0.33300322,0.37106854,0.17617717,-2.515545,4.436817,2.8425217,0.80002236,9.5077715,-2.265528,1,1683900616.2506177
-0.33300322,0.37106854,0.17617717,-3.304882,6.396942,4.1560364,0.80002236,9.5077715,-2.265528,1,1683900616.2659934
-0.33300322,0.37106854,0.17617717,-3.304882,6.396942,4.1560364,1.4890612,9.539147,-1.7198157,1,1683900616.271126
-0.040127814,0.4520976,0.13591288,-3.304882,6.396942,4.1560364,1.4890612,9.539147,-1.7198157,1,1683900616.30192
-0.040127814,0.4520976,0.13591288,-3.304882,6.396942,4.1560364,1.7530276,9.531866,-1.4969368,1,1683900616.3070462
-0.040127814,0.4520976,0.13591288,-4.620533,7.659321,4.7429657,1.7530276,9.531866,-1.4969368,1,1683900616.3172996
-0.040127814,0.4520976,0.13591288,-0.24019241,1.7406273,0.86437225,1.7530276,9.531866,-1.4969368,1,1683900616.3326726
-0.040127814,0.4520976,0.13591288,-0.24019241,1.7406273,0.86437225,1.0878798,9.523308,-2.0720763,1,1683900616.3378072
0.15682605,0.46429065,-0.26287812,-0.24019241,1.7406273,0.86437225,1.0878798,9.523308,-2.0720763,1,1683900616.3480647
0.15682605,0.46429065,-0.26287812,-5.128689,8.094978,4.960327,1.0878798,9.523308,-2.0720763,1,1683900616.3634596
0.15682605,0.46429065,-0.26287812,-5.128689,8.094978,4.960327,1.6908103,9.542279,-1.5021499,1,1683900616.3685873
0.15682605,0.46429065,-0.26287812,-6.027775,8.306999,4.590626,1.6908103,9.542279,-1.5021499,1,1683900616.3942118
0.86825305,0.7630199,-0.016621348,-6.027775,8.306999,4.590626,1.6908103,9.542279,-1.5021499,1,1683900616.3993032
1.4134817,1.046614,0.22572275,-6.027775,8.306999,4.590626,1.6908103,9.542279,-1.5021499,1,1683900616.4044273
1.4134817,1.046614,0.22572275,-6.027775,8.306999,4.590626,2.5162528,9.46938,-0.41192898,1,1683900616.4198246
1.4134817,1.046614,0.22572275,-6.027775,8.306999,4.590626,2.9042106,9.36006,0.35386726,1,1683900616.4351814
1.4134817,1.046614,0.22572275,-5.857277,7.150097,3.5562897,2.9042106,9.36006,0.35386726,1,1683900616.4402778
1.4134817,1.046614,0.22572275,-5.4343033,6.064625,2.7828407,2.9042106,9.36006,0.35386726,1,1683900616.4556527
1.4134817,1.046614,0.22572275,-5.4343033,6.064625,2.7828407,3.0324981,9.299617,0.7010562,1,1683900616.4710462
1.668762,1.2250205,0.39704698,-5.4343033,6.064625,2.7828407,3.0324981,9.299617,0.7010562,1,1683900616.4813266
1.668762,1.2250205,0.39704698,-5.4343033,6.064625,2.7828407,3.1634345,9.181447,1.3653237,1,1683900616.5018027
1.668762,1.2250205,0.39704698,-3.735199,2.9465294,0.9026909,3.1634345,9.181447,1.3653237,1,1683900616.5069351
2.1048903,1.5908722,1.0054853,-3.735199,2.9465294,0.9026909,3.1634345,9.181447,1.3653237,1,1683900616.5172186
2.1048903,1.5908722,1.0054853,-0.9261894,-0.85969925,-1.0350037,3.1634345,9.181447,1.3653237,1,1683900616.527472
2.1048903,1.5908722,1.0054853,-0.9261894,-0.85969925,-1.0350037,3.136935,9.183777,1.4100596,1,1683900616.542859
1.9855534,1.6931177,1.6356406,-0.9261894,-0.85969925,-1.0350037,3.136935,9.183777,1.4100596,1,1683900616.5531194
1.9855534,1.6931177,1.6356406,-0.9261894,-0.85969925,-1.0350037,2.889614,9.318083,0.99691474,1,1683900616.5633392
1.2297066,1.3319219,1.341552,-0.9261894,-0.85969925,-1.0350037,2.889614,9.318083,0.99691474,1,1683900616.5787387
1.2297066,1.3319219,1.341552,3.447876,-4.7894287,-3.1378555,2.889614,9.318083,0.99691474,1,1683900616.5838675
-0.071368665,0.80695426,-0.18965927,3.447876,-4.7894287,-3.1378555,2.889614,9.318083,0.99691474,1,1683900616.5992303
-0.071368665,0.80695426,-0.18965927,5.056324,-5.5851746,-3.6566925,2.889614,9.318083,0.99691474,1,1683900616.6197524
-0.071368665,0.80695426,-0.18965927,5.056324,-5.5851746,-3.6566925,1.7449143,9.609218,-0.88802695,1,1683900616.624854
-0.4874786,0.6192665,-0.65313095,5.056324,-5.5851746,-3.6566925,1.7449143,9.609218,-0.88802695,1,1683900616.6299882
-0.4874786,0.6192665,-0.65313095,5.056324,-5.5851746,-3.6566925,1.1091875,9.589095,-1.7289705,1,1683900616.6453502
-0.4874786,0.6192665,-0.65313095,4.7026443,-6.1273766,-3.3253098,1.1091875,9.589095,-1.7289705,1,1683900616.6607533
-0.5977922,0.6097577,-0.7436688,4.7026443,-6.1273766,-3.3253098,1.1091875,9.589095,-1.7289705,1,1683900616.6761436
-0.5977922,0.6097577,-0.7436688,4.4747353,-6.258354,-3.0749702,1.1091875,9.589095,-1.7289705,1,1683900616.6915345
-0.5977922,0.6097577,-0.7436688,4.4747353,-6.258354,-3.0749702,0.6894019,9.528621,-2.213706,1,1683900616.6966772
-0.5977922,0.6097577,-0.7436688,3.4361267,-5.968628,-1.9894981,0.6894019,9.528621,-2.213706,1,1683900616.7069342
-0.5977922,0.6097577,-0.7436688,3.4361267,-5.968628,-1.9894981,0.31490508,9.449744,-2.6026065,1,1683900616.71206
-0.7989014,0.6021902,-0.7307326,3.4361267,-5.968628,-1.9894981,0.31490508,9.449744,-2.6026065,1,1683900616.7325332
-0.8718776,0.58632714,-0.59773153,3.4361267,-5.968628,-1.9894981,0.31490508,9.449744,-2.6026065,1,1683900616.7427828
-0.8718776,0.58632714,-0.59773153,2.4869728,-4.8373604,-1.056366,0.31490508,9.449744,-2.6026065,1,1683900616.7581692
-0.8718776,0.58632714,-0.59773153,2.4869728,-4.8373604,-1.056366,0.030341653,9.374518,-2.878864,1,1683900616.7632666
-0.9111713,0.5672945,-0.5332935,2.4869728,-4.8373604,-1.056366,0.030341653,9.374518,-2.878864,1,1683900616.7735221
-0.9111713,0.5672945,-0.5332935,2.4869728,-4.8373604,-1.056366,-0.06446405,9.344776,-2.9734466,1,1683900616.7786477
-0.9111713,0.5672945,-0.5332935,1.9404984,-3.9648438,-0.5460739,-0.06446405,9.344776,-2.9734466,1,1683900616.7940395
-0.9111713,0.5672945,-0.5332935,0.060214996,-0.48358917,1.1147118,-0.06446405,9.344776,-2.9734466,1,1683900616.7991982
-0.92336434,0.49845842,-0.43835768,0.060214996,-0.48358917,1.1147118,-0.06446405,9.344776,-2.9734466,1,1683900616.8248084
-0.92336434,0.49845842,-0.43835768,0.060214996,-0.48358917,1.1147118,-0.09958884,9.309998,-3.0796764,1,1683900616.8299425
-0.92336434,0.49845842,-0.43835768,0.060214996,-0.48358917,1.1147118,-0.12172395,9.341746,-2.9811652,1,1683900616.8709686
-0.92336434,0.49845842,-0.43835768,0.060214996,-0.48358917,1.1147118,0.0467202,9.358344,-2.9307995,1,1683900616.8761036
-0.92336434,0.49845842,-0.43835768,-1.1444855,3.275776,1.7943001,0.0467202,9.358344,-2.9307995,1,1683900616.8914998
-0.9970685,0.29101005,-0.54574436,-1.1444855,3.275776,1.7943001,0.0467202,9.358344,-2.9307995,1,1683900616.9222486
-0.9970685,0.29101005,-0.54574436,-1.1444855,3.275776,1.7943001,0.44417608,9.421103,-2.6862462,1,1683900616.927345
-0.9970685,0.29101005,-0.54574436,-3.058815,6.028309,3.2612228,0.44417608,9.421103,-2.6862462,1,1683900616.9324687
-0.9970685,0.29101005,-0.54574436,-4.654579,8.05666,4.3723297,0.44417608,9.421103,-2.6862462,1,1683900616.9427338
-0.61659735,0.29492274,-0.30388555,-4.654579,8.05666,4.3723297,0.44417608,9.421103,-2.6862462,1,1683900616.9581223
-0.61659735,0.29492274,-0.30388555,-4.654579,8.05666,4.3723297,1.0014907,9.496149,-2.2339566,1,1683900616.963172
-0.39718345,0.31639704,-0.17183985,-4.654579,8.05666,4.3723297,1.0014907,9.496149,-2.2339566,1,1683900616.9785643
-0.39718345,0.31639704,-0.17183985,-4.654579,8.05666,4.3723297,1.3149428,9.524019,-1.9324485,1,1683900616.983703
-0.39718345,0.31639704,-0.17183985,-5.2905083,8.786316,4.7727394,1.3149428,9.524019,-1.9324485,1,1683900617.0041814
-0.39718345,0.31639704,-0.17183985,-6.4292526,9.629993,5.1807594,1.3149428,9.524019,-1.9324485,1,1683900617.0195434
0.2917835,0.485037,0.11809345,-6.4292526,9.629993,5.1807594,1.3149428,9.524019,-1.9324485,1,1683900617.0246747
0.2917835,0.485037,0.11809345,-6.4292526,9.629993,5.1807594,2.2430453,9.513165,-0.799259,1,1683900617.0298026
0.2917835,0.485037,0.11809345,-6.4292526,9.629993,5.1807594,2.7480323,9.413647,0.044187743,1,1683900617.060422
0.8179796,0.7332501,0.29942688,-6.4292526,9.629993,5.1807594,2.7480323,9.413647,0.044187743,1,1683900617.070665
0.8179796,0.7332501,0.29942688,-6.3962746,8.817158,4.6800804,2.7480323,9.413647,0.044187743,1,1683900617.0757625
0.8179796,0.7332501,0.29942688,-6.3962746,8.817158,4.6800804,3.0972033,9.269939,0.80370015,1,1683900617.086018
0.8179796,0.7332501,0.29942688,-5.4790306,6.5950775,3.5040855,3.0972033,9.269939,0.80370015,1,1683900617.0911584
1.4100543,1.0761564,0.5752108,-5.4790306,6.5950775,3.5040855,3.0972033,9.269939,0.80370015,1,1683900617.106556
1.4100543,1.0761564,0.5752108,-3.4540176,2.9668236,1.7878914,3.0972033,9.269939,0.80370015,1,1683900617.111702
1.8774236,1.4683504,1.043308,-3.4540176,2.9668236,1.7878914,3.0972033,9.269939,0.80370015,1,1683900617.1168249
1.8774236,1.4683504,1.043308,-3.4540176,2.9668236,1.7878914,3.2903633,9.143637,1.3182544,1,1683900617.127115
1.8774236,1.4683504,1.043308,-3.4540176,2.9668236,1.7878914,3.4444036,9.00361,1.8004124,1,1683900617.1527338
1.8774236,1.4683504,1.043308,2.7905846,-4.249363,-1.6890907,3.4444036,9.00361,1.8004124,1,1683900617.1629875
1.064479,1.1586413,1.4738251,2.7905846,-4.249363,-1.6890907,3.4444036,9.00361,1.8004124,1,1683900617.1783898
1.064479,1.1586413,1.4738251,5.3971863,-5.410404,-3.0952644,3.4444036,9.00361,1.8004124,1,1683900617.183518
1.064479,1.1586413,1.4738251,5.3971863,-5.410404,-3.0952644,3.095175,9.284481,0.623451,1,1683900617.1988723
0.3554936,0.9951273,0.481003,5.3971863,-5.410404,-3.0952644,3.095175,9.284481,0.623451,1,1683900617.214274
0.090446815,0.86308163,0.012663161,5.3971863,-5.410404,-3.0952644,3.095175,9.284481,0.623451,1,1683900617.234777
0.090446815,0.86308163,0.012663161,5.3141403,-5.351925,-3.2039452,3.095175,9.284481,0.623451,1,1683900617.239909
0.090446815,0.86308163,0.012663161,5.3141403,-5.351925,-3.2039452,2.8095188,9.395523,-0.033839922,1,1683900617.250171
0.090446815,0.86308163,0.012663161,5.1001167,-5.188904,-3.1686974,2.8095188,9.395523,-0.033839922,1,1683900617.2706547
0.04090125,0.8159777,-0.1545209,5.1001167,-5.188904,-3.1686974,2.8095188,9.395523,-0.033839922,1,1683900617.2808757
0.04090125,0.8159777,-0.1545209,5.1001167,-5.188904,-3.1686974,2.6530986,9.434577,-0.34670871,1,1683900617.2860124
0.04090125,0.8159777,-0.1545209,5.1001167,-5.188904,-3.1686974,2.1592093,9.494752,-1.1652871,1,1683900617.2962682
0.04090125,0.8159777,-0.1545209,4.1402817,-4.427204,-2.947197,2.1592093,9.494752,-1.1652871,1,1683900617.3167725
-0.14214589,0.73008054,-0.4864322,4.1402817,-4.427204,-2.947197,2.1592093,9.494752,-1.1652871,1,1683900617.3219068
-0.14214589,0.73008054,-0.4864322,3.7631035,-4.0628433,-2.803402,2.1592093,9.494752,-1.1652871,1,1683900617.342373
-0.20511287,0.7200713,-0.5843101,3.7631035,-4.0628433,-2.803402,2.1592093,9.494752,-1.1652871,1,1683900617.3474648
-0.20511287,0.7200713,-0.5843101,3.7631035,-4.0628433,-2.803402,1.9966085,9.499946,-1.3910347,1,1683900617.3526018
-0.20511287,0.7200713,-0.5843101,2.461338,-2.864418,-2.0821571,1.9966085,9.499946,-1.3910347,1,1683900617.3731153
-0.41353184,0.7071352,-0.7085304,2.461338,-2.864418,-2.0821571,1.9966085,9.499946,-1.3910347,1,1683900617.3782492
-0.41353184,0.7071352,-0.7085304,2.461338,-2.864418,-2.0821571,1.5627922,9.490315,-1.91363,1,1683900617.4038584
0.17732975,0.7271536,0.7733931,2.461338,-2.864418,-2.0821571,1.5627922,9.490315,-1.91363,1,1683900617.434579
0.17732975,0.7271536,0.7733931,2.461338,-2.864418,-2.0821571,2.0922837,7.144697,6.383262,1,1683900617.4499676
0.17732975,0.7271536,0.7733931,-1.7059135,5.150585,-0.42243958,2.0922837,7.144697,6.383262,1,1683900617.455101
0.063846596,0.5089529,0.39753225,-1.7059135,5.150585,-0.42243958,2.0922837,7.144697,6.383262,1,1683900617.475639
0.063846596,0.5089529,0.39753225,-1.2755966,4.565792,-0.074100494,2.0922837,7.144697,6.383262,1,1683900617.4807756
0.063846596,0.5089529,0.39753225,-1.2755966,4.565792,-0.074100494,1.5852606,7.017067,6.6646914,1,1683900617.4910355
0.063846596,0.5089529,0.39753225,-1.2755966,4.565792,-0.074100494,1.4583722,6.9737883,6.738681,1,1683900617.5166638
0.09849968,0.5467908,0.590346,-1.2755966,4.565792,-0.074100494,1.4583722,6.9737883,6.738681,1,1683900617.5473864
0.09849968,0.5467908,0.590346,-1.4609146,2.1294212,0.70028305,1.4583722,6.9737883,6.738681,1,1683900617.5576384
0.09849968,0.5467908,0.590346,-1.4609146,2.1294212,0.70028305,1.243633,6.817196,6.938991,1,1683900617.5627334
0.09849968,0.5467908,0.590346,-1.2627792,1.9441032,0.6842613,1.243633,6.817196,6.938991,1,1683900617.5678732
0.25468877,0.5885261,0.8051192,-1.2627792,1.9441032,0.6842613,1.243633,6.817196,6.938991,1,1683900617.5730066
0.25468877,0.5885261,0.8051192,-1.2627792,1.9441032,0.6842613,1.1587484,6.7141547,7.0532126,1,1683900617.5985467
0.25468877,0.5885261,0.8051192,-1.135006,2.1081924,0.5767822,1.1587484,6.7141547,7.0532126,1,1683900617.603682
0.2876433,0.5995059,0.85416436,-1.135006,2.1081924,0.5767822,1.1587484,6.7141547,7.0532126,1,1683900617.613943
0.2876433,0.5995059,0.85416436,-1.135006,2.1081924,0.5767822,1.1054637,6.6691833,7.104247,1,1683900617.6292646
0.2876433,0.5995059,0.85416436,-1.0231209,2.5299644,0.2837181,1.1054637,6.6691833,7.104247,1,1683900617.6497655
0.2876433,0.5995059,0.85416436,-1.0231209,2.5299644,0.2837181,0.8860114,6.552339,7.24239,1,1683900617.654859
0.3796522,0.74398726,0.6750299,-1.0231209,2.5299644,0.2837181,0.8860114,6.552339,7.24239,1,1683900617.6599874
0.3796522,0.74398726,0.6750299,-1.0231209,2.5299644,0.2837181,0.73067766,6.474863,7.3288913,1,1683900617.6804693
0.29935107,0.7844942,0.69406253,-1.0231209,2.5299644,0.2837181,0.73067766,6.474863,7.3288913,1,1683900617.6855998
0.29935107,0.7844942,0.69406253,-1.0231209,2.5299644,0.2837181,-1.2039557,5.6920033,7.8944273,1,1683900617.7009802
0.29935107,0.7844942,0.69406253,-0.26355743,1.2261963,0.12403488,-1.2039557,5.6920033,7.8944273,1,1683900617.7162848
-0.10650704,0.6370859,0.674302,-0.26355743,1.2261963,0.12403488,-1.2039557,5.6920033,7.8944273,1,1683900617.7265503
-0.10650704,0.6370859,0.674302,-0.26355743,1.2261963,0.12403488,-1.2967452,5.6767964,7.8906803,1,1683900617.7470245
-0.10650704,0.6370859,0.674302,-0.28491974,0.95129013,0.04940033,-1.2967452,5.6767964,7.8906803,1,1683900617.7674868
-0.10650704,0.6370859,0.674302,-0.28491974,0.95129013,0.04940033,-1.3736042,5.6579165,7.891235,1,1683900617.77262
-0.13970424,0.6502647,0.6943052,-0.28491974,0.95129013,0.04940033,-1.3736042,5.6579165,7.891235,1,1683900617.777751
-0.13970424,0.6502647,0.6943052,-0.22417068,0.61042786,-0.008144379,-1.3736042,5.6579165,7.891235,1,1683900617.7828848
-0.16753286,0.6429398,0.76752406,-0.22417068,0.61042786,-0.008144379,-1.3736042,5.6579165,7.891235,1,1683900617.7982635
-0.16753286,0.6429398,0.76752406,-0.22417068,0.61042786,-0.008144379,-1.4286087,5.6341815,7.894971,1,1683900617.8136184
-0.17021716,0.6361153,0.8219529,-0.22417068,0.61042786,-0.008144379,-1.4286087,5.6341815,7.894971,1,1683900617.8187501
-0.17021716,0.6361153,0.8219529,-0.22417068,0.61042786,-0.008144379,-1.4476975,5.6341815,7.894971,1,1683900617.8290176
-0.17021716,0.6361153,0.8219529,-0.16342163,0.4559517,-0.0315094,-1.4476975,5.6341815,7.894971,1,1683900617.8391984
-0.14117528,0.6070735,0.96522105,-0.16342163,0.4559517,-0.0315094,-1.4476975,5.6341815,7.894971,1,1683900617.8700328
-0.14117528,0.6070735,0.96522105,0.13484955,0.17477036,-0.098667145,-1.4476975,5.6341815,7.894971,1,1683900617.8802583
-0.14117528,0.6070735,0.96522105,0.13484955,0.17477036,-0.098667145,-1.5055791,5.653943,7.869978,1,1683900617.9007123
-0.08626115,0.6078014,0.8873615,0.13484955,0.17477036,-0.098667145,-1.5055791,5.653943,7.869978,1,1683900617.905849
-0.08626115,0.6078014,0.8873615,0.37557602,0.34406662,-0.19773483,-1.5055791,5.653943,7.869978,1,1683900617.9109464
-0.07673724,0.62245125,0.8309915,0.37557602,0.34406662,-0.19773483,-1.5055791,5.653943,7.869978,1,1683900617.931454
-0.07673724,0.62245125,0.8309915,0.37557602,0.34406662,-0.19773483,-1.546857,5.6800957,7.843096,1,1683900617.9417205
-0.07673724,0.62245125,0.8309915,0.3734398,0.44847488,-0.23712158,-1.546857,5.6800957,7.843096,1,1683900617.9468546
-0.09893948,0.6222086,0.7357979,0.3734398,0.44847488,-0.23712158,-1.546857,5.6800957,7.843096,1,1683900617.9519491
-0.09893948,0.6222086,0.7357979,0.2531433,0.63179016,-0.31496048,-1.546857,5.6800957,7.843096,1,1683900617.9570863
-0.09893948,0.6222086,0.7357979,0.2531433,0.63179016,-0.31496048,-1.6081166,5.6995974,7.816581,1,1683900617.9775817
-0.15336832,0.5955932,0.83171946,0.2531433,0.63179016,-0.31496048,-1.6081166,5.6995974,7.816581,1,1683900617.9827032
-0.15336832,0.5955932,0.83171946,0.2531433,0.63179016,-0.31496048,-2.1287963,5.688727,7.6991563,1,1683900617.9929872
-0.15336832,0.5955932,0.83171946,0.17530441,-0.46556473,0.03551483,-2.1287963,5.688727,7.6991563,1,1683900617.9981034
