acc_x,acc_y,acc_z,gyr_x,gyr_y,gyr_z,grav_x,grav_y,grav_z,label,timestamp
0.93830234,1.1459478,1.5631497,-1.6250038,-0.91817856,-0.3458023,1.5543649,8.722425,4.204002,1,1683900637.4471848
0.93658864,1.2198946,1.6893415,-1.6250038,-0.91817856,-0.3458023,1.5543649,8.722425,4.204002,1,1683900637.4671612
0.93658864,1.2198946,1.6893415,0.45448303,-3.333187,-0.94234467,1.5543649,8.722425,4.204002,1,1683900637.4723282
0.93658864,1.2198946,1.6893415,5.4760933,-8.313274,-2.521019,1.5906097,8.732706,4.1689553,1,1683900637.4775534
0.93658864,1.2198946,1.6893415,5.4760933,-8.313274,-2.521019,1.7415704,8.997735,3.4897127,1,1683900637.4878194
0.73622257,1.2447963,1.390127,5.4760933,-8.313274,-2.521019,1.7415704,8.997735,3.4897127,1,1683900637.492938
0.55927193,1.1308128,1.0811458,5.4760933,-8.313274,-2.521019,1.7415704,8.997735,3.4897127,1,1683900637.5185947
0.55927193,1.1308128,1.0811458,7.1347427,-9.372177,-3.3636284,1.7415704,8.997735,3.4897127,1,1683900637.528885
0.43309528,1.0715158,0.8878468,7.1347427,-9.372177,-3.3636284,1.7471095,9.256409,2.7270682,1,1683900637.5393794
0.43309528,1.0715158,0.8878468,7.575741,-9.444675,-3.7056923,1.6954995,9.381282,2.2993965,1,1683900637.544575
-0.72665316,0.5460628,0.10856955,7.0025635,-7.9841614,-3.9591026,0.78865635,9.773853,-0.14214543,1,1683900637.5497591
-0.72665316,0.5460628,0.10856955,5.914955,-6.273308,-3.0047417,0.78865635,9.773853,-0.14214543,1,1683900637.5548866
-0.886027,0.51359355,-0.0031999126,5.914955,-6.273308,-3.0047417,0.78865635,9.773853,-0.14214543,1,1683900637.5651796
-0.886027,0.51359355,-0.0031999126,5.914955,-6.273308,-3.0047417,0.3730856,9.754828,-0.9351593,1,1683900637.5807147
-0.886027,0.51359355,-0.0031999126,5.914955,-6.273308,-3.0047417,0.62194556,9.776476,-0.45176378,1,1683900637.5961576
-0.886027,0.51359355,-0.0031999126,4.186077,-3.5430717,-1.6039085,0.62194556,9.776476,-0.45176378,1,1683900637.601332
-1.0932328,0.45453924,-0.34780473,4.186077,-3.5430717,-1.6039085,0.62194556,9.776476,-0.45176378,1,1683900637.6116588
-1.0932328,0.45453924,-0.34780473,4.186077,-3.5430717,-1.6039085,0.29881278,9.730455,-1.1829381,1,1683900637.6219263
-1.0932328,0.45453924,-0.34780473,1.7359543,-0.03725052,0.044059753,0.29881278,9.730455,-1.1829381,1,1683900637.6373258
-1.1029992,0.42354104,-0.61652154,1.7359543,-0.03725052,0.044059753,0.29881278,9.730455,-1.1829381,1,1683900637.6476252
-1.1029992,0.42354104,-0.61652154,1.7359543,-0.03725052,0.044059753,0.42942956,9.7287245,-1.1566749,1,1683900637.657907
-0.8257443,0.46723273,-0.7771086,1.7359543,-0.03725052,0.044059753,0.42942956,9.7287245,-1.1566749,1,1683900637.663045
-0.8257443,0.46723273,-0.7771086,-1.0273933,3.8659096,1.6015053,0.42942956,9.7287245,-1.1566749,1,1683900637.6835587
-0.8257443,0.46723273,-0.7771086,-2.3525238,5.629902,2.2545242,0.42942956,9.7287245,-1.1566749,1,1683900637.693849
-0.8257443,0.46723273,-0.7771086,-2.3525238,5.629902,2.2545242,0.5609139,9.7354145,-1.0380138,1,1683900637.6989822
-0.63538736,0.53995115,-0.80199516,-2.3525238,5.629902,2.2545242,0.5609139,9.7354145,-1.0380138,1,1683900637.7092614
-0.63538736,0.53995115,-0.80199516,-5.6889153,9.054813,3.5445404,0.5609139,9.7354145,-1.0380138,1,1683900637.7297628
-0.016454527,0.74301666,-0.6533736,-5.6889153,9.054813,3.5445404,0.5609139,9.7354145,-1.0380138,1,1683900637.7451792
-0.016454527,0.74301666,-0.6533736,-5.6889153,9.054813,3.5445404,1.1002285,9.740623,-0.2830601,1,1683900637.750311
-0.016454527,0.74301666,-0.6533736,-5.6889153,9.054813,3.5445404,1.5848255,9.630573,0.9543522,1,1683900637.770877
-0.016454527,0.74301666,-0.6533736,-7.280407,10.113583,3.6553574,1.5848255,9.630573,0.9543522,1,1683900637.776028
0.39917013,0.84209263,-0.43640134,-7.280407,10.113583,3.6553574,1.5848255,9.630573,0.9543522,1,1683900637.7913997
0.5168086,0.8967641,-0.30901146,-7.280407,10.113583,3.6553574,1.5848255,9.630573,0.9543522,1,1683900637.8068006
0.5168086,0.8967641,-0.30901146,-7.842903,10.349102,3.45829,1.5848255,9.630573,0.9543522,1,1683900637.8170817
0.45456958,0.93947005,0.31676102,-7.298565,6.8156433,1.4502335,1.5848255,9.630573,0.9543522,1,1683900637.8274212
0.43432367,0.94558173,0.613534,-7.298565,6.8156433,1.4502335,1.6907595,9.110291,3.2115943,1,1683900637.8325872
0.42871246,0.94923663,1.2253846,-7.298565,6.8156433,1.4502335,1.6907595,9.110291,3.2115943,1,1683900637.8530717
0.42871246,0.94923663,1.2253846,-5.0561905,3.4962082,0.7332611,1.6907595,9.110291,3.2115943,1,1683900637.8582187
0.42871246,0.94923663,1.2253846,-5.0561905,3.4962082,0.7332611,1.6258304,8.88854,3.8106294,1,1683900637.8684788
0.46116656,0.9982969,1.5109351,-5.0561905,3.4962082,0.7332611,1.6258304,8.88854,3.8106294,1,1683900637.873622
0.46116656,0.9982969,1.5109351,-2.0435715,0.46876907,0.1399231,1.6258304,8.88854,3.8106294,1,1683900637.8991902
0.46116656,0.9982969,1.5109351,-2.0435715,0.46876907,0.1399231,1.609132,8.762713,4.0982847,1,1683900637.9043202
0.46116656,0.9982969,1.5109351,-0.55755615,-0.8650398,-0.16262054,1.609132,8.762713,4.0982847,1,1683900637.9248784
0.5116827,1.0270962,1.4572341,-0.55755615,-0.8650398,-0.16262054,1.609132,8.762713,4.0982847,1,1683900637.9300056
0.67495406,1.153758,1.075292,-0.55755615,-0.8650398,-0.16262054,1.609132,8.762713,4.0982847,1,1683900637.9453845
0.67495406,1.153758,1.075292,-0.55755615,-0.8650398,-0.16262054,1.7097574,8.86897,3.8194907,1,1683900637.9556022
0.67495406,1.153758,1.075292,2.9151535,-4.2098427,-1.2800026,1.7097574,8.86897,3.8194907,1,1683900637.9658837
0.53071535,1.1088531,0.7065134,2.9151535,-4.2098427,-1.2800026,1.7097574,8.86897,3.8194907,1,1683900637.9761794
0.53071535,1.1088531,0.7065134,5.031891,-6.308422,-2.5252914,1.7097574,8.86897,3.8194907,1,1683900637.9916027
0.53071535,1.1088531,0.7065134,5.031891,-6.308422,-2.5252914,1.7308183,9.145941,3.0864906,1,1683900638.0018647
0.44701716,1.0683461,0.5901033,5.031891,-6.308422,-2.5252914,1.7308183,9.145941,3.0864906,1,1683900638.0223897
0.44701716,1.0683461,0.5901033,5.4515266,-6.707897,-2.8491974,1.7308183,9.145941,3.0864906,1,1683900638.0275545
0.44701716,1.0683461,0.5901033,5.4515266,-6.707897,-2.8491974,1.7011831,9.248405,2.78269,1,1683900638.0378196
0.1041109,0.8652806,0.33018246,5.4515266,-6.707897,-2.8491974,1.7011831,9.248405,2.78269,1,1683900638.0531883
0.1041109,0.8652806,0.33018246,5.4515266,-6.707897,-2.8491974,1.4814038,9.52748,1.7896825,1,1683900638.0685835
0.1041109,0.8652806,0.33018246,5.998001,-7.243824,-3.480854,1.4814038,9.52748,1.7896825,1,1683900638.0737264
-0.38765955,0.6361153,0.12834531,5.998001,-7.243824,-3.480854,1.4814038,9.52748,1.7896825,1,1683900638.1146696
-0.38765955,0.6361153,0.12834531,5.998001,-7.243824,-3.480854,1.1054349,9.711397,0.7982364,1,1683900638.1350534
-0.38765955,0.6361153,0.12834531,5.8457947,-6.9667816,-3.4169006,1.1054349,9.711397,0.7982364,1,1683900638.140145
-0.38765955,0.6361153,0.12834531,5.8457947,-6.9667816,-3.4169006,0.70000345,9.781417,-0.06536929,1,1683900638.1657982
-0.38765955,0.6361153,0.12834531,5.0286865,-5.5521965,-2.506199,0.70000345,9.781417,-0.06536929,1,1683900638.1709137
-0.610243,0.6222086,0.041219726,5.0286865,-5.5521965,-2.506199,0.70000345,9.781417,-0.06536929,1,1683900638.1760588
-0.7359344,0.6329457,-0.0583567,5.0286865,-5.5521965,-2.506199,0.70000345,9.781417,-0.06536929,1,1683900638.201601
-0.7359344,0.6329457,-0.0583567,4.511986,-4.638157,-2.0044518,0.70000345,9.781417,-0.06536929,1,1683900638.211797
-0.7359344,0.6329457,-0.0583567,4.511986,-4.638157,-2.0044518,0.58805,9.7843485,-0.30185696,1,1683900638.2169318
-0.9568042,0.62342185,-0.40614626,4.511986,-4.638157,-2.0044518,0.58805,9.7843485,-0.30185696,1,1683900638.237444
-0.9568042,0.62342185,-0.40614626,2.8417206,-2.0048523,-0.70482254,0.58805,9.7843485,-0.30185696,1,1683900638.242577
-0.9568042,0.62342185,-0.40614626,2.8417206,-2.0048523,-0.70482254,0.44973058,9.774942,-0.6470091,1,1683900638.247714
-0.9568042,0.62342185,-0.40614626,2.8417206,-2.0048523,-0.70482254,0.43867368,9.769343,-0.73341644,1,1683900638.2733362
-0.9568042,0.62342185,-0.40614626,1.621933,-0.3141594,0.054740906,0.43867368,9.769343,-0.73341644,1,1683900638.2784867
-0.68541825,0.4647911,-0.52913815,1.621933,-0.3141594,0.054740906,0.43867368,9.769343,-0.73341644,1,1683900638.283653
-0.68541825,0.4647911,-0.52913815,1.621933,-0.3141594,0.054740906,0.6745809,9.768933,-0.5322178,1,1683900638.2990477
-0.68541825,0.4647911,-0.52913815,-2.793522,5.7642174,2.3174095,0.6745809,9.768933,-0.5322178,1,1683900638.3144503
-0.68541825,0.4647911,-0.52913815,-4.17099,7.7051163,2.9128838,0.6745809,9.768933,-0.5322178,1,1683900638.3348763
-0.4962746,0.5258018,-0.46788484,-4.17099,7.7051163,2.9128838,0.6745809,9.768933,-0.5322178,1,1683900638.3450997
-0.4962746,0.5258018,-0.46788484,-4.17099,7.7051163,2.9128838,0.9924926,9.756296,-0.0057133655,1,1683900638.3502235
-0.4962746,0.5258018,-0.46788484,-4.17099,7.7051163,2.9128838,1.3137058,9.6868515,0.7806815,1,1683900638.365536
-0.4962746,0.5258018,-0.46788484,-7.2739983,11.251392,3.8205147,1.3137058,9.6868515,0.7806815,1,1683900638.3706632
0.114362754,0.78913486,-0.16867027,-7.2739983,11.251392,3.8205147,1.3137058,9.6868515,0.7806815,1,1683900638.3808527
0.40552446,0.91361296,0.12394732,-7.2739983,11.251392,3.8205147,1.3137058,9.6868515,0.7806815,1,1683900638.4013076
0.40552446,0.91361296,0.12394732,-8.298855,11.794662,3.6819267,1.3137058,9.6868515,0.7806815,1,1683900638.4166937
0.40552446,0.91361296,0.12394732,-8.298855,11.794662,3.6819267,1.5329515,9.5314245,1.7240603,1,1683900638.421824
0.4924074,0.9563189,0.21571355,-8.298855,11.794662,3.6819267,1.5329515,9.5314245,1.7240603,1,1683900638.4423492
0.4924074,0.9563189,0.21571355,-8.298855,11.794662,3.6819267,1.5839744,9.421439,2.2131207,1,1683900638.4525752
0.4924074,0.9563189,0.21571355,-8.298855,11.794662,3.6819267,1.4728825,8.880846,3.8899322,1,1683900638.4679103
0.5800183,0.9817059,0.59815615,-8.298855,11.794662,3.6819267,1.4728825,8.880846,3.8899322,1,1683900638.4730473
0.5800183,0.9817059,0.59815615,-7.441292,8.478432,1.9935036,1.4728825,8.880846,3.8899322,1,1683900638.4883993
0.5800183,0.9817059,0.59815615,-7.441292,8.478432,1.9935036,1.4306232,8.769437,4.149781,1,1683900638.5037467
0.5800183,0.9817059,0.59815615,-4.980488,4.535885,0.9900093,1.4306232,8.769437,4.149781,1,1683900638.508884
0.62078303,0.96925503,1.1653445,-4.980488,4.535885,0.9900093,1.4306232,8.769437,4.149781,1,1683900638.519148
0.6717845,1.0937179,1.2627219,-4.980488,4.535885,0.9900093,1.4306232,8.769437,4.149781,1,1683900638.5294065
0.6717845,1.0937179,1.2627219,-1.473732,0.43258667,0.068626404,1.4306232,8.769437,4.149781,1,1683900638.5447557
0.6717845,1.0937179,1.2627219,-1.473732,0.43258667,0.068626404,1.4058996,8.655592,4.390281,1,1683900638.5498934
0.6717845,1.0937179,1.2627219,1.7455673,-3.4908676,-0.9667778,1.4058996,8.655592,4.390281,1,1683900638.5755649
0.6717845,1.0937179,1.2627219,1.7455673,-3.4908676,-0.9667778,1.4673861,8.701408,4.2781596,1,1683900638.5909593
0.7547699,1.1696211,1.0523466,1.7455673,-3.4908676,-0.9667778,1.4673861,8.701408,4.2781596,1,1683900638.596086
0.7547699,1.1696211,1.0523466,3.0462646,-5.189972,-1.487751,1.4673861,8.701408,4.2781596,1,1683900638.6012127
0.7547699,1.1696211,1.0523466,3.0462646,-5.189972,-1.487751,1.5172379,8.77333,4.1106024,1,1683900638.6114829
0.72986823,1.1857269,1.02379,3.0462646,-5.189972,-1.487751,1.5172379,8.77333,4.1106024,1,1683900638.6166308
0.44310448,1.0627198,0.62768334,3.0462646,-5.189972,-1.487751,1.5172379,8.77333,4.1106024,1,1683900638.642264
0.44310448,1.0627198,0.62768334,6.1813164,-8.463478,-3.0653572,1.5172379,8.77333,4.1106024,1,1683900638.6524935
0.3393879,1.0085487,0.4983371,6.1813164,-8.463478,-3.0653572,1.5172379,8.77333,4.1106024,1,1683900638.6627154
0.3393879,1.0085487,0.4983371,6.1813164,-8.463478,-3.0653572,1.6151196,9.215616,2.9384015,1,1683900638.6678083
0.3393879,1.0085487,0.4983371,6.4859962,-8.720226,-3.3221054,1.6151196,9.215616,2.9384015,1,1683900638.6882584
0.3393879,1.0085487,0.4983371,6.4859962,-8.720226,-3.3221054,1.5830002,9.330586,2.5699542,1,1683900638.7036486
0.3393879,1.0085487,0.4983371,6.686268,-8.948135,-3.6598969,1.5830002,9.330586,2.5699542,1,1683900638.7241108
0.3393879,1.0085487,0.4983371,5.8372498,-7.448368,-2.9589462,1.5830002,9.330586,2.5699542,1,1683900638.7343438
-0.4972452,0.6397702,0.16935273,5.8372498,-7.448368,-2.9589462,1.5830002,9.330586,2.5699542,1,1683900638.7394643
-0.4972452,0.6397702,0.16935273,5.8372498,-7.448368,-2.9589462,0.6003376,9.784349,-0.2765673,1,1683900638.744595
-0.4972452,0.6397702,0.16935273,5.8372498,-7.448368,-2.9589462,0.32132566,9.76735,-0.816091,1,1683900638.7702
-0.4972452,0.6397702,0.16935273,5.0009155,-5.8706284,-2.1183395,0.32132566,9.76735,-0.816091,1,1683900638.7906845
-0.6475804,0.66539985,-0.055429764,5.0009155,-5.8706284,-2.1183395,0.32132566,9.76735,-0.816091,1,1683900638.8009396
-0.7454583,0.69030154,-0.38392884,5.0009155,-5.8706284,-2.1183395,0.32132566,9.76735,-0.816091,1,1683900638.8214593
-0.7454583,0.69030154,-0.38392884,5.0009155,-5.8706284,-2.1183395,0.13079782,9.7301235,-1.2157192,1,1683900638.826592
-0.7454583,0.69030154,-0.38392884,3.540535,-3.5643005,-1.0595703,0.13079782,9.7301235,-1.2157192,1,1683900638.8368556
-0.7298379,0.6468525,-0.6301856,3.540535,-3.5643005,-1.0595703,0.13079782,9.7301235,-1.2157192,1,1683900638.8419893
-0.7298379,0.6468525,-0.6301856,3.540535,-3.5643005,-1.0595703,0.076314524,9.703013,-1.4198893,1,1683900638.857373
-0.7298379,0.6468525,-0.6301856,1.395092,-0.5912018,0.10801315,0.076314524,9.703013,-1.4198893,1,1683900638.8625052
-0.7298379,0.6468525,-0.6301856,0.17530441,1.0663795,0.69067,0.076314524,9.703013,-1.4198893,1,1683900638.8830295
-0.6829766,0.631232,-0.69559425,0.17530441,1.0663795,0.69067,0.076314524,9.703013,-1.4198893,1,1683900638.888162
-0.6829766,0.631232,-0.69559425,0.17530441,1.0663795,0.69067,0.10887497,9.700446,-1.4352317,1,1683900638.908642
-0.3449536,0.71226114,-0.7292768,0.17530441,1.0663795,0.69067,0.10887497,9.700446,-1.4352317,1,1683900638.9188716
-0.3449536,0.71226114,-0.7292768,-3.3699036,5.649128,2.1650696,0.10887497,9.700446,-1.4352317,1,1683900638.9342697
-0.3449536,0.71226114,-0.7292768,-3.3699036,5.649128,2.1650696,0.42180994,9.733696,-1.1169721,1,1683900638.9444447
-0.3449536,0.71226114,-0.7292768,-5.2192116,7.538891,2.7126122,0.42180994,9.733696,-1.1169721,1,1683900638.964954
-0.08406216,0.81890464,-0.56453437,-5.2192116,7.538891,2.7126122,0.42180994,9.733696,-1.1169721,1,1683900638.9700613
-0.08406216,0.81890464,-0.56453437,-5.2192116,7.538891,2.7126122,0.7323439,9.759385,-0.6232695,1,1683900638.9752
-0.08406216,0.81890464,-0.56453437,-5.2192116,7.538891,2.7126122,1.0336052,9.751917,0.046576858,1,1683900638.9904969
-0.08406216,0.81890464,-0.56453437,-6.4996147,8.546658,2.8585434,1.0336052,9.751917,0.046576858,1,1683900638.9956162
0.12826948,0.85551405,-0.34756207,-6.4996147,8.546658,2.8585434,1.0336052,9.751917,0.046576858,1,1683900639.0007465
0.12118721,0.7586371,-0.016863994,-6.4996147,8.546658,2.8585434,1.0336052,9.751917,0.046576858,1,1683900639.021257
0.12118721,0.7586371,-0.016863994,-6.4996147,8.546658,2.8585434,1.0890086,9.73278,0.50737363,1,1683900639.0263898
0.12118721,0.7586371,-0.016863994,-8.76976,10.587692,3.499813,1.0890086,9.73278,0.50737363,1,1683900639.0315146
0.23834041,0.82745796,0.8224382,-8.76976,10.587692,3.499813,1.0890086,9.73278,0.50737363,1,1683900639.041776
0.23834041,0.82745796,0.8224382,-8.615284,9.437199,2.8116798,1.0890086,9.73278,0.50737363,1,1683900639.0469005
0.23834041,0.82745796,0.8224382,-8.615284,9.437199,2.8116798,1.3527079,9.510117,1.9743999,1,1683900639.0520377
0.23834041,0.82745796,0.8224382,-8.615284,9.437199,2.8116798,1.3779699,9.402605,2.4212785,1,1683900639.0776763
0.32376745,0.83502555,1.0320855,-8.615284,9.437199,2.8116798,1.3779699,9.402605,2.4212785,1,1683900639.0827725
0.32376745,0.83502555,1.0320855,-8.063469,8.489113,2.4770927,1.3779699,9.402605,2.4212785,1,1683900639.1083903
0.32376745,0.83502555,1.0320855,-8.063469,8.489113,2.4770927,1.3899955,9.100898,3.3781614,1,1683900639.1135225
0.32376745,0.83502555,1.0320855,-4.3914223,3.6549568,1.2585068,1.3899955,9.100898,3.3781614,1,1683900639.123783
0.66373163,0.9175105,1.4645591,-4.3914223,3.6549568,1.2585068,1.3899955,9.100898,3.3781614,1,1683900639.133977
0.66373163,0.9175105,1.4645591,-4.3914223,3.6549568,1.2585068,1.4675925,9.057183,3.4617915,1,1683900639.1596441
0.66373163,0.9175105,1.4645591,1.5547752,-2.9411888,-0.52150726,1.4675925,9.057183,3.4617915,1,1683900639.1647732
0.9873474,1.2482085,1.5048233,1.5547752,-2.9411888,-0.52150726,1.4675925,9.057183,3.4617915,1,1683900639.175028
0.9873474,1.2482085,1.5048233,3.4030151,-4.957657,-1.200161,1.4675925,9.057183,3.4617915,1,1683900639.205709
0.955136,1.2953125,1.3622984,3.4030151,-4.957657,-1.200161,1.4675925,9.057183,3.4617915,1,1683900639.2108366
0.955136,1.2953125,1.3622984,3.4030151,-4.957657,-1.200161,1.5049816,9.118648,3.279584,1,1683900639.215969
0.955136,1.2953125,1.3622984,3.4030151,-4.957657,-1.200161,1.533289,9.308126,2.6792154,1,1683900639.226233
0.7667203,1.1803583,1.0750341,3.4030151,-4.957657,-1.200161,1.533289,9.308126,2.6792154,1,1683900639.2313268
0.7667203,1.1803583,1.0750341,6.1120224,-7.7732086,-2.478428,1.533289,9.308126,2.6792154,1,1683900639.2364588
0.7667203,1.1803583,1.0750341,7.560787,-8.896999,-3.4318542,1.533289,9.308126,2.6792154,1,1683900639.2569838
0.7667203,1.1803583,1.0750341,7.560787,-8.896999,-3.4318542,1.5033739,9.415068,2.2949448,1,1683900639.2671907
0.48655352,1.0231835,0.68625236,7.560787,-8.896999,-3.4318542,1.5033739,9.415068,2.2949448,1,1683900639.2723157
-0.43183655,0.7249546,-0.20063907,7.560787,-8.896999,-3.4318542,1.5033739,9.415068,2.2949448,1,1683900639.2928445
-0.43183655,0.7249546,-0.20063907,5.933113,-7.657051,-2.6190186,1.5033739,9.415068,2.2949448,1,1683900639.303111
-0.43183655,0.7249546,-0.20063907,5.933113,-7.657051,-2.6190186,0.37557712,9.753554,-0.94737136,1,1683900639.3133788
-0.6387996,0.79791564,-0.51254714,5.933113,-7.657051,-2.6190186,0.37557712,9.753554,-0.94737136,1,1683900639.3748999
-0.6387996,0.79791564,-0.51254714,3.1601524,-3.6496162,-0.9892082,0.37557712,9.753554,-0.94737136,1,1683900639.3800375
-0.6387996,0.79791564,-0.51254714,3.1601524,-3.6496162,-0.9892082,-0.1264511,9.6356,-1.8192356,1,1683900639.3954291
-0.6387996,0.79791564,-0.51254714,0.8858681,-0.3355217,0.072898865,-0.1264511,9.6356,-1.8192356,1,1683900639.4159422
-0.6387996,0.79791564,-0.51254714,0.8858681,-0.3355217,0.072898865,-0.18382113,9.604256,-1.9735477,1,1683900639.4261982
-0.65442,0.7566807,-0.7714974,0.8858681,-0.3355217,0.072898865,-0.18382113,9.604256,-1.9735477,1,1683900639.4312916
-0.65442,0.7566807,-0.7714974,0.8858681,-0.3355217,0.072898865,-0.1474086,9.607208,-1.9621965,1,1683900639.446685
-0.65442,0.7566807,-0.7714974,-0.44353485,1.5563774,0.6044197,-0.1474086,9.607208,-1.9621965,1,1683900639.4569035
-0.6324605,0.715916,-0.86887485,-0.44353485,1.5563774,0.6044197,-0.1474086,9.607208,-1.9621965,1,1683900639.4671664
-0.3488663,0.7395893,-0.90645486,-0.44353485,1.5563774,0.6044197,-0.1474086,9.607208,-1.9621965,1,1683900639.4773629
-0.3488663,0.7395893,-0.90645486,-4.4713974,6.7910767,2.024479,-0.1474086,9.607208,-1.9621965,1,1683900639.4978662
-0.3488663,0.7395893,-0.90645486,-4.4713974,6.7910767,2.024479,0.19997989,9.684323,-1.5311041,1,1683900639.5029898
-0.3488663,0.7395893,-0.90645486,-7.943039,10.099831,2.7477264,0.19997989,9.684323,-1.5311041,1,1683900639.5491543
-0.3488663,0.7395893,-0.90645486,-7.943039,10.099831,2.7477264,0.69965804,9.766774,-0.539425,1,1683900639.5542815
-0.080634765,0.7862079,-0.24384548,-7.943039,10.099831,2.7477264,0.69965804,9.766774,-0.539425,1,1683900639.5645127
-0.080634765,0.7862079,-0.24384548,-9.542007,12.461433,3.6926079,0.69965804,9.766774,-0.539425,1,1683900639.5850015
0.21271078,0.80963856,0.0675773,-9.542007,12.461433,3.6926079,0.69965804,9.766774,-0.539425,1,1683900639.5901349
0.21271078,0.80963856,0.0675773,-9.838142,12.282524,3.025837,0.69965804,9.766774,-0.539425,1,1683900639.6105273
0.3752542,0.8740614,0.34433183,-9.838142,12.282524,3.025837,0.69965804,9.766774,-0.539425,1,1683900639.6156588
0.3752542,0.8740614,0.34433183,-9.838142,12.282524,3.025837,1.269721,9.6497,1.2006153,1,1683900639.6258986
0.3752542,0.8740614,0.34433183,-9.838142,12.282524,3.025837,1.3668072,9.4335575,2.3043904,1,1683900639.6361303
0.3752542,0.8740614,0.34433183,-9.530258,11.467552,2.4580002,1.3668072,9.4335575,2.3043904,1,1683900639.6412756
0.3752542,0.8740614,0.34433183,-9.530258,11.467552,2.4580002,1.338702,9.294153,2.8278909,1,1683900639.6567044
0.43333793,0.89627886,0.47587705,-9.530258,11.467552,2.4580002,1.338702,9.294153,2.8278909,1,1683900639.666975
0.6456696,0.9704683,1.691768,-9.530258,11.467552,2.4580002,1.338702,9.294153,2.8278909,1,1683900639.682334
0.6456696,0.9704683,1.691768,-9.530258,11.467552,2.4580002,1.1609069,8.884738,3.985488,1,1683900639.6977262
0.6456696,0.9704683,1.691768,-5.652733,4.1513634,0.6172371,1.1609069,8.884738,3.985488,1,1683900639.702859
0.6893613,1.011961,2.2218616,-5.652733,4.1513634,0.6172371,1.1609069,8.884738,3.985488,1,1683900639.7080047
0.51266843,1.0334352,1.8626069,-5.652733,4.1513634,0.6172371,1.1609069,8.884738,3.985488,1,1683900639.7490075
0.51266843,1.0334352,1.8626069,-5.652733,4.1513634,0.6172371,1.2655115,8.896734,3.926448,1,1683900639.764436
0.51266843,1.0334352,1.8626069,3.7833977,-5.1089287,-1.1575699,1.2655115,8.896734,3.926448,1,1683900639.7696235
0.51266843,1.0334352,1.8626069,3.7833977,-5.1089287,-1.1575699,1.3604003,9.118535,3.3424566,1,1683900639.7850878
0.51266843,1.0334352,1.8626069,6.3251114,-6.834736,-1.793499,1.3604003,9.118535,3.3424566,1,1683900639.7953808
0.38110808,0.9817059,1.29005,6.3251114,-6.834736,-1.793499,1.3604003,9.118535,3.3424566,1,1683900639.800537
0.26518327,0.98975873,0.938363,6.3251114,-6.834736,-1.793499,1.3604003,9.118535,3.3424566,1,1683900639.8160045
0.26518327,0.98975873,0.938363,6.3251114,-6.834736,-1.793499,1.3786135,9.24104,2.9787548,1,1683900639.8365896
-0.13068078,0.7000529,-0.09789306,6.3251114,-6.834736,-1.793499,1.3786135,9.24104,2.9787548,1,1683900639.8468165
-0.13068078,0.7000529,-0.09789306,6.3251114,-6.834736,-1.793499,0.58770186,9.788653,-0.085167624,1,1683900639.8622777
-0.13068078,0.7000529,-0.09789306,6.3251114,-6.834736,-1.793499,0.22195028,9.776901,-0.73029965,1,1683900639.8726463
-0.359103,0.6822335,-0.16745704,6.3251114,-6.834736,-1.793499,0.22195028,9.776901,-0.73029965,1,1683900639.8829494
-0.359103,0.6822335,-0.16745704,6.3484764,-8.011799,-3.378582,0.22195028,9.776901,-0.73029965,1,1683900639.893248
-0.4442874,0.6758943,-0.2065081,6.3484764,-8.011799,-3.378582,0.22195028,9.776901,-0.73029965,1,1683900639.9086678
-0.4442874,0.6758943,-0.2065081,5.9000015,-7.5942993,-3.1112862,0.22195028,9.776901,-0.73029965,1,1683900639.9241254
-0.4442874,0.6758943,-0.2065081,5.9000015,-7.5942993,-3.1112862,0.03098068,9.752858,-1.0252765,1,1683900639.929284
-0.4442874,0.6758943,-0.2065081,4.7655296,-6.205082,-2.1951103,0.03098068,9.752858,-1.0252765,1,1683900639.94475
-0.64295495,0.6895584,-0.32707354,4.7655296,-6.205082,-2.1951103,0.03098068,9.752858,-1.0252765,1,1683900639.9550126
-0.64295495,0.6895584,-0.32707354,4.7655296,-6.205082,-2.1951103,-0.5001623,9.634021,-1.7623472,1,1683900639.9601438
-0.675409,0.7120185,-0.40174827,4.7655296,-6.205082,-2.1951103,-0.5001623,9.634021,-1.7623472,1,1683900639.9652727
-0.675409,0.7120185,-0.40174827,4.193554,-5.3998566,-1.775341,-0.5001623,9.634021,-1.7623472,1,1683900639.970429
-0.675409,0.7120185,-0.40174827,4.193554,-5.3998566,-1.775341,-0.8839955,9.490741,-2.3053782,1,1683900640.0164557
-0.7928049,0.7242115,-0.7102441,4.193554,-5.3998566,-1.775341,-0.8839955,9.490741,-2.3053782,1,1683900640.0318196
-0.7928049,0.7242115,-0.7102441,4.193554,-5.3998566,-1.775341,-0.8374293,9.489734,-2.3268116,1,1683900640.0369558
-0.7928049,0.7242115,-0.7102441,1.6965675,-1.8013763,-0.29146194,-0.8374293,9.489734,-2.3268116,1,1683900640.042116
-0.81744874,0.6646719,-0.86082196,1.6965675,-1.8013763,-0.29146194,-0.8374293,9.489734,-2.3268116,1,1683900640.0472097
-0.81744874,0.6646719,-0.86082196,1.6965675,-1.8013763,-0.29146194,-0.74726003,9.512577,-2.263374,1,1683900640.0779054
-0.76937425,0.6463672,-0.8713165,1.6965675,-1.8013763,-0.29146194,-0.74726003,9.512577,-2.263374,1,1683900640.0830324
-0.76937425,0.6463672,-0.8713165,-1.7549133,2.868824,1.4001656,-0.74726003,9.512577,-2.263374,1,1683900640.093301
-0.76937425,0.6463672,-0.8713165,-1.7549133,2.868824,1.4001656,-0.26146933,9.643991,-1.7593933,1,1683900640.1137714
-0.49823093,0.8176914,-1.2261732,-1.7549133,2.868824,1.4001656,-0.26146933,9.643991,-1.7593933,1,1683900640.1189015
-0.49823093,0.8176914,-1.2261732,-1.7549133,2.868824,1.4001656,-0.62268436,9.559092,-2.0991495,1,1683900640.134272
-0.39694083,0.83940834,-1.0609454,-1.7549133,2.868824,1.4001656,-0.62268436,9.559092,-2.0991495,1,1683900640.154768
-0.39694083,0.83940834,-1.0609454,-4.1230583,6.724987,1.7570496,-0.62268436,9.559092,-2.0991495,1,1683900640.180323
-0.39694083,0.83940834,-1.0609454,-6.8862724,8.336773,2.2875023,-0.62268436,9.559092,-2.0991495,1,1683900640.1905427
-0.24684823,0.721785,-0.27434322,-6.8862724,8.336773,2.2875023,-0.62268436,9.559092,-2.0991495,1,1683900640.2007883
-0.24684823,0.721785,-0.27434322,-6.8862724,8.336773,2.2875023,0.035132587,9.755951,-0.995269,1,1683900640.2059245
-0.24684823,0.721785,-0.27434322,-6.8862724,8.336773,2.2875023,0.3084237,9.797766,-0.2811472,1,1683900640.216143
-0.14360176,0.719586,0.21230131,-6.8862724,8.336773,2.2875023,0.3084237,9.797766,-0.2811472,1,1683900640.2212858
-0.14360176,0.719586,0.21230131,-7.156906,8.2728195,2.2971153,0.3084237,9.797766,-0.2811472,1,1683900640.231541
-0.08259111,0.75276804,0.4131527,-7.156906,8.2728195,2.2971153,0.3084237,9.797766,-0.2811472,1,1683900640.2418242
-0.08259111,0.75276804,0.4131527,-7.156906,8.2728195,2.2971153,0.42095518,9.797265,0.0825014,1,1683900640.2623777
-0.08259111,0.75276804,0.4131527,-7.054634,8.082161,2.253456,0.42095518,9.797265,0.0825014,1,1683900640.2726288
-0.08259111,0.75276804,0.4131527,-5.841255,6.828327,1.9040489,0.42095518,9.797265,0.0825014,1,1683900640.2982824
0.09751392,0.85161656,0.9727886,-5.841255,6.828327,1.9040489,0.42095518,9.797265,0.0825014,1,1683900640.3033674
0.09751392,0.85161656,0.9727886,-5.841255,6.828327,1.9040489,0.6546051,9.722925,1.0984566,1,1683900640.3085036
0.16316521,0.8843133,1.089684,-5.841255,6.828327,1.9040489,0.6546051,9.722925,1.0984566,1,1683900640.3341138
0.28373063,0.98364705,1.043308,-5.841255,6.828327,1.9040489,0.6546051,9.722925,1.0984566,1,1683900640.3545854
0.28373063,0.98364705,1.043308,-2.4357033,3.8083649,1.1870766,0.6546051,9.722925,1.0984566,1,1683900640.3597014
0.28373063,0.98364705,1.043308,-2.4357033,3.8083649,1.1870766,0.7910327,9.577822,1.9519203,1,1683900640.3751042
0.28373063,0.98364705,1.043308,-0.55648804,1.747036,0.62898636,0.7910327,9.577822,1.9519203,1,1683900640.3853812
0.28373063,0.98364705,1.043308,-0.55648804,1.747036,0.62898636,0.76847833,9.501611,2.3020022,1,1683900640.3956368
0.28373063,0.98364705,1.043308,-1.1508942,1.6511726,1.0411453,0.76847833,9.501611,2.3020022,1,1683900640.4058917
0.28373063,0.98364705,1.043308,-1.1508942,1.6511726,1.0411453,0.841595,9.512602,2.2299116,1,1683900640.431548
0.28373063,0.98364705,1.043308,1.5836143,-1.145153,0.36582947,0.841595,9.512602,2.2299116,1,1683900640.446957
0.6073616,1.0776123,0.9520422,1.5836143,-1.145153,0.36582947,0.841595,9.512602,2.2299116,1,1683900640.4520907
0.6073616,1.0776123,0.9520422,2.8032684,-2.7227592,-0.119895935,0.841595,9.512602,2.2299116,1,1683900640.4828596
0.7132772,1.1508311,0.72360486,2.8032684,-2.7227592,-0.119895935,0.841595,9.512602,2.2299116,1,1683900640.4879966
0.7132772,1.1508311,0.72360486,2.8032684,-2.7227592,-0.119895935,0.8724827,9.541346,2.0909061,1,1683900640.4931304
0.7132772,1.1508311,0.72360486,2.8032684,-2.7227592,-0.119895935,0.8656834,9.679372,1.3155746,1,1683900640.49828
0.7132772,1.1508311,0.72360486,5.810547,-7.2203255,-1.7391586,0.8656834,9.679372,1.3155746,1,1683900640.5085385
0.5575734,1.2267343,0.28600547,5.810547,-7.2203255,-1.7391586,0.8656834,9.679372,1.3155746,1,1683900640.513672
0.5575734,1.2267343,0.28600547,5.810547,-7.2203255,-1.7391586,0.44369447,9.79493,-0.18122146,1,1683900640.585343
0.049682055,0.93288827,-0.05103178,5.810547,-7.2203255,-1.7391586,0.44369447,9.79493,-0.18122146,1,1683900640.590477
0.049682055,0.93288827,-0.05103178,7.4127197,-10.10397,-3.1975365,0.44369447,9.79493,-0.18122146,1,1683900640.600732
-0.2422076,0.7723012,-0.09837835,7.4127197,-10.10397,-3.1975365,0.44369447,9.79493,-0.18122146,1,1683900640.6212606
-0.2422076,0.7723012,-0.09837835,7.4127197,-10.10397,-3.1975365,0.0515817,9.762477,-0.9283185,1,1683900640.626394
-0.2422076,0.7723012,-0.09837835,7.323265,-10.291557,-3.4095573,0.0515817,9.762477,-0.9283185,1,1683900640.6315348
-0.2422076,0.7723012,-0.09837835,7.117653,-10.074196,-3.378582,0.0515817,9.762477,-0.9283185,1,1683900640.6417978
-0.2422076,0.7723012,-0.09837835,7.117653,-10.074196,-3.378582,-0.17312492,9.722166,-1.2727599,1,1683900640.6674306
-0.36765632,0.6959127,-0.10961596,7.117653,-10.074196,-3.378582,-0.17312492,9.722166,-1.2727599,1,1683900640.6725314
-0.9941416,0.6527063,-0.3141374,7.117653,-10.074196,-3.378582,-0.17312492,9.722166,-1.2727599,1,1683900640.6930616
-0.9941416,0.6527063,-0.3141374,2.9183578,-3.8689804,-1.4334106,-0.17312492,9.722166,-1.2727599,1,1683900640.698192
-1.099587,0.54069424,-0.5323229,2.9183578,-3.8689804,-1.4334106,-0.17312492,9.722166,-1.2727599,1,1683900640.70841
-1.099587,0.54069424,-0.5323229,2.9183578,-3.8689804,-1.4334106,-0.80966383,9.53195,-2.1579516,1,1683900640.7186327
-1.099587,0.54069424,-0.5323229,0.51296234,0.15127182,0.021762848,-0.80966383,9.53195,-2.1579516,1,1683900640.7237275
-1.099587,0.54069424,-0.5323229,0.51296234,0.15127182,0.021762848,-0.8885535,9.499321,-2.2679837,1,1683900640.728855
-1.099587,0.54069424,-0.5323229,-0.84300995,2.4308968,0.769577,-0.8885535,9.499321,-2.2679837,1,1683900640.7647104
-1.0558953,0.507497,-0.59967273,-0.84300995,2.4308968,0.769577,-0.8885535,9.499321,-2.2679837,1,1683900640.7698393
-1.0558953,0.507497,-0.59967273,-0.84300995,2.4308968,0.769577,-0.8368372,9.509781,-2.2436936,1,1683900640.7749822
-0.62293655,0.6561337,-0.7753949,-0.84300995,2.4308968,0.769577,-0.8368372,9.509781,-2.2436936,1,1683900640.7852428
-0.62293655,0.6561337,-0.7753949,-0.84300995,2.4308968,0.769577,-0.37497634,9.625477,-1.838471,1,1683900640.7903683
-0.62293655,0.6561337,-0.7753949,-4.520397,7.8947067,2.590046,-0.37497634,9.625477,-1.838471,1,1683900640.8006217
-0.62293655,0.6561337,-0.7753949,-5.4471207,8.825703,2.979908,-0.37497634,9.625477,-1.838471,1,1683900640.8364553
-0.47942576,0.6917574,-0.6868135,-5.4471207,8.825703,2.979908,-0.37497634,9.625477,-1.838471,1,1683900640.8415442
-0.47942576,0.6917574,-0.6868135,-5.4471207,8.825703,2.979908,0.060091015,9.719542,-1.3027992,1,1683900640.8466897
-0.47942576,0.6917574,-0.6868135,-7.148361,9.913311,3.429451,0.060091015,9.719542,-1.3027992,1,1683900640.8518188
0.05139575,0.79256225,-0.23652056,-7.148361,9.913311,3.429451,0.060091015,9.719542,-1.3027992,1,1683900640.867196
0.34572706,0.92190844,0.13371389,-7.148361,9.913311,3.429451,0.060091015,9.719542,-1.3027992,1,1683900640.8825707
0.34572706,0.92190844,0.13371389,-7.148361,9.913311,3.429451,0.82734364,9.769949,0.18433051,1,1683900640.8928292
0.34572706,0.92190844,0.13371389,-7.4455643,9.764175,3.1290436,0.82734364,9.769949,0.18433051,1,1683900640.9030938
0.4548274,0.97438097,0.28332117,-7.4455643,9.764175,3.1290436,0.82734364,9.769949,0.18433051,1,1683900640.9338858
0.4548274,0.97438097,0.28332117,-7.4455643,9.764175,3.1290436,0.9505906,9.742986,0.5839486,1,1683900640.9390109
0.4548274,0.97438097,0.28332117,-7.3145866,9.452152,2.8180885,0.9505906,9.742986,0.5839486,1,1683900640.9441426
0.5675826,1.1149496,1.0647974,-7.3145866,9.452152,2.8180885,0.9505906,9.742986,0.5839486,1,1683900640.954408
0.5675826,1.1149496,1.0647974,-2.1661377,3.1713676,1.4119148,0.9505906,9.742986,0.5839486,1,1683900640.9646776
0.5675826,1.1149496,1.0647974,-2.1661377,3.1713676,1.4119148,1.1606182,9.515249,2.0696325,1,1683900640.9800375
0.5675826,1.1149496,1.0647974,-1.0646439,1.9505119,1.0464859,1.1606182,9.515249,2.0696325,1,1683900640.9903166
0.66276103,1.178402,0.9224999,-1.0646439,1.9505119,1.0464859,1.1606182,9.515249,2.0696325,1,1683900641.0005336
0.66276103,1.178402,0.9224999,-1.0646439,1.9505119,1.0464859,1.1957804,9.495541,2.1389713,1,1683900641.0056806
0.66276103,1.178402,0.9224999,1.8882942,-2.0718765,-0.3809166,1.1957804,9.495541,2.1389713,1,1683900641.0262027
0.66276103,1.178402,0.9224999,1.8882942,-2.0718765,-0.3809166,1.2569668,9.517457,2.002108,1,1683900641.0466917
0.79186463,1.2730951,0.46929523,1.8882942,-2.0718765,-0.3809166,1.2569668,9.517457,2.002108,1,1683900641.051838
0.6978994,1.2365009,0.31626055,1.8882942,-2.0718765,-0.3809166,1.2569668,9.517457,2.002108,1,1683900641.062092
0.6978994,1.2365009,0.31626055,3.5426712,-4.8459053,-1.4334106,1.2569668,9.517457,2.002108,1,1683900641.0825355
0.6978994,1.2365009,0.31626055,3.5426712,-4.8459053,-1.4334106,1.2345154,9.58719,1.6529199,1,1683900641.0876322
0.6978994,1.2365009,0.31626055,4.270191,-6.1252403,-1.9021797,1.2345154,9.58719,1.6529199,1,1683900641.097894
0.6978994,1.2365009,0.31626055,4.270191,-6.1252403,-1.9021797,1.1957694,9.630334,1.4132184,1,1683900641.1081133
0.6036916,1.20159,0.29918423,4.270191,-6.1252403,-1.9021797,1.1957694,9.630334,1.4132184,1,1683900641.1234958
0.3161999,1.0566232,0.26306012,4.270191,-6.1252403,-1.9021797,1.1957694,9.630334,1.4132184,1,1683900641.154224
0.3161999,1.0566232,0.26306012,4.270191,-6.1252403,-1.9021797,0.94203466,9.748225,0.5050406,1,1683900641.159311
0.23614141,1.0148879,0.23718783,4.270191,-6.1252403,-1.9021797,0.94203466,9.748225,0.5050406,1,1683900641.1695685
0.23614141,1.0148879,0.23718783,4.270191,-6.1252403,-1.9021797,0.8076717,9.771909,0.16686027,1,1683900641.179834
0.23614141,1.0148879,0.23718783,6.1460686,-9.273109,-3.1059456,0.8076717,9.771909,0.16686027,1,1683900641.1849723
-0.06135946,0.82939917,0.10735631,6.1460686,-9.273109,-3.1059456,0.8076717,9.771909,0.16686027,1,1683900641.2003286
-0.06135946,0.82939917,0.10735631,6.3240433,-9.422245,-3.4532166,0.8076717,9.771909,0.16686027,1,1683900641.2054663
-0.06135946,0.82939917,0.10735631,6.3240433,-9.422245,-3.4532166,0.26588896,9.767688,-0.8318401,1,1683900641.2106018
-0.06135946,0.82939917,0.10735631,7.033539,-9.971924,-4.3863487,0.26588896,9.767688,-0.8318401,1,1683900641.2362444
-0.08089258,0.7320217,0.14616473,7.033539,-9.971924,-4.3863487,0.26588896,9.767688,-0.8318401,1,1683900641.2464693
-0.08089258,0.7320217,0.14616473,6.448612,-9.163361,-4.305439,0.26588896,9.767688,-0.8318401,1,1683900641.2567396
-0.39377123,0.6070735,0.1586004,6.448612,-9.163361,-4.305439,0.26588896,9.767688,-0.8318401,1,1683900641.261832
-0.39377123,0.6070735,0.1586004,6.448612,-9.163361,-4.305439,-0.46066797,9.705055,-1.3304431,1,1683900641.2772377
-0.39377123,0.6070735,0.1586004,6.0886574,-8.561478,-4.1178513,-0.46066797,9.705055,-1.3304431,1,1683900641.2977524
-0.39377123,0.6070735,0.1586004,6.0886574,-8.561478,-4.1178513,-0.7277469,9.648629,-1.5952183,1,1683900641.3028836
-0.5641249,0.57290566,0.16715373,6.0886574,-8.561478,-4.1178513,-0.7277469,9.648629,-1.5952183,1,1683900641.3079784
-0.5641249,0.57290566,0.16715373,6.0886574,-8.561478,-4.1178513,-1.4306062,9.446432,-2.2110355,1,1683900641.33359
-1.1225172,0.49992946,-0.07300653,6.0886574,-8.561478,-4.1178513,-1.4306062,9.446432,-2.2110355,1,1683900641.3386898
-1.1225172,0.49992946,-0.07300653,6.0886574,-8.561478,-4.1178513,-1.7019376,9.340544,-2.4552062,1,1683900641.3745837
-1.1225172,0.49992946,-0.07300653,2.5188828,-2.2126007,-1.4280701,-1.7019376,9.340544,-2.4552062,1,1683900641.379714
-1.3961022,0.36545733,-0.48935914,2.5188828,-2.2126007,-1.4280701,-1.7019376,9.340544,-2.4552062,1,1683900641.3848436
-1.3961022,0.36545733,-0.48935914,0.05180359,1.7310143,0.15060425,-1.7019376,9.340544,-2.4552062,1,1683900641.4002373
-1.3961022,0.36545733,-0.48935914,0.05180359,1.7310143,0.15060425,-1.7374674,9.309913,-2.545021,1,1683900641.4053726
-1.3765842,0.30957258,-0.8307944,0.05180359,1.7310143,0.15060425,-1.7374674,9.309913,-2.545021,1,1683900641.4156275
-1.3765842,0.30957258,-0.8307944,-4.9720764,6.7559624,3.1450653,-1.7374674,9.309913,-2.545021,1,1683900641.5028145
-1.3765842,0.30957258,-0.8307944,-3.252678,5.5436516,1.9040489,-1.7374674,9.309913,-2.545021,1,1683900641.518168
-1.3765842,0.30957258,-0.8307944,-3.252678,5.5436516,1.9040489,-1.4665421,9.476973,-2.0510056,1,1683900641.5283885
-0.8633394,0.6280625,-0.96893656,-3.252678,5.5436516,1.9040489,-1.4665421,9.476973,-2.0510056,1,1683900641.5335236
-0.65050733,0.64075595,-0.7146269,-3.252678,5.5436516,1.9040489,-1.4665421,9.476973,-2.0510056,1,1683900641.5590906
-0.65050733,0.64075595,-0.7146269,-3.252678,5.5436516,1.9040489,-1.111593,9.5918045,-1.712325,1,1683900641.564223
-0.65050733,0.64075595,-0.7146269,-5.0561905,7.1873474,2.7147484,-1.111593,9.5918045,-1.712325,1,1683900641.574485
-0.65050733,0.64075595,-0.7146269,-5.0561905,7.1873474,2.7147484,-0.91136247,9.651285,-1.4807098,1,1683900641.5898786
-0.5177489,0.62610614,-0.5359778,-5.0561905,7.1873474,2.7147484,-0.91136247,9.651285,-1.4807098,1,1683900641.6001353
-0.5177489,0.62610614,-0.5359778,-5.722027,7.673073,3.0002022,-0.91136247,9.651285,-1.4807098,1,1683900641.6052322
-0.5177489,0.62610614,-0.5359778,-6.8458176,8.417683,3.2792473,-0.91136247,9.651285,-1.4807098,1,1683900641.6154919
-0.5177489,0.62610614,-0.5359778,-6.8458176,8.417683,3.2792473,-0.14188802,9.801917,-0.26958433,1,1683900641.6308548
-0.13336508,0.6995676,0.063664615,-6.8458176,8.417683,3.2792473,-0.14188802,9.801917,-0.26958433,1,1683900641.63595
-0.041098405,0.7447152,0.2447554,-6.8458176,8.417683,3.2792473,-0.14188802,9.801917,-0.26958433,1,1683900641.6615539
-0.041098405,0.7447152,0.2447554,-6.9247246,8.49659,3.20261,-0.14188802,9.801917,-0.26958433,1,1683900641.6769528
0.21271078,0.87993044,0.5739976,-6.9247246,8.49659,3.20261,-0.14188802,9.801917,-0.26958433,1,1683900641.6974456
0.21271078,0.87993044,0.5739976,-6.1831856,7.743435,2.53891,-0.14188802,9.801917,-0.26958433,1,1683900641.7128146
0.21271078,0.87993044,0.5739976,-6.1831856,7.743435,2.53891,0.24684836,9.7773485,0.71617645,1,1683900641.7179067
0.21271078,0.87993044,0.5739976,-4.7919655,5.897331,1.8284798,0.24684836,9.7773485,0.71617645,1,1683900641.743564
0.41210628,0.9760795,0.66160846,-4.7919655,5.897331,1.8284798,0.24684836,9.7773485,0.71617645,1,1683900641.7486856
0.41210628,0.9760795,0.66160846,-4.7919655,5.897331,1.8284798,0.38812172,9.718371,1.2541865,1,1683900641.753816
0.5363417,1.0468568,0.66820544,-4.7919655,5.897331,1.8284798,0.38812172,9.718371,1.2541865,1,1683900641.7589378
0.5363417,1.0468568,0.66820544,-3.8269234,4.5082474,1.4023018,0.38812172,9.718371,1.2541865,1,1683900641.7691905
0.5363417,1.0468568,0.66820544,-3.8269234,4.5082474,1.4023018,0.43155903,9.688622,1.4542148,1,1683900641.7794511
0.5363417,1.0468568,0.66820544,4.3660545,-4.7447014,-1.4856148,0.43155903,9.688622,1.4542148,1,1683900641.789674
0.5363417,1.0468568,0.66820544,4.3660545,-4.7447014,-1.4856148,0.59591913,9.680913,1.4474784,1,1683900641.7999346
0.955136,1.3656044,0.7077418,4.3660545,-4.7447014,-1.4856148,0.59591913,9.680913,1.4474784,1,1683900641.815289
0.76867664,1.2735956,0.37728637,4.3660545,-4.7447014,-1.4856148,0.59591913,9.680913,1.4474784,1,1683900641.8255625
0.76867664,1.2735956,0.37728637,4.3660545,-4.7447014,-1.4856148,0.45789456,9.757605,0.8659516,1,1683900641.840914
0.76867664,1.2735956,0.37728637,6.093998,-7.1394157,-2.6872444,0.45789456,9.757605,0.8659516,1,1683900641.8511941
0.76867664,1.2735956,0.37728637,6.65102,-8.04491,-3.183651,0.45789456,9.757605,0.8659516,1,1683900641.8563247
0.61809874,1.1940224,0.28771916,6.65102,-8.04491,-3.183651,0.45789456,9.757605,0.8659516,1,1683900641.8665862
0.61809874,1.1940224,0.28771916,6.65102,-8.04491,-3.183651,0.3372282,9.786649,0.5274199,1,1683900641.8871446
0.61809874,1.1940224,0.28771916,7.2444916,-9.132519,-3.9006233,0.3372282,9.786649,0.5274199,1,1683900641.9076226
0.61809874,1.1940224,0.28771916,7.2444916,-9.132519,-3.9006233,-0.004671324,9.804956,-0.18216614,1,1683900641.912759
0.16683525,0.9580174,0.064650364,7.2444916,-9.132519,-3.9006233,-0.004671324,9.804956,-0.18216614,1,1683900641.9230244
0.16683525,0.9580174,0.064650364,7.2444916,-9.132519,-3.9006233,-0.2214758,9.78955,-0.534838,1,1683900641.943476
0.16683525,0.9580174,0.064650364,7.3286057,-9.404087,-4.1221237,-0.2214758,9.78955,-0.534838,1,1683900641.9485984
-0.38327673,0.7513122,0.025114005,7.3286057,-9.404087,-4.1221237,-0.2214758,9.78955,-0.534838,1,1683900641.969087
-0.38327673,0.7513122,0.025114005,7.3286057,-9.404087,-4.1221237,-0.9828073,9.643948,-1.4828181,1,1683900641.9793167
-0.38327673,0.7513122,0.025114005,6.8950844,-9.07711,-4.1552353,-0.9828073,9.643948,-1.4828181,1,1683900641.994641
-0.96265805,0.64441085,-0.24213177,6.8950844,-9.07711,-4.1552353,-0.9828073,9.643948,-1.4828181,1,1683900642.015084
-0.96265805,0.64441085,-0.24213177,5.963955,-7.644367,-3.601284,-0.9828073,9.643948,-1.4828181,1,1683900642.0201807
-0.96265805,0.64441085,-0.24213177,5.963955,-7.644367,-3.601284,-1.4964782,9.48794,-1.9773557,1,1683900642.0253167
-0.96265805,0.64441085,-0.24213177,5.963955,-7.644367,-3.601284,-1.9118812,9.331426,-2.3322947,1,1683900642.0355241
-1.1552291,0.6214655,-0.39345276,5.963955,-7.644367,-3.601284,-1.9118812,9.331426,-2.3322947,1,1683900642.0406597
-1.1552291,0.6214655,-0.39345276,4.3405533,-5.1089287,-2.5657463,-1.9118812,9.331426,-2.3322947,1,1683900642.0457902
-1.2526065,0.4486702,-1.0709547,4.3405533,-5.1089287,-2.5657463,-1.9118812,9.331426,-2.3322947,1,1683900642.0713484
-1.2526065,0.4486702,-1.0709547,-1.0092354,3.5580254,1.1508942,-1.9118812,9.331426,-2.3322947,1,1683900642.0867462
-1.2526065,0.4486702,-1.0709547,-1.0092354,3.5580254,1.1508942,-1.8772299,9.297207,-2.4916537,1,1683900642.1021357
-1.0861504,0.51847684,-1.1961607,-1.0092354,3.5580254,1.1508942,-1.8772299,9.297207,-2.4916537,1,1683900642.1123564
-1.0861504,0.51847684,-1.1961607,-2.3174095,5.216675,1.8242073,-1.8772299,9.297207,-2.4916537,1,1683900642.117479
-1.0861504,0.51847684,-1.1961607,-2.3174095,5.216675,1.8242073,-1.2643507,9.502344,-2.068154,1,1683900642.143163
-0.6253782,0.5785169,-0.9272012,-2.3174095,5.216675,1.8242073,-1.2643507,9.502344,-2.068154,1,1683900642.1482675
-0.6253782,0.5785169,-0.9272012,-6.4953423,8.103523,3.5616302,-1.2643507,9.502344,-2.068154,1,1683900642.1738732
-0.6253782,0.5785169,-0.9272012,-6.4953423,8.103523,3.5616302,-0.5588544,9.709,-1.2622976,1,1683900642.1790051
-0.6253782,0.5785169,-0.9272012,-6.4953423,8.103523,3.5616302,-0.34515476,9.755809,-0.9356632,1,1683900642.2045813
0.14364725,0.7745002,-0.1523219,-6.4953423,8.103523,3.5616302,-0.34515476,9.755809,-0.9356632,1,1683900642.2097185
0.14364725,0.7745002,-0.1523219,-7.156906,8.4347725,3.4167671,-0.34515476,9.755809,-0.9356632,1,1683900642.2148116
0.3039917,0.887498,0.24524069,-7.156906,8.4347725,3.4167671,-0.34515476,9.755809,-0.9356632,1,1683900642.21994
0.3039917,0.887498,0.24524069,-7.180271,8.1290245,2.5027275,-0.34515476,9.755809,-0.9356632,1,1683900642.2250688
0.3039917,0.887498,0.24524069,-7.180271,8.1290245,2.5027275,0.13565004,9.804922,0.12443066,1,1683900642.2455187
0.35963377,0.9751089,0.6569678,-7.180271,8.1290245,2.5027275,0.13565004,9.804922,0.12443066,1,1683900642.3017979
0.35963377,0.9751089,0.6569678,-7.180271,8.1290245,2.5027275,0.34443766,9.7415285,1.0744203,1,1683900642.3068972
0.35963377,0.9751089,0.6569678,-5.4875755,5.4595375,1.37146,0.34443766,9.7415285,1.0744203,1,1683900642.3171182
0.35963377,0.9751089,0.6569678,-3.1897926,2.1167374,0.588398,0.34443766,9.7415285,1.0744203,1,1683900642.3273413
0.35963377,0.9751089,0.6569678,-3.1897926,2.1167374,0.588398,0.3943062,9.687173,1.4743108,1,1683900642.3478503
0.35963377,0.9751089,0.6569678,-3.1897926,2.1167374,0.588398,0.2533366,9.688346,1.4973822,1,1683900642.352979
0.35963377,0.9751089,0.6569678,-0.9101677,-1.7044449,-0.6952095,0.2533366,9.688346,1.4973822,1,1683900642.35811
0.994915,1.3748705,2.0239372,-0.9101677,-1.7044449,-0.6952095,0.2533366,9.688346,1.4973822,1,1683900642.3631992
0.994915,1.3748705,2.0239372,1.0446167,-3.4514809,-1.2480927,0.2533366,9.688346,1.4973822,1,1683900642.3837159
0.994915,1.3748705,2.0239372,1.0446167,-3.4514809,-1.2480927,-0.06903543,9.785892,0.6339952,1,1683900642.4145083
0.5924691,1.1635246,1.3264169,1.0446167,-3.4514809,-1.2480927,-0.06903543,9.785892,0.6339952,1,1683900642.4247751
0.5924691,1.1635246,1.3264169,6.9291306,-6.6866684,-3.623581,-0.06903543,9.785892,0.6339952,1,1683900642.4350293
-0.042326804,0.8450196,0.3911931,6.9291306,-6.6866684,-3.623581,-0.06903543,9.785892,0.6339952,1,1683900642.4401667
-0.042326804,0.8450196,0.3911931,5.433502,-6.060219,-2.7054024,-0.06903543,9.785892,0.6339952,1,1683900642.455554
-0.042326804,0.8450196,0.3911931,5.433502,-6.060219,-2.7054024,-0.3892046,9.798923,-0.004882359,1,1683900642.4657772
-0.042326804,0.8450196,0.3911931,6.905632,-6.6781235,-3.7141037,-0.3892046,9.798923,-0.004882359,1,1683900642.4811249
-0.25954172,0.7264105,0.13591288,6.905632,-6.6781235,-3.7141037,-0.3892046,9.798923,-0.004882359,1,1683900642.48626
-0.25954172,0.7264105,0.13591288,6.905632,-6.6781235,-3.7141037,-0.57947505,9.784109,-0.325265,1,1683900642.5016725
-0.761564,0.45698088,-0.16086006,6.905632,-6.6781235,-3.7141037,-0.57947505,9.784109,-0.325265,1,1683900642.5170565
-0.761564,0.45698088,-0.16086006,6.017227,-6.011219,-3.3625603,-0.57947505,9.784109,-0.325265,1,1683900642.5221884
-0.761564,0.45698088,-0.16086006,6.017227,-6.011219,-3.3625603,-1.1871188,9.663679,-1.1723654,1,1683900642.5375392
-0.90457433,0.42207,-0.22651134,6.017227,-6.011219,-3.3625603,-1.1871188,9.663679,-1.1723654,1,1683900642.5529146
-0.90457433,0.42207,-0.22651134,6.017227,-6.011219,-3.3625603,-1.3812267,9.60598,-1.4098791,1,1683900642.5631938
-0.90457433,0.42207,-0.22651134,5.660343,-5.5958557,-3.0877876,-1.3812267,9.60598,-1.4098791,1,1683900642.568325
-0.90457433,0.42207,-0.22651134,4.350033,-4.0149117,-1.8009758,-1.3812267,9.60598,-1.4098791,1,1683900642.599033
-0.90457433,0.42207,-0.22651134,4.350033,-4.0149117,-1.8009758,-2.034836,9.320288,-2.2720177,1,1683900642.6041572
-0.90457433,0.42207,-0.22651134,4.350033,-4.0149117,-1.8009758,-1.8591661,9.419268,-1.9978153,1,1683900642.6092918
-1.1889116,0.49871624,-0.50620794,4.350033,-4.0149117,-1.8009758,-1.8591661,9.419268,-1.9978153,1,1683900642.614424
-1.1889116,0.49871624,-0.50620794,2.8054047,-2.4032593,-0.4235077,-1.8591661,9.419268,-1.9978153,1,1683900642.6246836
-1.2089149,0.5467908,-0.79956865,2.8054047,-2.4032593,-0.4235077,-1.8591661,9.419268,-1.9978153,1,1683900642.6450965
-1.2089149,0.5467908,-0.79956865,2.8054047,-2.4032593,-0.4235077,-2.1360598,9.15993,-2.7754855,1,1683900642.6553104
-1.2089149,0.5467908,-0.79956865,0.63339233,0.47304153,0.83553314,-2.1360598,9.15993,-2.7754855,1,1683900642.6655319
-1.091519,0.5931667,-0.998949,0.63339233,0.47304153,0.83553314,-2.1360598,9.15993,-2.7754855,1,1683900642.6758077
-1.091519,0.5931667,-0.998949,0.63339233,0.47304153,0.83553314,-2.1177907,9.127064,-2.8951774,1,1683900642.6809688
-1.091519,0.5931667,-0.998949,0.63339233,0.47304153,0.83553314,-2.0338278,9.144691,-2.8997502,1,1683900642.711766
-0.97022563,0.5995059,-1.0380001,0.63339233,0.47304153,0.83553314,-2.0338278,9.144691,-2.8997502,1,1683900642.7169023
-0.97022563,0.5995059,-1.0380001,-0.533123,1.9334221,1.4258003,-2.0338278,9.144691,-2.8997502,1,1683900642.722036
-0.82061833,0.614641,-1.047524,-0.533123,1.9334221,1.4258003,-2.0338278,9.144691,-2.8997502,1,1683900642.768327
-0.021095159,0.7959745,-0.43884298,-0.533123,1.9334221,1.4258003,-2.0338278,9.144691,-2.8997502,1,1683900642.819804
-0.021095159,0.7959745,-0.43884298,-0.533123,1.9334221,1.4258003,-0.5947027,9.639907,-1.6996812,1,1683900642.8249261
-0.021095159,0.7959745,-0.43884298,-6.434593,8.322887,3.1674957,-0.5947027,9.639907,-1.6996812,1,1683900642.8403563
0.059205964,0.8955509,0.19789413,-7.6107216,9.47979,2.692318,-0.010591401,9.7856455,-0.64142686,1,1683900642.881495
0.43652266,1.0849372,0.6386631,-7.6107216,9.47979,2.692318,-0.010591401,9.7856455,-0.64142686,1,1683900642.8918087
0.43652266,1.0849372,0.6386631,-7.6107216,9.47979,2.692318,0.67043334,9.761799,0.6543607,1,1683900642.9020944
0.43652266,1.0849372,0.6386631,-5.991459,6.4151,1.3458252,0.67043334,9.761799,0.6543607,1,1683900642.9174953
0.71644676,1.2047595,1.3642547,-5.991459,6.4151,1.3458252,0.67043334,9.761799,0.6543607,1,1683900642.9277573
0.71644676,1.2047595,1.3642547,-1.2914848,-0.6849289,-0.14766693,0.67043334,9.761799,0.6543607,1,1683900642.938058
0.71644676,1.2047595,1.3642547,-1.2914848,-0.6849289,-0.14766693,0.718715,9.711809,1.1552402,1,1683900642.943161
0.7315819,1.2040316,1.5717031,-1.2914848,-0.6849289,-0.14766693,0.718715,9.711809,1.1552402,1,1683900642.96384
0.7315819,1.2040316,1.5717031,0.74207306,-3.2043457,-0.65689087,0.718715,9.711809,1.1552402,1,1683900642.968969
0.7315819,1.2040316,1.5717031,0.74207306,-3.2043457,-0.65689087,0.7127729,9.715783,1.125127,1,1683900642.9842885
0.7315819,1.2040316,1.5717031,6.0544777,-8.29525,-1.9021797,0.7127729,9.715783,1.125127,1,1683900642.9996934
0.7315819,1.2040316,1.5717031,6.0544777,-8.29525,-1.9021797,0.58752126,9.77843,0.45554218,1,1683900643.0151634
0.35085297,1.0219702,1.2876236,6.0544777,-8.29525,-1.9021797,0.58752126,9.77843,0.45554218,1,1683900643.0203214
0.16854896,0.9543626,0.821225,6.0544777,-8.29525,-1.9021797,0.37446222,9.794887,-0.3005924,1,1683900643.030668
0.16854896,0.9543626,0.821225,8.338509,-9.628925,-2.649994,0.37446222,9.794887,-0.3005924,1,1683900643.0358703
-0.11992848,0.8357535,0.2149856,8.338509,-9.628925,-2.649994,0.22014132,9.777985,-0.71621245,1,1683900643.0410473
-0.11992848,0.8357535,0.2149856,7.998581,-9.1622925,-2.905674,0.22014132,9.777985,-0.71621245,1,1683900643.0564854
-0.380092,0.63904226,-0.19332932,7.998581,-9.1622925,-2.905674,0.22014132,9.777985,-0.71621245,1,1683900643.077068
-0.380092,0.63904226,-0.19332932,7.998581,-9.1622925,-2.905674,-0.39324677,9.61154,-1.9063171,1,1683900643.0874915
-0.4977305,0.5453197,-0.26360607,7.998581,-9.1622925,-2.905674,-0.6237606,9.525866,-2.2448137,1,1683900643.0926523
0.008189349,0.8640674,0.008750472,7.585354,-9.31036,-3.429718,0.41267726,9.778663,-0.6146943,1,1683900643.0978172
-0.64441085,0.53141296,-0.2511704,7.585354,-9.31036,-3.429718,0.41267726,9.778663,-0.6146943,1,1683900643.1132154
-0.64441085,0.53141296,-0.2511704,6.8480873,-8.844929,-3.4596252,0.41267726,9.778663,-0.6146943,1,1683900643.1234765
-0.64441085,0.53141296,-0.2511704,6.8480873,-8.844929,-3.4596252,-0.27461353,9.658905,-1.673481,1,1683900643.1286163
-1.0192859,0.43086594,-0.3456209,6.8480873,-8.844929,-3.4596252,-0.27461353,9.658905,-1.673481,1,1683900643.1337411
-1.0192859,0.43086594,-0.3456209,6.8480873,-8.844929,-3.4596252,-0.73918915,9.520569,-2.2322085,1,1683900643.1491206
-1.0192859,0.43086594,-0.3456209,5.9596825,-7.6591873,-2.7831078,-0.73918915,9.520569,-2.2322085,1,1683900643.1542985
-1.1264299,0.4508692,-0.43176073,5.9596825,-7.6591873,-2.7831078,-0.73918915,9.520569,-2.2322085,1,1683900643.169742
-1.1264299,0.4508692,-0.43176073,5.9596825,-7.6591873,-2.7831078,-0.9379045,9.446127,-2.4619906,1,1683900643.1902707
-1.1264299,0.4508692,-0.43176073,5.3652763,-6.776123,-2.233429,-0.9379045,9.446127,-2.4619906,1,1683900643.1953983
-1.1264299,0.4508692,-0.43176073,2.6275635,-2.6865768,-0.16675949,-0.9379045,9.446127,-2.4619906,1,1683900643.2005901
-1.1090958,0.5990206,-0.7976123,2.6275635,-2.6865768,-0.16675949,-0.9379045,9.446127,-2.4619906,1,1683900643.221138
-1.1090958,0.5990206,-0.7976123,2.6275635,-2.6865768,-0.16675949,-1.2711707,9.274834,-2.9209552,1,1683900643.226271
-1.1090958,0.5990206,-0.7976123,2.6275635,-2.6865768,-0.16675949,-1.2681267,9.254427,-2.9862714,1,1683900643.2620995
-0.3249352,0.7745002,-1.1624782,2.6275635,-2.6865768,-0.16675949,-1.2681267,9.254427,-2.9862714,1,1683900643.2723546
-0.3249352,0.7745002,-1.1624782,-2.7851105,5.2282906,2.1554565,-1.2681267,9.254427,-2.9862714,1,1683900643.2774947
-0.3249352,0.7745002,-1.1624782,-2.7851105,5.2282906,2.1554565,-0.90378416,9.333085,-2.871772,1,1683900643.2928872
0.03406163,0.9358152,-1.0592318,-2.7851105,5.2282906,2.1554565,-0.90378416,9.333085,-2.871772,1,1683900643.3237193
0.03406163,0.9358152,-1.0592318,-5.2288246,7.9640007,2.5517273,-0.90378416,9.333085,-2.871772,1,1683900643.3288715
0.03406163,0.9358152,-1.0592318,-5.2288246,7.9640007,2.5517273,-0.4716065,9.469639,-2.5047774,1,1683900643.3392031
0.03406163,0.9358152,-1.0592318,-6.2311172,8.905678,2.5517273,-0.4716065,9.469639,-2.5047774,1,1683900643.3443863
0.03406163,0.9358152,-1.0592318,-6.070366,8.19191,2.5463867,-0.4716065,9.469639,-2.5047774,1,1683900643.3597734
0.03406163,0.9358152,-1.0592318,-6.070366,8.19191,2.5463867,-0.7650432,9.461265,-2.4636533,1,1683900643.36491
-0.11114767,0.908487,-0.6399522,-6.070366,8.19191,2.5463867,-0.7650432,9.461265,-2.4636533,1,1683900643.3751602
-0.11114767,0.908487,-0.6399522,-7.7705383,9.911175,2.5709534,-0.7650432,9.461265,-2.4636533,1,1683900643.3906066
0.0008795968,0.8843133,-0.2262687,-7.7705383,9.911175,2.5709534,-0.7650432,9.461265,-2.4636533,1,1683900643.3957314
0.0008795968,0.8843133,-0.2262687,-7.7705383,9.911175,2.5709534,-0.10904721,9.693515,-1.4813054,1,1683900643.4060287
0.0008795968,0.8843133,-0.2262687,-8.123016,10.056171,2.3397064,-0.10904721,9.693515,-1.4813054,1,1683900643.421577
0.01674267,0.8872554,0.1061279,-8.123016,10.056171,2.3397064,-0.10904721,9.693515,-1.4813054,1,1683900643.4318893
0.01674267,0.8872554,0.1061279,-8.0176735,9.791946,2.1522522,-0.10904721,9.693515,-1.4813054,1,1683900643.4525094
0.024052424,0.8850564,0.26208952,-8.0176735,9.791946,2.1522522,-0.10904721,9.693515,-1.4813054,1,1683900643.457664
0.2007604,0.94215435,0.6103644,-6.3196373,7.107506,1.2861443,0.5694582,9.754631,0.8326292,1,1683900643.4784887
0.2007604,0.94215435,0.6103644,-5.2095985,5.4084015,0.90055466,0.5694582,9.754631,0.8326292,1,1683900643.4836082
0.2007604,0.94215435,0.6103644,-5.2095985,5.4084015,0.90055466,0.5900612,9.72575,1.1099613,1,1683900643.49391
0.6564067,1.1869552,1.4279497,-5.2095985,5.4084015,0.90055466,0.5900612,9.72575,1.1099613,1,1683900643.4991605
0.6564067,1.1869552,1.4279497,-5.2095985,5.4084015,0.90055466,0.6000524,9.679369,1.456078,1,1683900643.5094075
0.6564067,1.1869552,1.4279497,-0.24860382,-1.2538338,-0.37878036,0.6000524,9.679369,1.456078,1,1683900643.514583
0.6564067,1.1869552,1.4279497,3.5063553,-5.058861,-1.3450241,0.6000524,9.679369,1.456078,1,1683900643.5352159
0.6564067,1.1869552,1.4279497,3.5063553,-5.058861,-1.3450241,0.5627211,9.7151985,1.211876,1,1683900643.5403674
0.59442544,1.1720628,1.3869421,3.5063553,-5.058861,-1.3450241,0.5627211,9.7151985,1.211876,1,1683900643.55593
0.59442544,1.1720628,1.3869421,3.5063553,-5.058861,-1.3450241,0.7084974,9.640972,1.6492621,1,1683900643.5713804
0.70473903,1.2025757,1.7054472,3.5063553,-5.058861,-1.3450241,0.7084974,9.640972,1.6492621,1,1683900643.5816956
0.70473903,1.2025757,1.7054472,1.223526,-3.3875275,-0.64834595,0.7084974,9.640972,1.6492621,1,1683900643.586862
0.5934397,1.1493601,1.3330138,4.7314835,-6.336193,-1.5942955,0.6733835,9.701988,1.2603014,1,1683900643.597148
0.39331627,1.0207418,0.75581634,7.630081,-8.431568,-3.0653572,0.2744132,9.80184,-0.13796277,1,1683900643.6023433
0.07531168,0.89042497,0.22425169,7.630081,-8.431568,-3.0653572,0.2744132,9.80184,-0.13796277,1,1683900643.607487
0.07531168,0.89042497,0.22425169,7.630081,-8.431568,-3.0653572,-0.10006973,9.765066,-0.89658123,1,1683900643.6485999
-0.2592839,0.6968833,-0.2047944,7.630081,-8.431568,-3.0653572,-0.10006973,9.765066,-0.89658123,1,1683900643.6537788
-0.2592839,0.6968833,-0.2047944,7.6129913,-8.738384,-3.37965,-0.10006973,9.765066,-0.89658123,1,1683900643.6589308
-0.2592839,0.6968833,-0.2047944,7.6129913,-8.738384,-3.37965,-0.54289186,9.664326,-1.5736793,1,1683900643.684712
-0.2592839,0.6968833,-0.2047944,7.067585,-8.746929,-3.2827187,-0.54289186,9.664326,-1.5736793,1,1683900643.6900685
-0.53409725,0.56533813,-0.24530135,7.067585,-8.746929,-3.2827187,-0.54289186,9.664326,-1.5736793,1,1683900643.695348
-0.53409725,0.56533813,-0.24530135,6.423111,-8.137569,-2.8481293,-0.54289186,9.664326,-1.5736793,1,1683900643.7160084
-0.75595284,0.5419075,-0.15841842,6.423111,-8.137569,-2.8481293,-0.54289186,9.664326,-1.5736793,1,1683900643.726444
-0.75595284,0.5419075,-0.15841842,6.423111,-8.137569,-2.8481293,-0.9986398,9.517706,-2.1415827,1,1683900643.7316093
-0.75595284,0.5419075,-0.15841842,6.423111,-8.137569,-2.8481293,-1.213217,9.433551,-2.3888514,1,1683900643.7471128
-0.75595284,0.5419075,-0.15841842,6.0875893,-7.5569153,-2.5146103,-1.213217,9.433551,-2.3888514,1,1683900643.7522628
-0.8640674,0.5548436,-0.18039317,6.0875893,-7.5569153,-2.5146103,-1.213217,9.433551,-2.3888514,1,1683900643.7575278
0.6261516,1.1366818,1.8823828,6.0875893,-7.5569153,-2.5146103,-1.213217,9.433551,-2.3888514,1,1683900643.7731144
0.6261516,1.1366818,1.8823828,1.6475677,-4.331341,-0.73352814,-1.213217,9.433551,-2.3888514,1,1683900643.778298
0.6261516,1.1366818,1.8823828,1.6475677,-4.331341,-0.73352814,0.9174339,9.630866,1.6047205,1,1683900643.7834384
0.46336555,1.0424739,1.1026201,6.00441,-7.4920273,-1.9766808,0.82820994,9.733395,0.8634245,1,1683900643.8096333
-0.4691739,0.5692356,-0.3612413,6.679859,-8.10339,-3.0558777,0.12090342,9.7543955,-1.0037721,1,1683900643.8150253
-0.4691739,0.5692356,-0.3612413,6.679859,-8.10339,-3.0558777,-0.29929447,9.658868,-1.6694609,1,1683900643.8201714
-0.6580749,0.5504456,-0.33682492,5.8158875,-7.4067116,-2.651062,-0.7266912,9.5258665,-2.213634,1,1683900643.8305757
-0.72471195,0.568993,-0.35367376,5.8158875,-7.4067116,-2.651062,-0.7266912,9.5258665,-2.213634,1,1683900643.846075
-0.72471195,0.568993,-0.35367376,5.8158875,-7.4067116,-2.651062,-0.9242366,9.452856,-2.4412482,1,1683900643.8511949
-0.70297986,0.51676315,-0.29264793,5.8158875,-7.4067116,-2.651062,-0.9242366,9.452856,-2.4412482,1,1683900643.8616793
-0.70297986,0.51676315,-0.29264793,5.8158875,-7.4067116,-2.651062,-0.9325871,9.469139,-2.3740423,1,1683900643.8668385
-0.70297986,0.51676315,-0.29264793,6.074772,-7.459984,-2.938652,-0.9325871,9.469139,-2.3740423,1,1683900643.882415
-0.7835236,0.5258018,-0.34317926,6.074772,-7.459984,-2.938652,-0.9325871,9.469139,-2.3740423,1,1683900643.9030385
-0.7835236,0.5258018,-0.34317926,6.074772,-7.459984,-2.938652,-1.1502212,9.383191,-2.6082747,1,1683900643.9186993
-0.7835236,0.5258018,-0.34317926,5.6795692,-6.885872,-2.609539,-1.1502212,9.383191,-2.6082747,1,1683900643.9239008
-0.7835236,0.5258018,-0.34317926,5.6795692,-6.885872,-2.609539,-1.6509758,9.139601,-3.1483908,1,1683900643.9399548
-0.7835236,0.5258018,-0.34317926,3.9868736,-4.340954,-1.3428879,-1.6509758,9.139601,-3.1483908,1,1683900643.9451654
-0.7835236,0.5258018,-0.34317926,3.9868736,-4.340954,-1.3428879,-1.8085651,9.03166,-3.3657951,1,1683900643.9555876
-0.8408794,0.59754956,-0.61872053,2.3186111,-1.908989,-0.40334702,-1.8085651,9.03166,-3.3657951,1,1683900643.9608924
-0.82794327,0.68321925,-0.8110338,2.3186111,-1.908989,-0.40334702,-1.8085651,9.03166,-3.3657951,1,1683900643.9712076
-0.7552097,0.72202766,-1.0253217,0.20307541,1.102562,0.60014725,-1.8085651,9.03166,-3.3657951,1,1683900643.9919884
-0.35300648,0.81060916,-0.8578951,-3.4721756,5.6266975,1.8603897,-0.81091726,9.373921,-2.7644908,1,1683900644.019194
-0.35300648,0.81060916,-0.8578951,-4.456444,6.7292595,2.177887,-0.81091726,9.373921,-2.7644908,1,1683900644.0295715
-0.082105815,0.80866796,-0.25042728,-7.390156,9.291267,2.7243614,0.24992055,9.71859,-1.2872229,1,1683900644.0453176
0.0057477104,0.8784594,0.025841948,-7.390156,9.291267,2.7243614,0.24992055,9.71859,-1.2872229,1,1683900644.0506008
0.0057477104,0.8784594,0.025841948,-7.390156,9.291267,2.7243614,0.58848774,9.775763,-0.5084586,1,1683900644.0610614
0.0057477104,0.8784594,0.025841948,-7.5840187,9.095268,2.5847054,0.58848774,9.775763,-0.5084586,1,1683900644.0714712
0.28934187,0.9936563,0.34336123,-7.5840187,9.095268,2.5847054,0.58848774,9.775763,-0.5084586,1,1683900644.0819926
0.28934187,0.9936563,0.34336123,-7.5840187,9.095268,2.5847054,0.904009,9.744579,0.6295375,1,1683900644.0923564
0.28934187,0.9936563,0.34336123,-6.6827965,7.3737335,1.8922997,0.904009,9.744579,0.6295375,1,1683900644.097545
0.87582064,1.198663,0.7658255,-6.6827965,7.3737335,1.8922997,0.904009,9.744579,0.6295375,1,1683900644.1337142
0.87582064,1.198663,0.7658255,-3.7565613,2.5012589,0.35087585,0.992118,9.652047,1.422702,1,1683900644.1389494
0.87582064,1.198663,0.7658255,3.7759209,-6.581192,-2.1142006,0.8853753,9.684034,1.2672659,1,1683900644.1443882
1.0115212,1.3160589,1.5170316,3.7759209,-6.581192,-2.1142006,0.8853753,9.684034,1.2672659,1,1683900644.144403
0.72766924,1.2511355,1.7830489,3.7759209,-6.581192,-2.1142006,0.8853753,9.684034,1.2672659,1,1683900644.1548045
0.72766924,1.2511355,1.7830489,3.7759209,-6.581192,-2.1142006,0.5832758,9.785376,0.2767441,1,1683900644.1706808
0.28934187,0.9919426,1.067239,3.7759209,-6.581192,-2.1142006,0.5832758,9.785376,0.2767441,1,1683900644.1758413
0.28934187,0.9919426,1.067239,7.4201965,-8.481636,-3.0952644,0.5832758,9.785376,0.2767441,1,1683900644.196706
0.28934187,0.9919426,1.067239,-2.058525,3.1489372,1.8071175,0.5832758,9.785376,0.2767441,1,1683900644.2381706
-0.7591224,0.60560244,-0.93721044,-2.058525,3.1489372,1.8071175,0.5832758,9.785376,0.2767441,1,1683900644.243367
-0.7591224,0.60560244,-0.93721044,-2.058525,3.1489372,1.8071175,-1.3380182,9.196647,-3.1307817,1,1683900644.2485864
-0.7591224,0.60560244,-0.93721044,-4.0047646,5.3198814,2.5964546,-1.3380182,9.196647,-3.1307817,1,1683900644.2695603
-0.3891306,0.66271555,-0.6650814,-4.0047646,5.3198814,2.5964546,-1.3380182,9.196647,-3.1307817,1,1683900644.2748554
-0.3891306,0.66271555,-0.6650814,-4.0047646,5.3198814,2.5964546,-0.76414275,9.403233,-2.6768808,1,1683900644.2854812
-0.25734273,0.67833596,-0.32144713,-4.8953056,6.3201714,2.8819084,-0.76414275,9.403233,-2.6768808,1,1683900644.2911065
-0.25734273,0.67833596,-0.32144713,-4.8953056,6.3201714,2.8819084,0.1937015,9.696046,-1.4558715,1,1683900644.3065243
-0.25734273,0.67833596,-0.32144713,-7.036476,8.678703,3.3485413,0.1937015,9.696046,-1.4558715,1,1683900644.3117118
-0.25734273,0.67833596,-0.32144713,-8.242378,9.854832,3.5327911,0.1937015,9.696046,-1.4558715,1,1683900644.3223343
-0.25734273,0.67833596,-0.32144713,-8.242378,9.854832,3.5327911,0.41913235,9.740809,-1.0541975,1,1683900644.3275516
-0.3293332,0.6231792,0.09589122,-8.242378,9.854832,3.5327911,0.41913235,9.740809,-1.0541975,1,1683900644.33275
-0.3293332,0.6231792,0.09589122,-8.435173,10.011444,3.5733795,0.41913235,9.740809,-1.0541975,1,1683900644.348337
-0.3293332,0.6231792,0.09589122,-8.435173,10.011444,3.5733795,0.81752604,9.770956,-0.17454791,1,1683900644.353858
-0.33617282,0.60023385,0.2552499,-8.505535,10.033741,3.591404,0.81752604,9.770956,-0.17454791,1,1683900644.359345
-0.3537344,0.51139456,0.7399532,-8.380833,9.9271965,3.5723114,1.2464368,9.648044,1.2377515,1,1683900644.3698707
-0.26026967,0.48552227,1.1162843,-8.380833,9.9271965,3.5723114,1.2464368,9.648044,1.2377515,1,1683900644.3751178
-0.26026967,0.48552227,1.1162843,-8.380833,9.9271965,3.5723114,1.4581636,9.350835,2.570218,1,1683900644.4009314
-0.26026967,0.48552227,1.1162843,-7.4061775,9.089928,3.4210396,1.4581636,9.350835,2.570218,1,1683900644.406146
-0.26026967,0.48552227,1.1162843,-7.4061775,9.089928,3.4210396,1.5115564,8.978723,3.6425447,1,1683900644.4217372
-0.26026967,0.48552227,1.1162843,-5.6101418,7.3525047,3.0800438,1.5115564,8.978723,3.6425447,1,1683900644.4320831
-0.19875856,0.49968684,1.1297057,-5.6101418,7.3525047,3.0800438,1.5115564,8.978723,3.6425447,1,1683900644.4372485
-0.19875856,0.49968684,1.1297057,-4.9017143,6.651554,2.988453,1.5115564,8.978723,3.6425447,1,1683900644.4631479
-0.14360176,0.5070118,1.0867571,-4.9017143,6.651554,2.988453,1.5115564,8.978723,3.6425447,1,1683900644.4683223
0.07359799,0.6178106,0.7055428,-4.9017143,6.651554,2.988453,1.5157533,8.859922,3.921053,1,1683900644.4735584
0.07359799,0.6178106,0.7055428,-4.9017143,6.651554,2.988453,1.5284094,8.649965,4.3603272,1,1683900644.4787738
0.07359799,0.6178106,0.7055428,-3.5723114,5.3401756,2.8329086,1.5284094,8.649965,4.3603272,1,1683900644.4839418
0.07359799,0.6178106,0.7055428,-3.5723114,5.3401756,2.8329086,1.5403908,8.560134,4.530088,1,1683900644.5097368
0.07359799,0.6178106,0.7055428,-3.0322456,4.7447014,2.7487946,1.5403908,8.560134,4.530088,1,1683900644.5201163
0.2808037,0.7576513,0.4751491,-3.0322456,4.7447014,2.7487946,1.5403908,8.560134,4.530088,1,1683900644.5304637
0.2808037,0.7576513,0.4751491,-3.0322456,4.7447014,2.7487946,1.6187886,8.268724,5.0177803,1,1683900644.535598
0.44189125,0.8093959,0.4773481,-3.0322456,4.7447014,2.7487946,1.6187886,8.268724,5.0177803,1,1683900644.5459301
0.44189125,0.8093959,0.4773481,-2.0638657,3.2970047,2.395115,1.6187886,8.268724,5.0177803,1,1683900644.5511312
0.44189125,0.8093959,0.4773481,-2.0638657,3.2970047,2.395115,1.6452932,8.139376,5.2166996,1,1683900644.5615823
0.44189125,0.8093959,0.4773481,-1.8848228,2.832508,2.0692062,1.6452932,8.139376,5.2166996,1,1683900644.5668037
0.38819033,0.797673,0.7145663,-2.0850945,3.0881882,1.2775993,1.5831238,7.870758,5.631633,1,1683900644.5771961
0.2498055,0.7603356,0.7543453,-2.0850945,3.0881882,1.2775993,1.4168816,7.6506424,5.969129,1,1683900644.5979433
0.2498055,0.7603356,0.7543453,-2.2449112,3.6943436,1.1157799,1.4168816,7.6506424,5.969129,1,1683900644.6031773
0.2498055,0.7603356,0.7543453,-2.4622726,4.2131805,0.9878731,1.4168816,7.6506424,5.969129,1,1683900644.618673
0.2498055,0.7603356,0.7543453,-2.4622726,4.2131805,0.9878731,1.1621485,7.409044,6.3186913,1,1683900644.6239157
0.114362754,0.72788155,0.73531264,-2.4622726,4.2131805,0.9878731,1.1621485,7.409044,6.3186913,1,1683900644.6290743
0.114362754,0.72788155,0.73531264,-2.5134087,4.2962265,1.0081673,1.1621485,7.409044,6.3186913,1,1683900644.6548908
0.114362754,0.72788155,0.73531264,-2.5134087,4.2962265,1.0081673,1.0623581,7.322591,6.4359493,1,1683900644.6600266
0.12217297,0.7000529,0.7135957,-2.5134087,4.2962265,1.0081673,1.0623581,7.322591,6.4359493,1,1683900644.6651945
0.12217297,0.7000529,0.7135957,-2.5134087,4.2962265,1.0081673,0.7123695,7.036926,6.792981,1,1683900644.6910686
0.24346633,0.64075595,0.31309098,-3.0098152,4.819336,0.9900093,0.7123695,7.036926,6.792981,1,1683900644.701508
0.12362885,0.71397483,0.78754246,-3.0098152,4.819336,0.9900093,0.7123695,7.036926,6.792981,1,1683900644.7220914
0.12362885,0.71397483,0.78754246,-3.4561539,4.089546,0.70028305,0.7123695,7.036926,6.792981,1,1683900644.7272563
0.12362885,0.71397483,0.78754246,-3.4561539,4.089546,0.70028305,0.34296882,6.678755,7.172656,1,1683900644.7324717
0.18245567,0.6807776,1.0201352,-3.4561539,4.089546,0.70028305,0.34296882,6.678755,7.172656,1,1683900644.7479672
0.18245567,0.6807776,1.0201352,-3.1685638,3.3853912,0.57250977,0.34296882,6.678755,7.172656,1,1683900644.758284
0.18245567,0.6807776,1.0201352,-3.1685638,3.3853912,0.57250977,0.011788088,6.3120704,7.5051985,1,1683900644.773811
0.23101549,0.6405133,1.0518613,-3.1685638,3.3853912,0.57250977,0.011788088,6.3120704,7.5051985,1,1683900644.784267
0.23101549,0.6405133,1.0518613,-2.9959297,3.0391884,0.48719406,0.011788088,6.3120704,7.5051985,1,1683900644.799733
0.23101549,0.6405133,1.0518613,-2.0308876,1.2730598,0.24646759,0.011788088,6.3120704,7.5051985,1,1683900644.810046
0.23101549,0.6405133,1.0518613,-2.0308876,1.2730598,0.24646759,-0.25598443,5.9124675,7.819692,1,1683900644.8255284
0.19734816,0.61805326,1.439172,-2.0308876,1.2730598,0.24646759,-0.25598443,5.9124675,7.819692,1,1683900644.830693
0.19734816,0.61805326,1.439172,-2.0308876,1.2730598,0.24646759,-0.39722326,5.727884,7.9500914,1,1683900644.8669674
0.19734816,0.61805326,1.439172,-0.72057724,0.96838,0.070762634,-0.39722326,5.727884,7.9500914,1,1683900644.8720949
0.05822021,0.5941373,1.1609465,-0.72057724,0.96838,0.070762634,-0.39722326,5.727884,7.9500914,1,1683900644.8772569
0.012344686,0.5177489,1.0999358,-0.72057724,0.96838,0.070762634,-0.39722326,5.727884,7.9500914,1,1683900644.9083111
0.012344686,0.5177489,1.0999358,-0.6054878,0.87358475,0.060081482,-0.39722326,5.727884,7.9500914,1,1683900644.918639
0.012344686,0.5177489,1.0999358,-0.6054878,0.87358475,0.060081482,-0.42914045,5.701777,7.9671807,1,1683900644.9340584
0.012344686,0.5177489,1.0999358,-0.45955658,0.79574585,0.060081482,-0.42914045,5.701777,7.9671807,1,1683900644.959879
0.012344686,0.5177489,1.0999358,-0.45955658,0.79574585,0.060081482,-0.48913035,5.658707,7.994384,1,1683900644.9650412
-0.02767697,0.5187195,1.0782189,-0.45955658,0.79574585,0.060081482,-0.48913035,5.658707,7.994384,1,1683900644.9702055
-0.02767697,0.5187195,1.0782189,-0.2901268,0.61790466,0.15274048,-0.48913035,5.658707,7.994384,1,1683900644.985703
-0.02767697,0.5187195,1.0782189,-0.2901268,0.61790466,0.15274048,-0.5630004,5.6153283,8.020068,1,1683900644.99604
-0.02767697,0.5187195,1.0782189,-0.24019241,0.08518219,0.027103424,-0.5630004,5.6153283,8.020068,1,1683900645.0167365
0.036017973,0.61976695,0.97961307,-0.24019241,0.08518219,0.027103424,-0.58259904,5.5247574,8.081339,1,1683900645.0219772
0.026494063,0.62245125,1.026717,-0.16448975,0.060749054,-0.038986206,-0.586687,5.50846,8.092159,1,1683900645.0271826
0.028935703,0.6160969,1.0464927,-0.16448975,0.060749054,-0.038986206,-0.5897202,5.503286,8.095459,1,1683900645.0323753
0.028935703,0.6160969,1.0464927,-0.10374069,0.05754471,-0.07089615,-0.5897202,5.503286,8.095459,1,1683900645.0529692
0.023809776,0.5887687,1.0586858,-0.10374069,0.05754471,-0.07089615,-0.5897202,5.503286,8.095459,1,1683900645.0580962
0.023809776,0.5887687,1.0586858,-0.10374069,0.05754471,-0.07089615,-0.6084313,5.5039945,8.093593,1,1683900645.078683
0.023809776,0.5887687,1.0586858,0.11148453,0.13845444,-0.15407562,-0.6084313,5.5039945,8.093593,1,1683900645.078696
0.023809776,0.5887687,1.0586858,0.11148453,0.13845444,-0.15407562,-0.6203627,5.50938,8.089022,1,1683900645.1046593
0.023809776,0.5887687,1.0586858,0.25100708,0.42938232,-0.12630463,-0.6203627,5.50938,8.089022,1,1683900645.1149817
-0.049151264,0.5067691,0.9112775,0.25100708,0.42938232,-0.12630463,-0.67442,5.5335956,8.068139,1,1683900645.1254008
-0.049151264,0.5067691,0.9112775,0.19773483,0.5124283,-0.03364563,-0.67442,5.5335956,8.068139,1,1683900645.1771464
-0.049151264,0.5067691,0.9112775,0.19773483,0.5124283,-0.03364563,-0.74027973,5.5575852,8.045845,1,1683900645.1874619
-0.049151264,0.5067691,0.9112775,0.19773483,0.5124283,-0.03364563,-0.88433975,5.8091726,7.851232,1,1683900645.213197
-0.0969983,0.5838855,0.76875246,0.19773483,0.5124283,-0.03364563,-0.88433975,5.8091726,7.851232,1,1683900645.2183619
-0.0969983,0.5838855,0.76875246,-0.079307556,0.27597427,0.021762848,-0.88433975,5.8091726,7.851232,1,1683900645.2286391
-0.0969983,0.5838855,0.76875246,-0.079307556,0.27597427,0.021762848,-0.90229195,5.804313,7.852783,1,1683900645.2442338
-0.0969983,0.5838855,0.76875246,-0.05794525,0.20774841,-0.006008148,-0.90229195,5.804313,7.852783,1,1683900645.2493942
-0.0969983,0.5838855,0.76875246,-0.03458023,0.1779747,-0.030441284,-0.90229195,5.804313,7.852783,1,1683900645.2545574
-0.09211502,0.5860845,0.795838,-0.03458023,0.1779747,-0.030441284,-0.90229195,5.804313,7.852783,1,1683900645.270059
-0.09211502,0.5860845,0.795838,-0.03458023,0.1779747,-0.030441284,-0.9101216,5.802811,7.85299,1,1683900645.280358
-0.09211502,0.5860845,0.795838,-0.03458023,0.1779747,-0.030441284,-0.93873245,5.805004,7.847999,1,1683900645.2906308
-0.06160211,0.5907251,0.85319376,-0.03458023,0.1779747,-0.030441284,-0.93873245,5.805004,7.847999,1,1683900645.3009012
-0.06160211,0.5907251,0.85319376,0.076236725,0.20240784,-0.12737274,-0.93873245,5.805004,7.847999,1,1683900645.3163023
-0.15556732,0.5101813,0.8373307,-0.060081482,0.038318634,-0.06034851,-1.4033636,5.1106453,8.251197,1,1683900645.3502014
-0.18168224,0.4796684,0.8656446,-0.060081482,0.038318634,-0.06034851,-1.4033636,5.1106453,8.251197,1,1683900645.3687458
-0.18168224,0.4796684,0.8656446,-0.037784576,0.0,-0.036849976,-1.4033636,5.1106453,8.251197,1,1683900645.3790574
-0.17996854,0.47772723,0.8656446,-0.037784576,0.0,-0.036849976,-1.4033636,5.1106453,8.251197,1,1683900645.4101043
-0.17996854,0.47772723,0.8656446,-0.01001358,-0.017089844,-0.01241684,-1.4033636,5.1106453,8.251197,1,1683900645.4152637
-0.17996854,0.47772723,0.8656446,-0.01001358,-0.017089844,-0.01241684,-1.4171145,5.042809,8.290492,1,1683900645.420414
-0.17996854,0.47772723,0.8656446,-0.01001358,-0.017089844,-0.01241684,-1.4178382,5.040225,8.29194,1,1683900645.4255803
-0.17558573,0.482838,0.8644162,-0.01001358,-0.017089844,-0.01241684,-1.4178382,5.040225,8.29194,1,1683900645.4358544
-0.17558573,0.482838,0.8644162,0.000667572,-0.02122879,-0.0028038025,-1.4178382,5.040225,8.29194,1,1683900645.4512985
-0.17558573,0.482838,0.8644162,0.000667572,-0.02122879,-0.0028038025,-1.4174004,5.039819,8.29226,1,1683900645.4566374
-0.17558573,0.482838,0.8644162,0.017623901,-0.008544922,0.018558502,-1.4174004,5.039819,8.29226,1,1683900645.4617712
-0.1775269,0.4823527,0.8507521,0.017623901,-0.008544922,0.018558502,-1.4174004,5.039819,8.29226,1,1683900645.4670622
-0.1775269,0.4823527,0.8507521,0.017623901,-0.008544922,0.018558502,-1.415757,5.0413055,8.291638,1,1683900645.4774256
-0.1775269,0.4823527,0.8507521,0.008144379,0.009613037,0.046195984,-1.415757,5.0413055,8.291638,1,1683900645.5034304
-0.1775269,0.4823527,0.8507521,0.008144379,0.009613037,0.046195984,-1.4144509,5.0428486,8.290923,1,1683900645.5086641
-0.17021716,0.48992026,0.83611745,0.008144379,0.009613037,0.046195984,-1.4144509,5.0428486,8.290923,1,1683900645.519034
-0.17021716,0.48992026,0.83611745,-0.0057411194,0.021362305,0.04940033,-1.4144509,5.0428486,8.290923,1,1683900645.5501642
-0.15532467,0.49871624,0.8307337,-0.0057411194,0.021362305,0.04940033,-1.4140117,5.0432043,8.290781,1,1683900645.555462
-0.15532467,0.49871624,0.8307337,-0.012149811,0.021362305,0.041923523,-1.4140117,5.0432043,8.290781,1,1683900645.5865402
-0.15116933,0.5009001,0.83488905,-0.012149811,0.021362305,0.041923523,-1.4139515,5.042927,8.29096,1,1683900645.59175
-0.13116609,0.50993866,0.842214,-0.012149811,0.021362305,0.041923523,-1.4139515,5.042927,8.29096,1,1683900645.596909
-0.13116609,0.50993866,0.842214,-0.03458023,0.02243042,-0.0028038025,-1.4152088,5.0399632,8.292548,1,1683900645.6124525
-0.13237932,0.50725436,0.84685457,-0.04512787,0.029907227,-0.020828247,-1.4168323,5.0378857,8.293533,1,1683900645.6178024
-0.16581917,0.4906482,0.85759175,-0.04512787,0.029907227,-0.020828247,-1.4277157,5.0286784,8.297254,1,1683900645.6281865
-0.18436652,0.4796684,0.8424566,-0.06542206,0.09372711,-0.04219055,-1.4382476,5.0219812,8.299491,1,1683900645.6334548
-0.18436652,0.4796684,0.8424566,-0.06542206,0.09372711,-0.04219055,-1.4435622,5.0188026,8.300489,1,1683900645.638934
-0.18436652,0.4796684,0.8424566,-0.06328583,0.09586334,-0.03364563,-1.4435622,5.0188026,8.300489,1,1683900645.6389704
-0.18436652,0.4796684,0.8424566,-0.06328583,0.09586334,-0.03364563,-1.4563372,5.0109916,8.302978,1,1683900645.659479
-0.18436652,0.4796684,0.8424566,-0.044059753,0.07036209,-0.004940033,-1.4563372,5.0109916,8.302978,1,1683900645.6697457
-0.1885067,0.47869784,0.835617,-0.044059753,0.07036209,-0.004940033,-1.4563372,5.0109916,8.302978,1,1683900645.67489
-0.17948325,0.48479435,0.83049107,-0.044059753,0.07036209,-0.004940033,-1.4563372,5.0109916,8.302978,1,1683900645.7113025
-0.17948325,0.48479435,0.83049107,-0.044059753,0.07036209,-0.004940033,-1.4603207,5.0089283,8.303523,1,1683900645.7164865
-0.17948325,0.48479435,0.83049107,0.01335144,-0.012817383,0.023899078,-1.4603207,5.0089283,8.303523,1,1683900645.7217255
-0.16898875,0.4835811,0.83049107,0.01335144,-0.012817383,0.023899078,-1.4603207,5.0089283,8.303523,1,1683900645.7432463
-0.16898875,0.4835811,0.83049107,0.045394897,-0.055408478,0.02817154,-1.4603207,5.0089283,8.303523,1,1683900645.7484086
-0.16898875,0.4835811,0.83049107,0.045394897,-0.055408478,0.02817154,-1.4557794,5.012021,8.302453,1,1683900645.7588756
-0.16606182,0.4830958,0.82952046,0.060214996,-0.067157745,0.027103424,-1.4525826,5.0145397,8.301494,1,1683900645.7642236
-0.1560526,0.49260455,0.8153711,0.060214996,-0.067157745,0.027103424,-1.4525826,5.0145397,8.301494,1,1683900645.779731
-0.1560526,0.49260455,0.8153711,0.074100494,-0.062885284,0.024967194,-1.4525826,5.0145397,8.301494,1,1683900645.7848878
-0.1560526,0.49260455,0.8153711,0.074100494,-0.062885284,0.024967194,-1.4425795,5.023962,8.29754,1,1683900645.7953281
-0.16484858,0.49480355,0.8012065,0.074100494,-0.062885284,0.024967194,-1.4425795,5.023962,8.29754,1,1683900645.8420818
-0.16484858,0.49480355,0.8012065,-0.011081696,0.0032043457,0.012149811,-1.4425795,5.023962,8.29754,1,1683900645.8524103
-0.16484858,0.49480355,0.8012065,-0.011081696,0.0032043457,0.012149811,-1.4383814,5.028544,8.295493,1,1683900645.8577623
-0.16898875,0.49748784,0.7868145,-0.011081696,0.0032043457,0.012149811,-1.4383814,5.028544,8.295493,1,1683900645.8577814
-0.16484858,0.49821576,0.78851306,-0.011081696,0.0032043457,0.012149811,-1.4383814,5.028544,8.295493,1,1683900645.8683197
-0.16484858,0.49821576,0.78851306,-0.05580902,0.012817383,0.011081696,-1.4383814,5.028544,8.295493,1,1683900645.8735147
-0.16484858,0.49821576,0.78851306,-0.05580902,0.012817383,0.011081696,-1.4407016,5.023934,8.297882,1,1683900645.878741
-0.16484858,0.49821576,0.78851306,-0.08785248,-0.017089844,0.0057411194,-1.4407016,5.023934,8.297882,1,1683900645.883944
-0.1565379,0.4967599,0.82268083,-0.08785248,-0.017089844,0.0057411194,-1.4407016,5.023934,8.297882,1,1683900645.8891046
-0.1565379,0.4967599,0.82268083,-0.08785248,-0.017089844,0.0057411194,-1.4397023,5.0145507,8.303729,1,1683900645.8994048
-0.15508202,0.4940756,0.83805865,-0.08785248,-0.017089844,0.0057411194,-1.4397023,5.0145507,8.303729,1,1683900645.909833
-0.15629525,0.49090603,0.8446556,-0.09519577,-0.013885498,0.0004005432,-1.4392507,5.010505,8.30625,1,1683900645.9202511
-0.15629525,0.49090603,0.8446556,-0.08571625,0.012817383,-0.009212494,-1.4392507,5.010505,8.30625,1,1683900645.925528
-0.15629525,0.49090603,0.8446556,-0.08571625,0.012817383,-0.009212494,-1.440434,4.9985867,8.313222,1,1683900645.9462225
-0.16117853,0.49308985,0.83928704,-0.08571625,0.012817383,-0.009212494,-1.440434,4.9985867,8.313222,1,1683900645.9618928
-0.16117853,0.49308985,0.83928704,-0.075035095,0.011749268,-0.010280609,-1.440434,4.9985867,8.313222,1,1683900645.967054
-0.16117853,0.49308985,0.83928704,-0.075035095,0.011749268,-0.010280609,-1.4424752,4.9917345,8.316984,1,1683900645.9722676
-0.16606182,0.48699334,0.83830124,-0.075035095,0.011749268,-0.010280609,-1.4424752,4.9917345,8.316984,1,1683900645.982569
-0.16606182,0.48699334,0.83830124,-0.072898865,0.0064086914,-0.0070762634,-1.4424752,4.9917345,8.316984,1,1683900645.9877274
-0.16606182,0.48699334,0.83830124,-0.08678436,0.0010681152,-0.0017356873,-1.4431814,4.9884863,8.318811,1,1683900646.008586
-0.16826081,0.48527962,0.8444129,-0.08678436,0.0010681152,-0.0017356873,-1.4431814,4.9884863,8.318811,1,1683900646.008609
-0.16826081,0.48527962,0.8444129,-0.08678436,0.0010681152,-0.0017356873,-1.4445672,4.9777365,8.325008,1,1683900646.0138147
-0.17387202,0.485037,0.8470972,-0.08678436,0.0010681152,-0.0017356873,-1.4445672,4.9777365,8.325008,1,1683900646.018983
-0.17387202,0.485037,0.8470972,-0.09305954,0.008544922,0.004673004,-1.4445672,4.9777365,8.325008,1,1683900646.0292354
-0.17387202,0.485037,0.8470972,-0.09305954,0.008544922,0.004673004,-1.4474834,4.9685593,8.329982,1,1683900646.0396712
-0.1687461,0.4879639,0.8470972,-0.09305954,0.008544922,0.004673004,-1.4474834,4.9685593,8.329982,1,1683900646.0705092
-0.1687461,0.4879639,0.8470972,-0.09305954,0.008544922,0.004673004,-1.4505161,4.959127,8.335073,1,1683900646.0756385
-0.1687461,0.4879639,0.8470972,-0.094127655,0.012817383,0.012149811,-1.4505161,4.959127,8.335073,1,1683900646.08592
-0.1687461,0.4879639,0.8470972,-0.08678436,0.0010681152,0.012149811,-1.4505161,4.959127,8.335073,1,1683900646.1013148
-0.15776631,0.4862654,0.86197454,-0.08678436,0.0010681152,0.012149811,-1.4505161,4.959127,8.335073,1,1683900646.1167367
-0.15776631,0.4862654,0.86197454,-0.08678436,0.0010681152,0.012149811,-1.4505436,4.951455,8.339628,1,1683900646.1219106
-0.15629525,0.4867507,0.8668578,-0.08678436,0.0010681152,0.012149811,-1.4505436,4.951455,8.339628,1,1683900646.1374025
-0.15629525,0.4867507,0.8668578,-0.07823944,-0.008544922,0.00787735,-1.4505436,4.951455,8.339628,1,1683900646.1477282
-0.15629525,0.4867507,0.8668578,-0.07823944,-0.008544922,0.00787735,-1.45009,4.9480095,8.341752,1,1683900646.1529422
-0.15703836,0.4818674,0.8783381,-0.07823944,-0.008544922,0.00787735,-1.45009,4.9480095,8.341752,1,1683900646.1632187
-0.15703836,0.4818674,0.8783381,-0.04512787,-0.02122879,-0.0070762634,-1.45009,4.9480095,8.341752,1,1683900646.1840312
-0.15703836,0.4818674,0.8783381,-0.04512787,-0.02122879,-0.0070762634,-1.448072,4.939845,8.346939,1,1683900646.1892657
-0.15703836,0.4818674,0.8783381,-0.04512787,-0.02122879,-0.0070762634,-1.4453801,4.934443,8.350601,1,1683900646.2509196
-0.15703836,0.4818674,0.8783381,-0.004673004,-0.028705597,-0.021896362,-1.4453801,4.934443,8.350601,1,1683900646.2560415
-0.15361097,0.4857801,0.88175035,-0.004673004,-0.028705597,-0.021896362,-1.4453801,4.934443,8.350601,1,1683900646.2663066
-0.15361097,0.4857801,0.88175035,-0.004673004,-0.028705597,-0.021896362,-1.445039,4.9339576,8.350946,1,1683900646.2766945
-0.15361097,0.4857801,0.88175035,0.008144379,-0.02122879,-0.028305054,-1.445039,4.9339576,8.350946,1,1683900646.28702
-0.16264959,0.4889497,0.87198377,0.008144379,-0.02122879,-0.028305054,-1.445039,4.9339576,8.350946,1,1683900646.2921531
-0.16581917,0.48527962,0.8639309,0.008144379,-0.02122879,-0.028305054,-1.445039,4.9339576,8.350946,1,1683900646.3127773
-0.16581917,0.48527962,0.8639309,0.0090789795,-0.016021729,-0.029373169,-1.445039,4.9339576,8.350946,1,1683900646.3179045
-0.16581917,0.48527962,0.8639309,0.0090789795,-0.016021729,-0.029373169,-1.445318,4.9338794,8.350944,1,1683900646.3281524
-0.16581917,0.48527962,0.8639309,0.0028038025,-0.0074768066,-0.024032593,-1.445318,4.9338794,8.350944,1,1683900646.3332868
-0.16581917,0.48527962,0.8639309,0.0028038025,-0.0074768066,-0.024032593,-1.447068,4.9332757,8.350999,1,1683900646.3486888
-0.17508526,0.48479435,0.8612466,0.0028038025,-0.0074768066,-0.024032593,-1.447068,4.9332757,8.350999,1,1683900646.358944
-0.17631367,0.47381455,0.8600334,0.0028038025,-0.0074768066,-0.024032593,-1.447068,4.9332757,8.350999,1,1683900646.3692145
-0.17631367,0.47381455,0.8600334,0.000667572,0.0064086914,-0.011348724,-1.447068,4.9332757,8.350999,1,1683900646.3846152
-0.17631367,0.47381455,0.8600334,0.000667572,0.0064086914,-0.011348724,-1.4487578,4.932542,8.35114,1,1683900646.389753
-0.17631367,0.47381455,0.8600334,0.0028038025,0.021362305,0.0057411194,-1.4487578,4.932542,8.35114,1,1683900646.410251
-0.17631367,0.47381455,0.8600334,0.0028038025,0.021362305,0.0057411194,-1.4511236,4.932057,8.351015,1,1683900646.425614
-0.18119694,0.4708876,0.86027604,0.0028038025,0.021362305,0.0057411194,-1.4511236,4.932057,8.351015,1,1683900646.4307497
-0.18119694,0.4708876,0.86027604,0.0070762634,0.028839111,0.021762848,-1.4511236,4.932057,8.351015,1,1683900646.4410148
-0.17387202,0.47381455,0.8519805,0.0070762634,0.028839111,0.021762848,-1.4511236,4.932057,8.351015,1,1683900646.4615116
-0.17387202,0.47381455,0.8519805,0.0070762634,0.028839111,0.021762848,-1.4532068,4.932246,8.35054,1,1683900646.466648
-0.17387202,0.47381455,0.8519805,0.010147095,0.029907227,0.02817154,-1.4532068,4.932246,8.35054,1,1683900646.476917
-0.17387202,0.47381455,0.8519805,0.010147095,0.029907227,0.02817154,-1.4540436,4.9325905,8.350191,1,1683900646.4922822
-0.16898875,0.47210085,0.8483105,0.010147095,0.029907227,0.02817154,-1.4540436,4.9325905,8.350191,1,1683900646.4974287
-0.16898875,0.47210085,0.8483105,0.021896362,0.019226074,0.026035309,-1.4540436,4.9325905,8.350191,1,1683900646.5231476
-0.15752366,0.4884644,0.8407429,0.021896362,0.019226074,0.026035309,-1.4540436,4.9325905,8.350191,1,1683900646.5283017
-0.15752366,0.4884644,0.8407429,0.021896362,0.019226074,0.026035309,-1.4553158,4.934944,8.348578,1,1683900646.5436952
-0.15191244,0.49114868,0.8141427,0.021896362,0.019226074,0.026035309,-1.4553158,4.934944,8.348578,1,1683900646.5744472
-0.15191244,0.49114868,0.8141427,-0.03030777,-0.016021729,-0.0038719177,-1.4553158,4.934944,8.348578,1,1683900646.584679
-0.14360176,0.4940756,0.83171946,-0.03030777,-0.016021729,-0.0038719177,-1.4553158,4.934944,8.348578,1,1683900646.5897772
-0.14360176,0.4940756,0.83171946,-0.03030777,-0.016021729,-0.0038719177,-1.4531101,4.9457116,8.342588,1,1683900646.600048
-0.15532467,0.49114868,0.842214,-0.03030777,-0.016021729,-0.0038719177,-1.4531101,4.9457116,8.342588,1,1683900646.6256516
-0.15532467,0.49114868,0.842214,-0.03030777,-0.016021729,-0.0038719177,-1.4530274,4.9439726,8.343635,1,1683900646.6307979
-0.15532467,0.49114868,0.842214,-0.03671646,-0.0074768066,-0.01241684,-1.4530274,4.9439726,8.343635,1,1683900646.6358936
-0.16581917,0.48211005,0.83611745,-0.03671646,-0.0074768066,-0.01241684,-1.4530274,4.9439726,8.343635,1,1683900646.6409876
-0.16581917,0.48211005,0.83611745,-0.03030777,0.014953613,-0.024032593,-1.4530274,4.9439726,8.343635,1,1683900646.6461134
-0.16581917,0.48211005,0.83611745,-0.03030777,0.014953613,-0.024032593,-1.4596025,4.937129,8.346539,1,1683900646.6562908
-0.16581917,0.48211005,0.83611745,-0.03030777,0.014953613,-0.024032593,-1.4628966,4.9349937,8.347225,1,1683900646.676743
-0.16581917,0.48211005,0.83611745,-0.026035309,0.012817383,-0.020828247,-1.4628966,4.9349937,8.347225,1,1683900646.681874
-0.17215833,0.47894046,0.83000576,-0.026035309,0.012817383,-0.020828247,-1.4628966,4.9349937,8.347225,1,1683900646.6920621
-0.17215833,0.47894046,0.83000576,-0.027103424,-0.009613037,-0.01455307,-1.4628966,4.9349937,8.347225,1,1683900646.7381804
-0.17215833,0.47894046,0.83000576,-0.020694733,-0.017089844,-0.024032593,-1.4628966,4.9349937,8.347225,1,1683900646.7432747
-0.16166383,0.4835811,0.84685457,-0.020694733,-0.017089844,-0.024032593,-1.4628966,4.9349937,8.347225,1,1683900646.7586648
-0.16166383,0.4835811,0.84685457,-0.020694733,-0.017089844,-0.024032593,-1.4708354,4.9253573,8.35152,1,1683900646.7637897
-0.16166383,0.4835811,0.84685457,-0.020694733,-0.017089844,-0.024032593,-1.4690865,4.9295244,8.349369,1,1683900646.768879
-0.16410547,0.48430905,0.83660275,-0.020694733,-0.017089844,-0.024032593,-1.4690865,4.9295244,8.349369,1,1683900646.7739792
-0.17435732,0.47649884,0.8434272,-0.020694733,-0.017089844,-0.024032593,-1.4690865,4.9295244,8.349369,1,1683900646.7995546
-0.17435732,0.47649884,0.8434272,-0.011081696,-0.014953613,-0.027236938,-1.4690865,4.9295244,8.349369,1,1683900646.8046854
-0.17435732,0.47649884,0.8434272,-0.011081696,-0.014953613,-0.027236938,-1.4747965,4.9208484,8.353479,1,1683900646.8098497
-0.17435732,0.47649884,0.8434272,-0.011081696,-0.014953613,-0.027236938,-1.4804171,4.916586,8.354995,1,1683900646.820112
-0.18876451,0.47015968,0.83585966,-0.011081696,-0.014953613,-0.027236938,-1.4804171,4.916586,8.354995,1,1683900646.8354595
-0.18876451,0.47015968,0.83585966,-0.00787735,-0.034046173,-0.004940033,-1.4804171,4.916586,8.354995,1,1683900646.855872
-0.18876451,0.47015968,0.83585966,-0.00787735,-0.034046173,-0.004940033,-1.4877774,4.8759527,8.377469,1,1683900646.861004
-0.16557652,0.4774694,0.8632029,-0.00787735,-0.034046173,-0.004940033,-1.4877774,4.8759527,8.377469,1,1683900646.8661401
-0.16557652,0.4774694,0.8632029,-0.012149811,-0.016021729,0.0014686584,-1.4877774,4.8759527,8.377469,1,1683900646.8814194
-0.16509123,0.47772723,0.8595329,-0.012149811,-0.016021729,0.0014686584,-1.4877774,4.8759527,8.377469,1,1683900646.8916795
-0.16509123,0.47772723,0.8595329,-0.012149811,-0.016021729,0.0014686584,-1.4885894,4.8720484,8.379596,1,1683900646.9019039
-0.16509123,0.47772723,0.8595329,-0.014286041,-0.004272461,0.004673004,-1.4885894,4.8720484,8.379596,1,1683900646.9121768
-0.16509123,0.48041153,0.8595329,-0.014286041,-0.004272461,0.004673004,-1.4885894,4.8720484,8.379596,1,1683900646.9173114
-0.16509123,0.48041153,0.8595329,-0.014286041,-0.004272461,0.004673004,-1.4894185,4.8702097,8.380517,1,1683900646.942948
-0.16509123,0.48041153,0.8595329,-0.024967194,0.018157959,0.012149811,-1.4894185,4.8702097,8.380517,1,1683900646.9634728
-0.16777551,0.4823527,0.8561207,-0.024967194,0.018157959,0.012149811,-1.4894185,4.8702097,8.380517,1,1683900646.9686072
-0.16777551,0.4823527,0.8561207,-0.024967194,0.018157959,0.012149811,-1.4935287,4.8646684,8.383004,1,1683900646.9737399
-0.16947405,0.47869784,0.8578344,-0.024967194,0.018157959,0.012149811,-1.4935287,4.8646684,8.383004,1,1683900647.004439
-0.16947405,0.47869784,0.8578344,-0.029239655,0.030975342,0.021762848,-1.4935287,4.8646684,8.383004,1,1683900647.009571
-0.16947405,0.47869784,0.8578344,-0.029239655,0.030975342,0.021762848,-1.4977672,4.86026,8.384806,1,1683900647.0147033
-0.16947405,0.47869784,0.8578344,-0.029239655,0.030975342,0.021762848,-1.4998349,4.8581777,8.385641,1,1683900647.019834
-0.16826081,0.47894046,0.85416436,-0.029239655,0.030975342,0.021762848,-1.4998349,4.8581777,8.385641,1,1683900647.045478
-0.16826081,0.47894046,0.85416436,-0.02817154,0.032043457,0.026035309,-1.4998349,4.8581777,8.385641,1,1683900647.0506341
-0.16509123,0.482838,0.85270846,-0.02817154,0.032043457,0.026035309,-1.4998349,4.8581777,8.385641,1,1683900647.0557284
-0.16509123,0.482838,0.85270846,-0.003604889,0.02670288,0.031375885,-1.4998349,4.8581777,8.385641,1,1683900647.0818934
-0.16509123,0.482838,0.85270846,-0.003604889,0.02670288,0.031375885,-1.5041907,4.854404,8.387048,1,1683900647.0870304
-0.16313487,0.47869784,0.85050946,-0.003604889,0.02670288,0.031375885,-1.5041907,4.854404,8.387048,1,1683900647.0921602
-0.16313487,0.47869784,0.85050946,0.004940033,0.02029419,0.034446716,-1.5041907,4.854404,8.387048,1,1683900647.1024246
-0.17167303,0.47161555,0.8612466,0.004940033,0.02029419,0.034446716,-1.5041907,4.854404,8.387048,1,1683900647.1331377
-0.17167303,0.47161555,0.8612466,0.004940033,0.02029419,0.034446716,-1.5085913,4.829024,8.400897,1,1683900647.1433613
-0.17045979,0.4696592,0.85367906,0.004940033,0.02029419,0.034446716,-1.5085913,4.829024,8.400897,1,1683900647.158713
-0.17045979,0.4696592,0.85367906,0.004940033,0.02029419,0.034446716,-1.5124071,4.8252344,8.402388,1,1683900647.1741104
-0.17045979,0.4696592,0.85367906,-0.004673004,0.0064086914,-0.0017356873,-1.5124071,4.8252344,8.402388,1,1683900647.1791975
-0.17265879,0.47332925,0.85807705,-0.004673004,0.0064086914,-0.0017356873,-1.5124071,4.8252344,8.402388,1,1683900647.1946013
-0.17265879,0.47332925,0.85807705,0.0028038025,0.005340576,0.004673004,-1.5124071,4.8252344,8.402388,1,1683900647.1997297
-0.17265879,0.47332925,0.85807705,0.0028038025,0.005340576,0.004673004,-1.5141072,4.824054,8.40276,1,1683900647.2099898
-0.17265879,0.47332925,0.85807705,0.021896362,-0.011749268,0.022830963,-1.5141072,4.824054,8.40276,1,1683900647.2305117
-0.1665471,0.4774694,0.83537436,0.021896362,-0.011749268,0.022830963,-1.5141072,4.824054,8.40276,1,1683900647.245899
-0.1665471,0.4774694,0.83537436,0.021896362,-0.011749268,0.022830963,-1.5176617,4.825026,8.401561,1,1683900647.2510343
-0.15972266,0.48259535,0.8385439,0.021896362,-0.011749268,0.022830963,-1.5176617,4.825026,8.401561,1,1683900647.2972422
-0.15972266,0.48259535,0.8385439,0.021896362,-0.011749268,0.022830963,-1.514724,4.827954,8.400409,1,1683900647.3023746
-0.15972266,0.48259535,0.8385439,0.019760132,-0.031909943,0.021762848,-1.514724,4.827954,8.400409,1,1683900647.3177223
-0.15409626,0.4808968,0.83805865,0.019760132,-0.031909943,0.021762848,-1.514724,4.827954,8.400409,1,1683900647.3382297
-0.15409626,0.4808968,0.83805865,0.018692017,-0.031909943,0.020694733,-1.514724,4.827954,8.400409,1,1683900647.3433363
-0.15409626,0.4808968,0.83805865,0.018692017,-0.031909943,0.020694733,-1.511507,4.829832,8.399908,1,1683900647.3535964
-0.15409626,0.4808968,0.83805865,0.018692017,-0.031909943,0.020694733,-1.5096519,4.830703,8.399741,1,1683900647.3689947
-0.15409626,0.4808968,0.83805865,0.015487671,-0.029773712,0.018558502,-1.5096519,4.830703,8.399741,1,1683900647.379201
-0.14897034,0.4835811,0.8390444,0.015487671,-0.029773712,0.018558502,-1.5096519,4.830703,8.399741,1,1683900647.3945637
-0.14897034,0.4835811,0.8390444,0.015487671,-0.029773712,0.018558502,-1.527731,4.80745,8.409806,1,1683900647.3996918
-0.14897034,0.4835811,0.8390444,0.036849976,-0.02336502,0.01001358,-1.527731,4.80745,8.409806,1,1683900647.4099143
-0.15752366,0.48211005,0.83440375,0.036849976,-0.02336502,0.01001358,-1.527731,4.80745,8.409806,1,1683900647.4150481
-0.15752366,0.48211005,0.83440375,0.018692017,-0.025501251,0.00787735,-1.527731,4.80745,8.409806,1,1683900647.4406862
-0.15752366,0.48211005,0.83440375,0.018692017,-0.025501251,0.00787735,-1.5238423,4.8131485,8.407252,1,1683900647.445817
-0.14628606,0.48699334,0.82903516,0.018692017,-0.025501251,0.00787735,-1.5238423,4.8131485,8.407252,1,1683900647.450924
-0.14628606,0.48699334,0.82903516,-0.004673004,-0.020160675,-0.0038719177,-1.5238423,4.8131485,8.407252,1,1683900647.461184
-0.15141198,0.48772126,0.84685457,-0.004673004,-0.020160675,-0.0038719177,-1.5238423,4.8131485,8.407252,1,1683900647.4765627
-0.15141198,0.48772126,0.84685457,-0.004673004,-0.020160675,-0.0038719177,-1.5210866,4.8149214,8.406736,1,1683900647.4816833
-0.15141198,0.48772126,0.84685457,-0.004673004,-0.020160675,-0.0038719177,-1.5206124,4.8143964,8.407123,1,1683900647.502221
-0.15409626,0.48430905,0.8627177,-0.004673004,-0.020160675,-0.0038719177,-1.5206124,4.8143964,8.407123,1,1683900647.5227036
-0.15409626,0.48430905,0.8627177,-0.033512115,0.02029419,-0.01241684,-1.5206124,4.8143964,8.407123,1,1683900647.5329175
-0.15409626,0.48430905,0.8627177,-0.033512115,0.02029419,-0.01241684,-1.5238503,4.806956,8.410793,1,1683900647.538047
-0.15409626,0.48430905,0.8627177,-0.03030777,0.02670288,-0.010280609,-1.5238503,4.806956,8.410793,1,1683900647.553439
-0.15508202,0.4784552,0.86197454,-0.03030777,0.02670288,-0.010280609,-1.5238503,4.806956,8.410793,1,1683900647.5637023
-0.15508202,0.4784552,0.86197454,-0.03030777,0.02670288,-0.010280609,-1.5310955,4.802043,8.412284,1,1683900647.594413
-0.15972266,0.4808968,0.85050946,-0.03030777,0.02670288,-0.010280609,-1.5310955,4.802043,8.412284,1,1683900647.6046681
-0.15972266,0.4808968,0.85050946,-0.00787735,0.030975342,-0.010280609,-1.5310955,4.802043,8.412284,1,1683900647.6097958
-0.15972266,0.4808968,0.85050946,0.000667572,0.016021729,-0.009212494,-1.5310955,4.802043,8.412284,1,1683900647.6302617
-0.15972266,0.4808968,0.85050946,0.000667572,0.016021729,-0.009212494,-1.5331306,4.801477,8.412236,1,1683900647.6456046
-0.1582516,0.48479435,0.8426992,0.000667572,0.016021729,-0.009212494,-1.5331306,4.801477,8.412236,1,1683900647.650715
-0.15849425,0.48162475,0.84366983,0.000667572,0.016021729,-0.009212494,-1.5331306,4.801477,8.412236,1,1683900647.666034
-0.15849425,0.48162475,0.84366983,0.000667572,0.016021729,-0.009212494,-1.5353869,4.8017263,8.411683,1,1683900647.6711679
-0.15703836,0.485037,0.84098554,0.000667572,0.016021729,-0.009212494,-1.5353869,4.8017263,8.411683,1,1683900647.6865685
-0.15703836,0.485037,0.84098554,-0.0014686584,0.0,-0.010280609,-1.5353869,4.8017263,8.411683,1,1683900647.701923
-0.15703836,0.485037,0.84098554,-0.0014686584,0.0,-0.010280609,-1.5372134,4.828024,8.396281,1,1683900647.7070556
-0.16216429,0.48113945,0.83049107,-0.0014686584,0.0,-0.010280609,-1.5372134,4.828024,8.396281,1,1683900647.7275522
-0.16216429,0.48113945,0.83049107,0.0028038025,0.004272461,-0.01455307,-1.5372134,4.828024,8.396281,1,1683900647.7326856
-0.16216429,0.48113945,0.83049107,0.0028038025,0.004272461,-0.01455307,-1.5404421,4.82805,8.395676,1,1683900647.7378511
-0.1604506,0.48211005,0.8283072,0.0028038025,0.004272461,-0.01455307,-1.5404421,4.82805,8.395676,1,1683900647.7531724
-0.1604506,0.48211005,0.8283072,0.0028038025,0.004272461,-0.01455307,-1.540924,4.8282557,8.395469,1,1683900647.7685425
-0.1604506,0.48211005,0.8283072,0.006008148,-0.012817383,-0.013484955,-1.540924,4.8282557,8.395469,1,1683900647.7736695
-0.16240694,0.47796988,0.83171946,0.006008148,-0.012817383,-0.013484955,-1.540924,4.8282557,8.395469,1,1683900647.7941906
-0.16240694,0.47796988,0.83171946,0.004940033,-0.01909256,-0.013484955,-1.540924,4.8282557,8.395469,1,1683900647.7992878
-0.16240694,0.47796988,0.83171946,0.004940033,-0.01909256,-0.013484955,-1.5416697,4.828719,8.395064,1,1683900647.804412
-0.16826081,0.47478512,0.840015,0.004940033,-0.01909256,-0.013484955,-1.5416697,4.828719,8.395064,1,1683900647.8146713
-0.16826081,0.47478512,0.840015,0.012283325,-0.040454865,-0.0017356873,-1.5416697,4.828719,8.395064,1,1683900647.8249376
-0.16826081,0.47478512,0.840015,0.012283325,-0.040454865,-0.0017356873,-1.5416368,4.8284616,8.395219,1,1683900647.8351736
-0.16826081,0.47478512,0.840015,0.012283325,-0.040454865,-0.0017356873,-1.5406765,4.8286986,8.395259,1,1683900647.8556678
-0.16753286,0.4752856,0.83830124,0.012283325,-0.040454865,-0.0017356873,-1.5406765,4.8286986,8.395259,1,1683900647.8608007
-0.16753286,0.4752856,0.83830124,0.017623901,-0.048999786,0.0025367737,-1.5406765,4.8286986,8.395259,1,1683900647.8659356
-0.16753286,0.4752856,0.83830124,0.028305054,-0.055408478,0.011081696,-1.5406765,4.8286986,8.395259,1,1683900647.8915925
-0.16190648,0.48382375,0.83830124,0.028305054,-0.055408478,0.011081696,-1.5406765,4.8286986,8.395259,1,1683900647.9018571
-0.16190648,0.48382375,0.83830124,0.028305054,-0.055408478,0.011081696,-1.5372648,4.830416,8.3948965,1,1683900647.9069934
-0.16190648,0.48382375,0.83830124,0.028305054,-0.055408478,0.011081696,-1.5314934,4.8334384,8.394211,1,1683900647.9275143
-0.15800895,0.4879639,0.8402576,0.028305054,-0.055408478,0.011081696,-1.5314934,4.8334384,8.394211,1,1683900647.937771
-0.15800895,0.4879639,0.8402576,0.016555786,-0.04793167,0.014286041,-1.5314934,4.8334384,8.394211,1,1683900647.948031
-0.15800895,0.4879639,0.8402576,-0.033512115,0.02243042,0.004673004,-1.5314934,4.8334384,8.394211,1,1683900647.9634156
-0.15800895,0.4879639,0.8402576,-0.033512115,0.02243042,0.004673004,-1.5129327,4.838551,8.394631,1,1683900647.968548
-0.14727181,0.4818674,0.8407429,-0.033512115,0.02243042,0.004673004,-1.5129327,4.838551,8.394631,1,1683900647.9736829
-0.14580075,0.48430905,0.8483105,-0.033512115,0.02243042,0.004673004,-1.5129327,4.838551,8.394631,1,1683900647.9942045
-0.14580075,0.48430905,0.8483105,-0.042057037,0.034046173,-0.000667572,-1.5129327,4.838551,8.394631,1,1683900648.004433
-0.14580075,0.48430905,0.8483105,-0.042057037,0.034046173,-0.000667572,-1.5156074,4.833405,8.397114,1,1683900648.0095701
-0.14580075,0.48430905,0.8483105,-0.040988922,0.03725052,-0.004940033,-1.5156074,4.833405,8.397114,1,1683900648.040314
-0.14580075,0.48430905,0.8483105,-0.040988922,0.03725052,-0.004940033,-1.5209489,4.825972,8.400422,1,1683900648.0761113
-0.14580075,0.48430905,0.8483105,-0.017490387,0.02670288,-0.01241684,-1.5209489,4.825972,8.400422,1,1683900648.0812397
-0.15459673,0.48259535,0.8546648,-0.017490387,0.02670288,-0.01241684,-1.5209489,4.825972,8.400422,1,1683900648.0914683
-0.15459673,0.48259535,0.8546648,-0.017490387,0.02670288,-0.01241684,-1.5231334,4.824591,8.40082,1,1683900648.106818
-0.15629525,0.4823527,0.856606,-0.017490387,0.02670288,-0.01241684,-1.5231334,4.824591,8.40082,1,1683900648.1119483
-0.15629525,0.4823527,0.856606,0.0038719177,0.017089844,-0.010280609,-1.5231334,4.824591,8.40082,1,1683900648.1170752
-0.15068403,0.4830958,0.85367906,0.0038719177,0.017089844,-0.010280609,-1.5231334,4.824591,8.40082,1,1683900648.1323872
-0.15068403,0.4830958,0.85367906,0.0038719177,0.017089844,-0.010280609,-1.5235641,4.8245955,8.40074,1,1683900648.147776
-0.15068403,0.4830958,0.85367906,0.012283325,0.010681152,-0.011348724,-1.5235641,4.8245955,8.40074,1,1683900648.152922
-0.15068403,0.4830958,0.85367906,0.012283325,0.010681152,-0.011348724,-1.5251118,4.8245635,8.400477,1,1683900648.168275
-0.15776631,0.48430905,0.86368823,0.012283325,0.010681152,-0.011348724,-1.5251118,4.8245635,8.400477,1,1683900648.1734092
-0.15776631,0.48430905,0.86368823,0.022964478,-0.0010681152,-0.01455307,-1.5251118,4.8245635,8.400477,1,1683900648.1785433
-0.15776631,0.48430905,0.86368823,0.027236938,0.0010681152,-0.01455307,-1.5251118,4.8245635,8.400477,1,1683900648.1939294
-0.15728101,0.47821254,0.8700274,0.027236938,0.0010681152,-0.01455307,-1.5251118,4.8245635,8.400477,1,1683900648.2143996
