acc_x,acc_y,acc_z,gyr_x,gyr_y,gyr_z,grav_x,grav_y,grav_z,label,timestamp
-0.93508726,-0.8582439,-0.9486755,-14.406738,12.117767,8.600864,-0.9182705,9.727164,-0.8422942,1,1683807250.6111715
-0.93508726,-0.8582439,-0.9486755,-16.474476,13.096695,8.918362,-0.9182705,9.727164,-0.8422942,1,1683807250.6264966
-1.327524,-1.497923,0.17496394,-16.474476,13.096695,8.918362,-0.9182705,9.727164,-0.8422942,1,1683807250.6421218
-1.3082486,-1.8969567,1.049905,-17.562084,13.657055,9.406223,-0.07509524,9.78407,0.6608551,1,1683807250.6577473
-1.3082486,-1.8969567,1.049905,-17.740993,13.650646,9.616108,-0.07509524,9.78407,0.6608551,1,1683807250.6733718
-1.3082486,-1.8969567,1.049905,-17.471561,13.291626,9.54361,0.9880929,8.807419,4.1980257,1,1683807250.6889966
-0.38303408,-1.335137,2.9494095,-17.471561,13.291626,9.54361,0.989425,6.6426826,7.146061,1,1683807250.7046216
-0.38303408,-1.335137,2.9494095,-15.17271,11.366749,8.978977,0.7227204,5.4959607,8.089653,1,1683807250.7202466
2.0004306,-0.018441202,3.305722,10.599308,-16.835098,-10.066853,2.0088785,5.653045,7.757439,1,1683807250.7358713
1.5411143,-0.24932021,4.036682,11.398258,-17.850208,-10.864735,2.3670578,6.1703305,7.245305,1,1683807250.7514968
1.2799802,-0.5019313,3.7484474,12.611504,-16.751919,-12.002411,2.539676,8.588481,3.9948006,1,1683807250.7671213
-2.2051644,-0.938545,0.6350082,8.808613,-6.586132,-9.891014,-2.4018023,9.457207,-0.9813066,1,1683807250.8139956
-3.0364137,-0.85800123,-0.08447163,7.2639847,-4.2478943,-7.7594566,-3.306729,9.100488,-1.5546944,1,1683807250.829622
-3.9875157,-0.47678697,-1.3018336,4.0213203,-0.14766693,-3.317299,-4.122182,8.625544,-2.1858642,1,1683807250.8452475
-1.2777357,-1.3451462,0.0255993,-12.300682,11.456203,9.813175,-1.5506127,9.6162405,-1.1375009,1,1683807250.8921204
-0.68590355,-2.1720128,2.7431743,-18.872395,16.385288,11.039238,0.008919094,9.767783,0.8721919,1,1683807250.9389951
-0.68590355,-2.1720128,2.7431743,-18.872395,16.385288,11.039238,1.2829134,7.4278684,6.2730613,1,1683807250.9702477
-0.24806146,-1.1274459,4.635354,-14.795532,13.84985,9.463768,1.2829134,7.4278684,6.2730613,1,1683807250.985871
3.1968036,1.4312557,3.2486088,-1.853714,4.0856743,2.668419,-1.4742471,2.5729408,9.347565,1,1683807251.0014963
3.2995496,1.4546863,2.5100963,-1.853714,4.0856743,2.668419,-1.4742471,2.5729408,9.347565,1,1683807251.0171237
3.2995496,1.4546863,2.5100963,3.8103676,-2.9311752,-2.1156693,-1.0132866,3.0822134,9.254383,1,1683807251.0327473
2.0360694,-0.24713637,2.763678,14.483242,-21.835346,-13.483086,2.4911127,8.477798,4.2534304,1,1683807251.0483716
0.47507328,-1.4471643,2.4183302,12.106686,-12.865849,-13.831425,0.7913375,9.64037,1.61475,1,1683807251.063997
-4.1893377,-0.7232864,-0.69924915,6.425514,-1.8489075,-5.133629,-3.8242662,8.831097,-1.8860306,1,1683807251.1108706
-4.2117977,-0.40332547,-2.717848,-0.75969696,5.6750298,2.9869843,-3.6128516,8.730562,-2.625828,1,1683807251.1421204
-2.1241353,-1.0212725,-1.6037325,-3.048935,7.3368835,4.9022484,-0.46726993,9.783854,-0.47777292,1,1683807251.1889951
-2.1241353,-1.0212725,-1.6037325,-3.048935,7.3368835,4.9022484,1.3857986,9.143022,3.2642167,1,1683807251.2046216
-0.7410603,-2.2896512,2.3395002,-19.216461,18.41671,12.201481,1.3857986,9.143022,3.2642167,1,1683807251.2046216
-0.865038,-2.1578481,3.394804,-19.804459,18.636074,11.375828,1.4704541,7.3714743,6.298373,1,1683807251.2202477
-0.865038,-2.1578481,3.394804,-19.804459,18.636074,11.375828,0.5811618,5.1454644,8.328074,1,1683807251.2358723
-0.10505116,-1.3170749,4.625102,-15.928001,15.453091,10.128403,0.5811618,5.1454644,8.328074,1,1683807251.2358723
3.1902218,0.13334991,2.7624497,13.725815,-18.043003,-10.969143,1.5856642,5.389494,8.037998,1,1683807251.2671213
1.0215153,-1.5464829,3.8843906,15.698757,-23.064747,-14.869099,2.2517803,8.937925,3.3486354,1,1683807251.2983716
1.0215153,-1.5464829,3.8843906,14.928513,-19.78897,-15.289803,2.2517803,8.937925,3.3486354,1,1683807251.3139968
-0.27930233,-1.8635168,2.817121,11.833916,-12.265034,-14.7379875,0.69145226,9.705532,1.2226739,1,1683807251.329621
-4.668187,-1.4644833,0.09978874,8.802204,-3.335991,-7.9693413,-3.6084983,8.929829,-1.845887,1,1683807251.3452466
-5.143367,-1.3326954,-0.8007819,1.9067192,5.025215,1.2836075,-4.1710925,8.417943,-2.9341984,1,1683807251.3608718
-5.1585016,-0.5675826,-3.160088,1.9067192,5.025215,1.2836075,-4.1710925,8.417943,-2.9341984,1,1683807251.376496
-5.1585016,-0.5675826,-3.160088,1.9067192,5.025215,1.2836075,-2.601833,8.999634,-2.899562,1,1683807251.4233701
-0.81891984,-2.1354034,2.1239989,-17.63338,14.668026,11.256599,0.7821603,9.739196,0.8406461,1,1683807251.4389951
-0.7771844,-1.9562688,3.08558,-16.885567,13.876553,11.089306,2.1348836,7.2183456,6.285551,1,1683807251.4546216
-0.7771844,-1.9562688,3.08558,-16.885567,13.876553,11.089306,2.0783591,6.5726523,6.975031,1,1683807251.5014954
-0.380092,-1.50085,4.1269774,-14.996872,12.669582,10.775013,2.0783591,6.5726523,6.975031,1,1683807251.5171213
2.7680001,0.96534234,3.5832198,-4.145088,7.025795,6.4543533,1.8110323,5.3520384,8.015375,1,1683807251.532746
2.6374257,0.31835338,1.9565722,8.741455,-15.33947,-9.132652,2.7775111,5.883447,7.337634,1,1683807251.5483718
1.5413569,-0.3864918,4.4671993,11.548462,-11.824036,-12.2538185,3.319052,8.327451,3.9759083,1,1683807251.595246
-0.59292406,-0.9509958,1.4960425,10.437355,-8.834915,-9.897423,-0.9319619,9.666319,-1.3653324,1,1683807251.6108725
-3.5230734,-0.29935107,-1.8787885,4.1161156,-0.5301857,-2.9646873,-3.1558588,8.729387,-3.1636581,1,1683807251.6264966
-3.5230734,-0.29935107,-1.8787885,2.5565338,0.8398056,-1.3913536,-3.1558588,8.729387,-3.1636581,1,1683807251.6577456
-1.641631,-1.039092,-0.10400474,-10.129738,8.908081,7.308712,-0.573955,9.693827,-1.3677369,1,1683807251.6733727
-1.641631,-1.039092,-0.10400474,-12.659702,11.036568,8.660545,-0.573955,9.693827,-1.3677369,1,1683807251.6889973
-1.0344211,-1.6148336,1.3303295,-15.584869,14.026756,10.73349,1.2911351,9.581058,1.6451974,1,1683807251.7046213
-0.18339594,-1.4122534,3.7843137,-15.985413,15.834408,10.547104,1.7679754,5.943821,7.597081,1,1683807251.7358708
1.2162852,-0.31497148,3.7499032,-12.219772,14.065075,9.177113,0.22633316,3.4549537,9.1751,1,1683807251.7514968
1.2162852,-0.31497148,3.7499032,-4.4433594,6.5634346,4.2599106,0.22633316,3.4549537,9.1751,1,1683807251.7671213
1.8456974,-0.20808531,3.4782746,11.740189,-18.063297,-10.022125,1.5066954,4.446938,8.609588,1,1683807251.8139958
1.2553211,-0.7342662,3.7643104,14.22863,-20.079899,-13.304176,3.3307314,7.576301,5.2608256,1,1683807251.829622
0.81016934,-1.1254896,2.3275497,11.998005,-14.741859,-13.596039,2.3159637,9.278383,2.1721644,1,1683807251.8452463
0.18366891,-1.143309,2.1222851,11.365147,-13.641434,-13.521538,1.816065,9.515057,1.528397,1,1683807251.8608718
-2.2381039,-1.0146908,1.2434466,6.842079,-3.7290573,-6.4108276,-1.7505864,9.55542,-1.3415626,1,1683807251.907748
-2.9907808,-0.23712717,-1.9002628,-3.3865929,8.335037,4.6689987,-3.0429463,8.824487,-3.006543,1,1683807251.9233723
-2.3789303,-0.2671396,-1.7569946,-5.3071976,9.817848,6.0910606,-2.6527872,8.975494,-2.9280732,1,1683807251.9389966
-0.9843902,-0.47020516,-0.9640533,-10.422668,12.796288,8.720226,-1.130986,9.514316,-2.0902286,1,1683807251.9546216
-0.55363035,-1.1560025,1.4957999,-17.163677,17.749805,9.513836,1.7598542,9.040589,3.367647,1,1683807251.9858716
-0.948266,-1.2819365,2.808583,-15.109825,16.21479,9.09193,1.0918494,6.2754164,7.4563665,1,1683807252.0014973
1.8806083,0.34666732,3.2376292,-8.64893,9.697552,6.969986,-0.08475106,4.260657,8.832327,1,1683807252.0639958
1.8806083,0.34666732,3.2376292,13.045158,-21.22612,-11.650867,2.6440225,6.506708,6.8441424,1,1683807252.0796218
1.8935444,-0.21393918,3.7687085,13.045158,-21.22612,-11.650867,2.6440225,6.506708,6.8441424,1,1683807252.0796218
1.5987127,-0.3984422,3.9861507,13.624611,-21.566982,-12.3231125,2.931762,7.0909967,6.1067934,1,1683807252.0952466
1.5987127,-0.3984422,3.9861507,13.624611,-21.566982,-12.3231125,0.0685581,9.800331,-0.34523612,1,1683807252.1264956
-0.83379716,-1.0708182,2.1276689,11.069012,-11.540718,-12.043934,0.0685581,9.800331,-0.34523612,1,1683807252.1264956
-2.7181666,-0.9719848,0.48467302,9.295406,-6.973858,-8.700066,-2.2033513,9.331459,-2.0590081,1,1683807252.1421216
-3.5713906,-0.6769104,-0.65947014,7.46212,-4.2382812,-6.137123,-3.0235589,8.939731,-2.6663978,1,1683807252.157746
-2.024559,-0.43797857,-1.6603452,-7.200165,9.148941,7.0380783,-1.2673616,9.408807,-2.457341,1,1683807252.2046201
-2.024559,-0.43797857,-1.6603452,-14.915962,15.436001,10.162582,-0.14192064,9.712613,-1.3473692,1,1683807252.2202468
-0.8025563,-1.1106123,1.1516804,-14.915962,15.436001,10.162582,-0.14192064,9.712613,-1.3473692,1,1683807252.2202468
-0.8025563,-1.1106123,1.1516804,-14.915962,15.436001,10.162582,0.90965277,9.763115,0.15655236,1,1683807252.2358718
-0.5511887,-1.1552595,2.3268065,-15.485802,16.24136,10.530014,2.231026,8.796432,3.7169485,1,1683807252.2514954
-0.5511887,-1.1552595,2.3268065,-14.910622,16.026268,10.366058,2.231026,8.796432,3.7169485,1,1683807252.3139954
-0.29907808,-1.0761867,2.7248697,-14.910622,16.026268,10.366058,2.3536625,7.8329606,5.4106736,1,1683807252.329622
0.06334614,-0.7310966,3.274481,-14.910622,16.026268,10.366058,2.1331835,6.699367,6.8365483,1,1683807252.3452451
0.06334614,-0.7310966,3.274481,-11.451664,13.918076,9.230385,2.1331835,6.699367,6.8365483,1,1683807252.360872
0.5470789,-0.3152293,3.5488093,-13.639698,15.181522,9.949493,1.6620159,5.5827026,7.88933,1,1683807252.3921213
-1.0932328,-1.0947341,1.8809117,10.672741,-13.504982,-13.128338,0.042582758,9.772421,-0.8175409,1,1683807252.407747
-2.2564085,-1.1340278,1.1697425,9.460564,-9.536934,-12.028046,-1.1503263,9.600936,-1.6337605,1,1683807252.4233727
-2.2564085,-1.1340278,1.1697425,9.460564,-9.536934,-12.028046,0.5758462,9.7479,-0.90402085,1,1683807252.4858701
-0.89969105,-1.1591722,0.4458646,-14.122353,14.631844,10.093288,0.5758462,9.7479,-0.90402085,1,1683807252.4858701
-0.33593017,-1.1967522,1.8023394,-16.135616,16.859264,10.426674,2.5131714,8.769551,3.5985172,1,1683807252.5171204
-0.31518382,-1.0139629,3.2495947,-14.06374,14.803276,9.195271,2.0027046,5.8629317,7.6016836,1,1683807252.5952475
2.595933,0.50554067,2.4983885,8.31955,-17.904549,-8.995132,2.1555977,4.566647,8.406517,1,1683807252.6108723
2.5312674,0.36253038,3.2093303,9.286861,-19.976559,-10.137081,2.7451537,5.0498586,7.945656,1,1683807252.6264975
1.3588103,-0.6298065,2.932318,11.29385,-21.425323,-12.217636,3.718464,8.618396,2.8401854,1,1683807252.673371
1.3588103,-0.6298065,2.932318,8.708477,-9.330254,-10.180874,-0.42422542,9.690169,-1.4460378,1,1683807252.6889966
-1.3614491,-0.66129,1.1387442,8.708477,-9.330254,-10.180874,-0.42422542,9.690169,-1.4460378,1,1683807252.6889966
-2.5819807,-0.3957579,-0.2301814,6.195469,-5.1895714,-6.5888023,-2.3312936,9.15246,-2.6396842,1,1683807252.7046218
-1.8485941,-0.17000483,-1.0133562,-6.322441,8.201923,5.7512665,-1.9269478,9.181741,-2.855326,1,1683807252.751496
-1.6245546,-0.2908129,-0.86082196,-7.5197983,9.21917,6.5981483,-1.518112,9.333722,-2.5975688,1,1683807252.767122
-1.0688314,-0.6773957,-0.06689485,-7.5197983,9.21917,6.5981483,-0.079360284,9.718392,-1.3103282,1,1683807252.7827466
-0.67736536,-1.2907174,1.6295441,-16.15591,16.827354,10.345764,2.226758,8.872744,3.5336044,1,1683807252.8296201
-0.6893158,-1.3510001,1.9665813,-16.403046,16.903992,10.378742,2.331494,8.413648,4.4659896,1,1683807252.8452468
-0.8049979,-0.9434283,0.5691143,-15.116234,16.114655,10.121994,2.331494,8.413648,4.4659896,1,1683807252.8608718
-0.43867618,-1.2297066,3.2600892,-15.701027,16.065655,10.154037,2.054163,6.6152573,6.9418426,1,1683807252.8764966
2.0643835,0.7915765,2.7634354,-0.5624962,3.4529495,1.0906792,-0.28826743,3.205,9.263653,1,1683807252.8921206
1.8298343,-0.0726274,3.3977308,11.715622,-20.777645,-10.773144,-0.63247114,3.2166493,9.242486,1,1683807252.9077468
1.2028487,-0.6451843,4.368351,14.28297,-22.194366,-12.979202,3.2735803,7.3825793,5.563414,1,1683807252.9233716
1.2028487,-0.6451843,4.368351,14.28297,-22.194366,-12.979202,3.2038834,8.417893,3.8787355,1,1683807252.938997
0.97711074,-0.8933974,3.4633822,13.753586,-19.267063,-12.968655,3.2038834,8.417893,3.8787355,1,1683807252.938997
0.26616904,-0.8916837,2.1628072,13.753586,-19.267063,-12.968655,3.2038834,8.417893,3.8787355,1,1683807253.0014958
-2.6273708,-0.80357236,0.634523,8.557205,-7.340355,-8.584042,-1.60452,9.514375,-1.7528813,1,1683807253.017123
-3.1796818,-0.52241987,-2.0264394,-4.7202682,8.909149,5.877037,-2.124262,9.130079,-2.8808932,1,1683807253.048372
-1.1081252,-1.2116446,0.21254395,-14.898872,16.951923,11.732712,-1.1384771,9.447875,-2.368948,1,1683807253.063997
-0.085032746,-1.2206681,2.5022862,-15.353756,17.80735,11.5771675,2.764692,8.660052,3.6783652,1,1683807253.0796216
-0.085032746,-1.2206681,2.5022862,-15.353756,17.80735,11.5771675,2.8704531,7.6037617,5.487594,1,1683807253.1108718
-0.054034542,-1.0908365,3.2037039,-13.236084,16.127472,10.571671,2.8704531,7.6037617,5.487594,1,1683807253.126497
0.40649506,-0.5595297,4.245829,-13.236084,16.127472,10.571671,2.5860367,6.393571,6.9717326,1,1683807253.1421223
0.40649506,-0.5595297,4.245829,-9.781399,14.252529,9.6118355,2.0638359,5.3115954,7.981098,1,1683807253.1733704
0.40649506,-0.5595297,4.245829,-7.813797,13.22567,8.994999,0.54639214,4.078367,8.901617,1,1683807253.1889977
1.00224,0.054519836,4.5501695,-7.813797,13.22567,8.994999,0.54639214,4.078367,8.901617,1,1683807253.1889977
1.2785091,-0.14096297,2.637001,9.874859,-16.48035,-11.212006,3.188071,9.094749,1.8144172,1,1683807253.2046227
-3.0439813,-0.15242806,-1.7157446,-1.6416931,8.245583,3.0944633,-0.2594101,9.605367,-1.9595972,1,1683807253.2671208
-1.9611067,-0.10215455,-1.57005,-5.758877,11.884518,6.3191032,0.41613317,9.677078,-1.5334175,1,1683807253.282748
-0.9668134,-0.22639002,-0.81176174,-10.38435,13.964939,8.890591,1.2980592,9.699022,-0.6437273,1,1683807253.298372
-0.9668134,-0.22639002,-0.81176174,-12.989883,15.680065,9.441338,2.8252509,9.115816,2.2561564,1,1683807253.313997
0.13924928,-0.52364826,1.466015,-12.989883,15.680065,9.441338,2.8252509,9.115816,2.2561564,1,1683807253.313997
0.13924928,-0.52364826,1.466015,-13.7644005,17.152195,9.326248,3.1267717,8.386148,4.0082674,1,1683807253.3608708
0.13924928,-0.52364826,1.466015,-13.7644005,17.152195,9.326248,1.5766828,5.300665,8.098605,1,1683807253.3764973
0.39283097,-0.06921517,3.2415419,-11.35046,17.228966,8.095913,1.5766828,5.300665,8.098605,1,1683807253.3764973
2.0328999,1.6230836,-0.010039536,1.1813354,-0.6515503,0.030841827,-0.2948424,3.9472268,8.972339,1,1683807253.3921218
1.4823027,0.66320086,2.388803,8.113003,-18.304024,-7.465458,3.8311174,6.8294573,5.9035115,1,1683807253.4389954
1.4464211,0.629761,2.3573196,8.262138,-17.755413,-7.651844,4.064712,7.1982074,5.2758245,1,1683807253.4546218
0.23321448,0.4530682,1.2358791,5.364609,-8.139305,-7.0968246,2.5553422,9.466134,0.18142352,1,1683807253.5014963
-1.4319836,0.33397382,0.5381161,4.940567,-4.2766,-5.3274918,0.48577464,9.644528,-1.7080618,1,1683807253.532747
-1.4319836,0.33397382,0.5381161,4.5720673,-2.3272896,-4.0693855,0.48577464,9.644528,-1.7080618,1,1683807253.5483742
-1.8017328,0.15508202,-0.24116118,4.5720673,-2.3272896,-4.0693855,0.17892611,9.582354,-2.0777097,1,1683807253.5796218
-0.026221085,0.63001883,-0.856424,-0.88747025,8.005791,2.3583984,1.3593439,9.578329,-1.6056741,1,1683807253.595246
-0.28662723,0.52921396,-0.92159,-9.34454,15.691681,5.6085396,2.6037636,9.441442,0.4999804,1,1683807253.6108725
0.5573307,0.96582764,-0.18015052,-10.924416,14.674435,3.4695053,2.637984,8.255971,4.588069,1,1683807253.642125
0.5573307,0.96582764,-0.18015052,-10.924416,14.674435,3.4695053,0.85894424,5.3877273,8.148927,1,1683807253.6889956
-0.5790022,-0.057492267,0.66869074,-8.086567,6.3685036,2.71101,0.85894424,5.3877273,8.148927,1,1683807253.6889956
1.2506957,0.8591841,1.9304572,-4.644699,0.7343292,2.13583,1.381674,4.5579023,8.57245,1,1683807253.704621
1.1767489,0.023036338,2.6863039,9.80463,-14.357204,-9.896355,3.2320125,8.970246,2.2932906,1,1683807253.798371
-1.0646762,-0.31107396,0.6189025,8.121414,-9.282322,-9.409561,0.21007526,9.727574,-1.2249669,1,1683807253.8139973
-2.7230499,-0.30960292,-0.54794335,4.7201347,-4.049759,-5.1890373,-1.4238454,9.418724,-2.3303835,1,1683807253.8296242
-0.7749855,-1.6150763,1.5504714,-14.245853,14.095917,10.136948,1.4264817,9.594407,1.4432168,1,1683807253.8921218
-0.58315754,-1.6524136,1.7410709,-15.148144,14.868298,10.964737,2.2915528,8.658188,3.9943655,1,1683807253.907747
-0.040855754,-1.2597191,2.986504,-14.824371,14.130096,10.717602,2.4736314,7.627423,5.645703,1,1683807253.9233713
1.4325144,0.08283376,3.703057,-6.526985,10.622139,7.848778,1.0426255,3.87731,8.947055,1,1683807253.9546208
2.8358505,1.2723671,2.20844,-1.4243317,6.0479355,4.281273,0.28242624,3.408782,9.190802,1,1683807253.970246
2.8358505,1.2723671,2.20844,2.4298286,-0.0038719177,0.20013809,0.28242624,3.408782,9.190802,1,1683807253.9858718
3.0747824,1.1527874,1.1611891,6.3904,-8.790188,-4.693699,0.3291532,3.5342267,9.141733,1,1683807254.0014956
2.4648728,0.28906888,2.557443,10.446968,-20.396194,-10.514259,1.8840988,4.924916,8.26836,1,1683807254.017122
2.2132475,0.07112602,3.3330653,12.371845,-22.115593,-12.6522255,2.974012,5.992887,7.1701427,1,1683807254.0483708
2.2132475,0.07112602,3.3330653,12.371845,-22.115593,-12.6522255,2.874445,9.206159,1.7761219,1,1683807254.063997
1.5743115,-0.2515192,4.363225,10.587559,-14.362545,-12.22084,2.874445,9.206159,1.7761219,1,1683807254.063997
-2.3842988,-1.0242146,0.9220146,7.985096,-7.051697,-9.6492195,-0.30532965,9.743776,-1.0658255,1,1683807254.079622
-4.1390643,-0.42090225,-1.2476474,4.509182,-1.371727,-3.4281158,-1.7498113,9.395371,-2.1989884,1,1683807254.095247
-4.272323,-0.3655028,-2.2961268,4.509182,-1.371727,-3.4281158,-1.8538506,9.311036,-2.4572804,1,1683807254.1264958
-4.0429153,-0.41650426,-2.5465238,-1.1570358,4.6203995,2.618351,-1.7243427,9.331621,-2.4734323,1,1683807254.1421213
-2.5639186,-0.76062375,-1.6918286,-8.089771,9.9733925,7.8562546,-0.6746243,9.601773,-1.8764887,1,1683807254.1577454
-0.48773643,-2.0231333,2.0944717,-16.689568,16.61213,12.324982,2.608933,8.775283,3.5154338,1,1683807254.1733725
2.1793225,0.566794,3.9105055,-5.4862404,10.558186,7.572937,0.76952064,3.0358183,9.293118,1,1683807254.2046206
3.5475202,1.8761649,1.2263551,0.44086456,4.3264008,2.4255562,0.116179354,2.7992017,9.397944,1,1683807254.2358716
2.5420046,0.91361296,0.65989476,8.058662,-12.275715,-6.8177795,1.0654242,3.9058945,8.931923,1,1683807254.2514975
1.7773619,0.1045507,2.4564106,10.469265,-20.79567,-10.504646,2.7731862,5.3900647,7.7088923,1,1683807254.2983718
-1.9589076,-0.84238076,1.411116,7.3778725,-8.913689,-9.736538,0.7890431,9.768513,-0.35206896,1,1683807254.3139975
-1.4878683,-1.2253087,-0.49424243,-8.060932,12.17104,9.460564,0.78202116,9.743177,-0.7932886,1,1683807254.376496
-1.4878683,-1.2253087,-0.49424243,-14.060535,14.888458,12.485867,3.5277255,8.33932,3.7658052,1,1683807254.3921232
0.46360818,-1.3939487,2.1388912,-14.060535,14.888458,12.485867,3.5277255,8.33932,3.7658052,1,1683807254.3921232
0.46360818,-1.3939487,2.1388912,-15.019302,16.03054,11.956482,3.5277255,8.33932,3.7658052,1,1683807254.4233732
0.9241378,-1.1274459,2.6323755,-15.019302,16.03054,11.956482,3.5277255,8.33932,3.7658052,1,1683807254.4233732
1.7600429,0.11139032,3.624227,-7.6924324,12.852764,7.8380966,1.7142383,3.5883632,8.964119,1,1683807254.4389977
1.7600429,0.11139032,3.624227,-3.5558891,8.053722,5.4242897,1.1109582,3.0691948,9.247497,1,1683807254.4546235
2.5671337,1.0200138,3.2173831,-3.5558891,8.053722,5.4242897,1.1109582,3.0691948,9.247497,1,1683807254.4546235
2.7650733,1.301409,1.1892604,5.10252,-4.3597794,-1.5563774,1.2247794,3.4584465,9.094473,1,1683807254.4702487
2.5166175,1.1569276,0.93543607,6.6088295,-7.6428986,-3.3588219,1.2247794,3.4584465,9.094473,1,1683807254.4858727
2.5166175,1.1569276,0.93543607,6.6088295,-7.6428986,-3.3588219,2.3802397,4.6094832,8.322109,1,1683807254.5014985
2.5166175,1.1569276,0.93543607,8.704205,-13.423004,-6.3053513,2.3802397,4.6094832,8.322109,1,1683807254.5171206
1.866929,0.74081767,1.0398958,8.704205,-13.423004,-6.3053513,2.3802397,4.6094832,8.322109,1,1683807254.5171206
1.2297066,0.2568423,2.0210102,8.372822,-13.601913,-9.599152,4.0812855,8.448096,2.8536236,1,1683807254.5327477
0.9509958,0.14434487,1.8377204,7.910595,-12.276783,-9.60022,3.8329906,8.731217,2.290068,1,1683807254.5483723
0.9509958,0.14434487,1.8377204,7.910595,-12.276783,-9.60022,2.8100526,9.35418,0.879375,1,1683807254.563998
-0.04428315,-0.10947947,1.2705321,6.7419434,-8.868961,-9.084721,2.8100526,9.35418,0.879375,1,1683807254.563998
-2.649103,0.16142118,-0.26263547,3.7996864,-2.7640152,-3.3524132,0.36909917,9.691808,-1.4501762,1,1683807254.595248
-2.8938887,-0.14316197,-1.1959181,-2.60046,6.3547516,3.0199623,0.7669161,9.715787,-1.0889003,1,1683807254.610873
-1.1832852,-1.0647216,0.2635454,-11.371822,14.858685,9.656563,2.25554,9.48756,1.0339806,1,1683807254.6264975
-0.6966407,-1.1052285,0.7909547,-12.555294,15.709839,10.358582,2.6250997,9.270071,1.828942,1,1683807254.6421213
1.9318525,1.0575938,2.28313,-4.492359,7.6649284,4.4537735,-1.14786,2.4261465,9.432211,1,1683807254.704621
1.9318525,1.0575938,2.28313,2.4095345,-3.2976723,-0.7777214,-1.14786,2.4261465,9.432211,1,1683807254.7358725
2.0851297,0.4325645,2.730481,10.562992,-20.675373,-9.594879,2.3192444,4.8091197,8.225805,1,1683807254.7514968
0.6144287,-0.7669781,2.0849478,9.163361,-13.139687,-12.183456,2.5679452,9.420072,0.91558826,1,1683807254.7983716
-0.46991703,-0.7738026,1.9724352,8.525162,-11.639786,-11.874638,2.0439222,9.582907,0.40084922,1,1683807254.8139973
-0.46991703,-0.7738026,1.9724352,7.3693275,-7.349968,-9.724922,0.43391755,9.762149,-0.8261777,1,1683807254.8296223
-3.3036594,-0.69864255,0.7453218,6.409626,-4.081669,-6.906166,-0.44231468,9.687868,-1.456009,1,1683807254.8452468
-3.3036594,-0.69864255,0.7453218,6.409626,-4.081669,-6.906166,-0.75173914,9.625897,-1.716786,1,1683807254.876496
-3.3036594,-0.69864255,0.7453218,0.84033966,5.044441,1.3837433,-0.94125307,9.515743,-2.176023,1,1683807254.8921213
-4.0434003,-0.46750572,-1.6713401,-1.242218,7.261181,3.507824,-0.94125307,9.515743,-2.176023,1,1683807254.9077454
-4.0434003,-0.46750572,-1.6713401,-1.242218,7.261181,3.507824,-0.7419027,9.53467,-2.1702619,1,1683807254.9233716
0.6197973,-0.5024166,2.292396,-14.274693,17.456875,10.332947,3.4577446,7.962695,4.561785,1,1683807254.9389968
0.54292357,-0.06921517,3.1134088,-4.2835426,8.900604,5.440178,2.6355684,5.7108545,7.523982,1,1683807254.9702463
1.9982316,1.0302657,0.44098133,7.636757,-13.049164,-5.7141495,2.3725805,5.3302016,7.8822722,1,1683807254.9858718
1.9982316,1.0302657,0.44098133,7.636757,-13.049164,-5.7141495,3.5712373,6.5758314,6.3383827,1,1683807255.0327463
1.9982316,1.0302657,0.44098133,8.799,-18.663044,-8.306999,3.5712373,6.5758314,6.3383827,1,1683807255.0327463
1.6821834,0.49040556,1.3622984,8.799,-18.663044,-8.306999,4.1868954,8.114025,3.5781136,1,1683807255.0483713
1.7666247,0.4884644,2.4551823,8.613682,-18.345547,-9.276447,3.8681488,6.9903274,5.6871023,1,1683807255.063997
-1.5056878,-0.36940032,1.2114626,5.0374985,-4.713459,-6.025238,2.0000281,9.599612,-0.13314326,1,1683807255.0796225
-3.8850124,-0.5595297,-1.5153785,-9.093266,13.205376,9.356155,1.8585348,9.628758,0.056956958,1,1683807255.126496
-0.20438494,-1.7658968,1.8040379,-11.578503,14.628639,11.252327,2.7585201,9.298355,1.4496691,1,1683807255.1421204
2.0995219,0.5272576,5.503956,-11.454868,17.135105,10.1358795,3.167794,4.9141507,7.873156,1,1683807255.1577463
1.7707801,0.39157224,4.355657,-3.684864,13.30658,5.5680847,0.5681132,3.1076763,9.283856,1,1683807255.2046204
1.6533842,0.59266627,1.3071415,7.246895,-17.724571,-6.8167114,1.9270988,4.534992,8.478828,1,1683807255.2202475
1.781032,0.65002203,1.896532,7.720871,-19.442768,-7.446232,2.5714152,4.9320807,8.076682,1,1683807255.2358723
1.7224478,0.4347635,2.181112,8.800068,-18.609772,-9.431992,4.6142488,7.102796,4.94261,1,1683807255.2827451
-1.0644335,-0.29325455,1.0877277,4.9619293,-7.799511,-8.084431,2.2594733,9.540716,0.19974847,1,1683807255.2983725
-2.9785726,-0.2830027,-0.50717854,-9.342537,14.497528,9.555359,3.2446582,8.884147,2.5912387,1,1683807255.3608704
0.7296256,-0.62859327,3.137082,-10.968075,16.771946,10.95726,3.6679504,7.199903,5.556791,1,1683807255.3764966
1.1259749,-0.37989482,3.623484,-10.764599,17.145786,10.858192,3.3157055,6.1185746,6.9093804,1,1683807255.3921218
1.1259749,-0.37989482,3.623484,-10.764599,17.145786,10.858192,2.6036944,5.1549253,7.925775,1,1683807255.4077466
2.590807,1.2504076,2.1103349,-3.7882042,14.157734,6.1156273,1.7039034,4.4931045,8.548633,1,1683807255.4389956
1.3331807,0.83062756,0.120049804,7.774143,-17.602005,-6.556759,1.9223787,5.698917,7.7457857,1,1683807255.4546208
1.5208684,0.84552,0.5698423,8.23864,-20.053196,-7.1958923,2.4765327,6.086017,7.2799425,1,1683807255.470247
2.3325999,0.9221511,1.6737211,8.23864,-20.053196,-7.1958923,3.8560803,7.286621,5.31095,1,1683807255.5171232
-0.44404474,-0.45751166,2.232356,4.4037056,-7.351036,-8.554134,1.2012181,9.712145,-0.6337824,1,1683807255.5327468
-2.4640994,-0.024067588,0.8056045,4.2396164,-3.0228996,-5.3871727,-0.29532966,9.668405,-1.6140325,1,1683807255.5483713
-2.4640994,-0.024067588,0.8056045,3.889141,-0.46516418,-2.9839134,-0.29532966,9.668405,-1.6140325,1,1683807255.5639963
-2.5568514,-0.022839187,0.5210398,3.889141,-0.46516418,-2.9839134,-0.29532966,9.668405,-1.6140325,1,1683807255.5952466
0.37549686,-0.21930775,-0.18796074,-8.351727,17.529373,9.481792,2.3830101,9.504472,-0.3958126,1,1683807255.610871
1.3839546,0.3681416,0.57228386,-12.99736,19.77602,9.260292,3.7421536,8.580598,2.9223306,1,1683807255.6264968
0.50143087,0.5951079,2.4876516,-10.4556465,14.266415,4.9321556,2.4152932,5.765615,7.556085,1,1683807255.6577454
0.42528507,0.54263544,2.3375437,-8.581905,12.298813,4.426136,2.0632956,5.376574,7.937609,1,1683807255.6733716
1.562346,1.2550482,0.7882704,-1.3220596,2.531433,1.4901543,1.1348212,4.4611244,8.659154,1,1683807255.6889977
1.9545552,0.41744453,2.977223,5.480633,-16.921349,-8.60527,3.4410868,6.0143933,6.9394803,1,1683807255.7358704
1.2948726,0.06672803,3.2203102,7.719803,-15.032654,-9.749355,4.176637,7.8179464,4.195927,1,1683807255.7514968
1.0913218,-0.007704055,2.8676374,7.848778,-13.8064575,-9.685535,4.065208,8.153107,3.6292346,1,1683807255.7671216
-1.721189,0.046466976,0.48905584,5.848198,-3.0441284,-4.7938347,1.1690576,9.719589,-0.57729363,1,1683807255.813996
-2.4770358,-0.019426957,-0.79956865,3.1956673,1.9072533,-1.0515594,0.7367614,9.703584,-1.2116181,1,1683807255.8296216
0.035775326,-0.18342628,2.7731867,-12.641544,14.954548,7.586689,1.8352687,5.0307984,8.215427,1,1683807255.923371
1.7676104,1.0607786,2.4317515,-12.641544,14.954548,7.586689,0.7493264,3.6253355,9.08107,1,1683807255.9546227
1.7676104,1.0607786,2.4317515,-7.8298187,9.929733,6.060219,0.7493264,3.6253355,9.08107,1,1683807255.9702466
1.7676104,1.0607786,2.4317515,-7.8298187,9.929733,6.060219,0.3236531,3.0509255,9.31437,1,1683807255.9858716
2.7484672,1.5427825,1.3547307,-7.8298187,9.929733,6.060219,0.3236531,3.0509255,9.31437,1,1683807255.9858716
1.5621033,-0.053594746,2.9638014,10.324402,-18.813248,-10.832825,4.5187173,7.9000115,3.6525893,1,1683807256.0014966
0.79820377,-0.19660506,1.9209485,7.9137993,-12.153149,-10.196762,4.5187173,7.9000115,3.6525893,1,1683807256.0483713
-1.4170911,-0.28667274,1.2031671,5.939789,-5.9022713,-8.082294,4.377734,8.282508,2.899293,1,1683807256.0639963
-2.6642382,-0.3759973,0.40509984,5.939789,-5.9022713,-8.082294,2.611792,9.4517765,0.113291614,1,1683807256.0796213
-1.8034464,-0.31595725,-1.6923292,-6.6410065,10.740433,6.5247154,1.5881381,9.652833,-0.68630683,1,1683807256.0952466
-0.5692356,-0.62542367,0.68625236,-11.172619,13.451443,8.576431,1.5881381,9.652833,-0.68630683,1,1683807256.173371
-0.3066305,-0.78918034,1.6912827,-11.172619,13.451443,8.576431,3.4682293,8.064205,4.3715405,1,1683807256.1889958
-0.08820233,-0.6478686,2.3068032,-13.011246,15.310364,9.576588,3.3892953,7.027349,5.941333,1,1683807256.204621
-0.08820233,-0.6478686,2.3068032,-11.70414,14.155598,9.26136,3.3892953,7.027349,5.941333,1,1683807256.2202475
-0.08820233,-0.6478686,2.3068032,-13.276539,15.462704,9.49995,2.9777699,9.152459,1.8803691,1,1683807256.2358704
-0.08820233,-0.6478686,2.3068032,-13.276539,15.462704,9.49995,3.2181408,8.862056,2.6977646,1,1683807256.2514958
1.4500912,0.4403747,3.3789408,-9.215698,12.242336,8.613682,1.9808722,4.06104,8.703706,1,1683807256.267122
1.4500912,0.4403747,3.3789408,9.444542,-19.814606,-9.478855,1.9473758,4.585029,8.447227,1,1683807256.2827477
1.8813363,0.50871027,0.7443512,9.444542,-19.814606,-9.478855,1.9473758,4.585029,8.447227,1,1683807256.2827477
1.683154,0.21829167,1.7664579,8.739319,-15.647221,-7.8894997,1.3222032,3.5981097,9.026393,1,1683807256.2983723
1.7512469,0.24537718,2.6599462,9.792881,-21.140804,-10.089149,4.153513,7.285753,5.082965,1,1683807256.3296201
-1.9047214,-0.67593986,-0.67900324,-9.490604,10.477276,8.036232,0.3163521,9.6888895,-1.4818002,1,1683807256.3452458
-1.9047214,-0.67593986,-0.67900324,-9.490604,10.477276,8.036232,1.0946829,9.727051,-0.5971023,1,1683807256.36087
-0.35447752,-1.3822409,2.3883176,-12.423248,13.668804,11.479168,3.456045,7.967694,4.554339,1,1683807256.3764956
3.0425558,1.8671414,-0.14890967,-0.12256622,8.151855,3.7464142,1.285433,4.0404177,8.842685,1,1683807256.438996
2.8272972,1.7690209,-0.6218901,3.4928703,-1.2619781,-2.2893715,1.3280944,4.22806,8.748146,1,1683807256.4546218
2.8272972,1.7690209,-0.6218901,3.4928703,-1.2619781,-2.2893715,3.4933927,6.1558166,6.787674,1,1683807256.5014954
2.8272972,1.7690209,-0.6218901,7.5505066,-21.011963,-10.173397,3.4933927,6.1558166,6.787674,1,1683807256.5014954
0.55293274,-0.5365844,1.6693231,6.7611694,-9.903431,-11.091576,2.8346899,9.281537,1.4099656,1,1683807256.5171216
-2.1299891,-0.5321864,0.96643424,5.91856,-6.450882,-8.276157,0.54199517,9.786522,-0.31722102,1,1683807256.5327463
-2.1299891,-0.5321864,0.96643424,5.91856,-6.450882,-8.276157,0.14854178,9.787504,-0.59421027,1,1683807256.5483718
-2.1299891,-0.5321864,0.96643424,4.101162,-2.3421097,-3.8627052,0.14854178,9.787504,-0.59421027,1,1683807256.5796206
-1.4131936,-1.2934016,0.012663161,-9.572582,13.748646,9.563904,0.9075179,9.764456,0.046867628,1,1683807256.5952473
-1.4131936,-1.2934016,0.012663161,-9.572582,13.748646,9.563904,2.8705544,8.55112,3.848201,1,1683807256.6108718
0.7096223,-0.78649604,2.706565,-13.706856,15.726929,11.530304,2.8705544,8.55112,3.848201,1,1683807256.6108718
0.829202,-0.49656275,3.1641676,-13.411789,15.75243,11.08717,3.0606596,7.5412397,5.471056,1,1683807256.6733704
0.829202,-0.49656275,3.1641676,-13.411789,15.75243,11.08717,1.3965957,4.7314773,8.475436,1,1683807256.6889966
2.692825,1.6779977,0.29161668,4.336548,-5.6742287,-2.9871178,1.3965957,4.7314773,8.475436,1,1683807256.6889966
2.4443693,0.9716967,0.66820544,6.921921,-13.33889,-6.58453,2.1058943,5.360711,7.937152,1,1683807256.7046218
2.2969608,0.3813204,2.8966792,9.457359,-21.944027,-10.648441,3.694315,7.076162,5.6965218,1,1683807256.7202463
0.74403274,-0.5680679,2.321438,8.44532,-13.178005,-11.624298,2.4926753,9.447699,0.8354422,1,1683807256.7514954
-0.8235453,-0.73305297,1.8098918,6.994419,-8.476963,-10.300102,0.45061287,9.76683,-0.7591869,1,1683807256.7671213
-1.8053876,-0.63640344,1.3422799,6.6418076,-6.0993385,-8.62236,-0.021302305,9.747545,-1.0748478,1,1683807256.7827466
-1.8053876,-0.63640344,1.3422799,-4.572201,9.929733,7.105236,-0.5688134,9.464097,-2.5055358,1,1683807256.829623
-2.7420824,-0.6698433,-1.6452252,-4.572201,9.929733,7.105236,-0.5688134,9.464097,-2.5055358,1,1683807256.829623
-1.1300848,-1.2624034,-0.04372203,-10.334282,14.200325,10.870876,1.1535667,9.658051,-1.2496965,1,1683807256.845247
1.0154186,-0.82139176,2.9384146,-14.458942,17.731781,12.484798,4.062223,7.4340277,4.940036,1,1683807256.8764956
2.3499188,0.65954596,4.5203996,-14.458942,17.731781,12.484798,4.062223,7.4340277,4.940036,1,1683807256.8921216
2.3499188,0.65954596,4.5203996,-12.905769,16.309586,11.120148,3.8922396,6.147606,6.5747857,1,1683807256.9077487
3.9677854,2.3498883,1.1184832,-3.4281158,8.404198,5.0907707,2.9194171,4.7062435,8.093125,1,1683807256.9233718
2.7265074,-0.03284839,3.6171448,9.088726,-22.304115,-12.826996,3.5780911,9.065918,1.0847998,1,1683807256.9702463
-0.26563823,-0.9014503,2.5645251,6.4351273,-10.199566,-11.51989,1.3427645,9.672996,-0.8947192,1,1683807256.9858727
-0.26563823,-0.9014503,2.5645251,6.4351273,-10.199566,-11.51989,0.24809888,9.698856,-1.428639,1,1683807257.0014982
-1.0659045,-1.0681338,2.075439,5.7172203,-7.6161957,-10.712395,0.24809888,9.698856,-1.428639,1,1683807257.0171225
-1.0659045,-1.0681338,2.075439,4.5272064,-3.0771065,-8.343182,-0.2108073,9.667071,-1.6351324,1,1683807257.0327468
-2.453605,-0.879976,1.2698041,4.5272064,-3.0771065,-8.343182,-0.2108073,9.667071,-1.6351324,1,1683807257.0327468
-2.9710052,-0.038459614,-0.85862297,3.294735,1.3723946,-3.9681816,-0.2108073,9.667071,-1.6351324,1,1683807257.0483725
-1.7258296,0.2317131,-2.0632915,-4.1205215,6.0479355,4.4856834,-0.5430618,9.511945,-2.3234386,1,1683807257.0639963
-1.1130085,-0.38405016,-0.23896219,-9.208221,9.445076,7.064781,0.84832567,9.727022,-0.91420686,1,1683807257.0796216
-1.1130085,-0.38405016,-0.23896219,-11.314278,12.0357895,8.473091,1.6166072,9.669319,0.24745813,1,1683807257.1108708
-0.5455775,-0.9431856,1.5092213,-11.798935,12.724991,9.644814,2.873195,8.862765,3.060481,1,1683807257.1421216
-0.5455775,-0.9431856,1.5092213,-11.798935,12.724991,9.644814,3.3393636,7.6531706,5.142764,1,1683807257.1577477
0.1780577,-0.6883907,2.389531,-11.798935,12.724991,9.644814,3.3393636,7.6531706,5.142764,1,1683807257.1733723
0.1780577,-0.6883907,2.389531,-11.798935,12.724991,9.644814,3.3815987,6.704021,6.308034,1,1683807257.188996
1.0105355,-0.21174018,2.9518359,-10.614395,11.712952,9.797153,3.3815987,6.704021,6.308034,1,1683807257.188996
1.6965907,-0.10215455,2.7827108,8.246117,-16.705055,-10.967007,3.984252,8.560005,2.6499903,1,1683807257.2046218
0.9734407,-0.18197039,2.719501,7.587757,-12.843552,-10.972347,2.9271472,9.310681,0.95571893,1,1683807257.2202468
-0.81841934,-0.558544,1.3976793,7.1914864,-7.731285,-9.656696,0.97149324,9.7300415,-0.74356383,1,1683807257.2671208
-2.6442196,-0.07067105,-1.1590508,4.364319,-1.751976,-4.696903,-1.5552272,9.329014,-2.5925193,1,1683807257.282748
-3.1577222,-0.23101549,-2.3986301,4.364319,-1.751976,-4.696903,-1.7164817,9.224269,-2.852533,1,1683807257.298372
-2.6569133,-0.19319282,-2.1811726,-5.7642174,7.1035004,4.6923637,-1.112891,9.414703,-2.509025,1,1683807257.3139966
-1.0558953,-1.1886992,1.5211717,-12.972927,13.848782,10.818806,2.4936407,9.021719,2.9258726,1,1683807257.3608706
-1.0558953,-1.1886992,1.5211717,-12.972927,13.848782,10.818806,3.097351,7.206745,5.885544,1,1683807257.3921213
-0.45062655,-1.3253704,2.0622602,-9.928398,12.361698,10.337219,2.9954813,6.1521287,7.0248704,1,1683807257.407749
1.1325719,-0.14316197,4.225826,-9.928398,12.361698,10.337219,2.9954813,6.1521287,7.0248704,1,1683807257.4233727
1.4930397,0.21145204,4.420823,-8.498859,12.00695,9.705563,2.1749353,4.6905713,8.332982,1,1683807257.438997
2.5136905,0.94655234,3.1563573,-3.9138412,10.677547,6.78133,2.1749353,4.6905713,8.332982,1,1683807257.4546223
2.0890274,-0.058235377,3.47876,10.366993,-23.496132,-11.599731,3.7208886,7.375377,5.2848063,1,1683807257.4702463
-1.39269,-0.99638605,1.1970706,7.7124596,-9.825592,-11.288643,0.3125502,9.751378,-0.99162596,1,1683807257.5014963
-2.8912044,-0.5934397,0.10564261,5.693722,-5.068207,-7.0957565,-1.1227958,9.563684,-1.8562496,1,1683807257.517123
-3.5953066,-0.22199205,-0.6460487,3.9137077,-2.2291565,-4.1312027,-1.7344179,9.388417,-2.2404945,1,1683807257.5327473
-3.5953066,-0.22199205,-0.6460487,-2.8411865,6.247139,3.425846,-1.699438,9.348012,-2.4283683,1,1683807257.5483723
-3.774441,-0.5395113,-2.1291854,-2.8411865,6.247139,3.425846,-1.699438,9.348012,-2.4283683,1,1683807257.5483723
-2.034083,-1.0796142,-0.3622119,-2.8411865,6.247139,3.425846,-0.009573751,9.741515,-1.1283484,1,1683807257.6108706
-2.034083,-1.0796142,-0.3622119,-5.0484467,8.330765,5.297451,2.7036994,8.651622,3.742972,1,1683807257.626496
-3.3480792,-0.5358564,-2.073786,-5.0484467,8.330765,5.297451,2.7036994,8.651622,3.742972,1,1683807257.626496
0.23125814,-1.3297684,3.327454,-15.18219,16.272335,12.376118,2.884599,8.140839,4.6450214,1,1683807257.6421213
0.7945489,-0.36354646,5.148356,-12.463703,15.439205,10.992374,2.884599,8.140839,4.6450214,1,1683807257.6577477
0.7945489,-0.36354646,5.148356,7.3651886,-6.137657,-3.0936623,2.311828,5.352434,7.885258,1,1683807257.6733716
4.7875695,2.4096706,1.210492,7.3651886,-6.137657,-3.0936623,2.311828,5.352434,7.885258,1,1683807257.6733716
4.7875695,2.4096706,1.210492,13.266659,-22.724953,-11.5262985,2.0830252,4.998542,8.175939,1,1683807257.6889956
4.7875695,2.4096706,1.210492,3.6888695,-0.029506683,0.23324966,1.8655069,4.9140954,8.279005,1,1683807257.7046204
4.7875695,2.4096706,1.210492,13.133545,-26.982727,-13.827152,2.0788343,5.2543774,8.015008,1,1683807257.7202475
3.093815,0.64075595,1.126536,13.133545,-26.982727,-13.827152,2.0788343,5.2543774,8.015008,1,1683807257.7202475
2.5634787,-0.15341382,2.6409137,13.133545,-26.982727,-13.827152,2.0788343,5.2543774,8.015008,1,1683807257.7358727
2.5634787,-0.15341382,2.6409137,13.133545,-26.982727,-13.827152,3.6719334,8.024535,4.277162,1,1683807257.7514958
2.5571244,-0.29666677,3.5146415,12.652092,-27.145748,-14.140377,3.6209643,8.497953,3.292991,1,1683807257.767122
-3.4637613,-1.2199402,1.2573533,5.3614044,-2.3048592,-8.476429,-1.2259972,9.601384,-1.5750399,1,1683807257.782748
-1.9640336,-0.22663267,-1.4475282,-3.2629585,4.2912865,5.716152,-1.8051732,9.168852,-2.9738712,1,1683807257.7983723
-1.49398,-0.6908323,-0.22968093,-3.2629585,4.2912865,5.716152,-1.8051732,9.168852,-2.9738712,1,1683807257.8139973
-0.58485603,-1.9142908,2.1208293,-7.5240707,8.77924,8.356934,1.7124884,9.6557665,-0.06277983,1,1683807257.8296218
0.6900892,-1.4342281,4.2839093,-12.723656,15.499954,13.900585,4.082694,7.33124,5.0749297,1,1683807257.845247
1.6670483,-0.6051626,5.6916285,-10.194626,14.381504,13.168659,4.158797,6.698691,5.8311515,1,1683807257.8608737
4.38341,1.2074438,3.7948081,-2.3660088,11.917496,8.630638,4.158797,6.698691,5.8311515,1,1683807257.9233716
4.552293,2.3118079,-0.6714357,-6.2937355,13.526077,11.587849,3.881679,5.0344524,7.4670773,1,1683807257.938997
4.552293,2.3118079,-0.6714357,9.392338,-21.27512,-10.961666,3.512933,5.5842075,7.255777,1,1683807257.9546204
4.552293,2.3118079,-0.6714357,9.392338,-21.27512,-10.961666,3.8811035,8.938717,1.0985279,1,1683807257.9702463
2.2278974,0.3554481,3.4509466,8.918228,-17.478504,-11.591187,3.8811035,8.938717,1.0985279,1,1683807257.9702463
2.2278974,0.3554481,3.4509466,8.605137,-15.333061,-11.806412,3.42284,9.178135,0.46517727,1,1683807257.9858727
-0.22585924,-0.810412,1.7064178,8.605137,-15.333061,-11.806412,3.42284,9.178135,0.46517727,1,1683807258.0014968
-3.065956,-0.019669605,-2.1421216,-0.810833,1.4235306,0.71790695,-1.4892677,9.223192,-2.9808052,1,1683807258.0171223
-3.065956,-0.019669605,-2.1421216,-4.413452,4.7205353,3.4737778,-1.1869496,9.335536,-2.7585006,1,1683807258.0327475
-2.6530006,-0.22931696,-2.0840378,-4.413452,4.7205353,3.4737778,-1.1869496,9.335536,-2.7585006,1,1683807258.0327475
-1.5601166,-1.0486159,0.8082888,-10.711327,10.026665,7.4493027,1.062734,9.748892,-0.009002256,1,1683807258.0639982
0.18441202,-0.86556876,2.3194969,-10.067921,8.714218,10.080471,2.637436,9.094326,2.5509934,1,1683807258.0796225
4.9135036,1.9215703,4.1089153,-9.080448,7.8780174,9.897289,4.2031846,8.010695,3.7858136,1,1683807258.1108718
1.7778472,-1.0019972,1.0525893,12.083187,-16.592236,-10.370464,3.3271384,9.224979,0.017085208,1,1683807258.1421213
0.10191191,-1.0295832,2.2218616,4.429207,-11.768627,-12.134457,-0.045656912,9.548665,-2.2341206,1,1683807258.1577482
-3.1511252,-0.78918034,1.5436318,2.784443,-1.8840218,-7.8873634,-2.2587416,9.168801,-2.6460445,1,1683807258.1889982
-1.5098431,0.4023094,-1.2918245,1.1824036,3.4465408,-0.51776886,-3.018347,8.691154,-3.3946743,1,1683807258.2046213
-1.2457669,0.5111519,-1.7933614,0.51122665,3.007679,0.2938652,-2.9199493,8.651682,-3.5766869,1,1683807258.2202475
-1.2457669,0.5111519,-1.7933614,-0.4060173,2.3332977,0.9149742,-2.786579,8.656801,-3.669491,1,1683807258.2358723
-1.3355768,0.43086594,-1.9651861,-0.4060173,2.3332977,0.9149742,-2.786579,8.656801,-3.669491,1,1683807258.2358723
-1.7673223,-0.24201044,-0.58893555,-7.00737,6.542206,5.418949,-1.3211411,9.329093,-2.7190094,1,1683807258.2671223
-1.2987248,-0.31497148,0.15811512,-9.186993,9.599552,7.1105766,-0.15468349,9.674824,-1.5950669,1,1683807258.282747
-1.2987248,-0.31497148,0.15811512,-10.163784,10.977955,8.001118,1.0811012,9.746698,-0.05891287,1,1683807258.2983718
-0.035487182,0.033288192,0.8470972,-3.60075,4.5576477,1.0854721,0.9488312,5.9750676,7.7180743,1,1683807258.3764963
0.13900663,0.05086496,0.96205145,-0.06822586,-1.5101814,-0.023498535,0.9488312,5.9750676,7.7180743,1,1683807258.4077456
0.13900663,0.05086496,0.96205145,-0.06822586,-1.5101814,-0.023498535,1.0995041,5.7903256,7.8379593,1,1683807258.4233727
0.23589876,0.11407461,1.3547307,0.43138504,-2.6223564,-0.26208878,1.0995041,5.7903256,7.8379593,1,1683807258.4389973
-0.15385361,0.31371275,1.0406237,-0.66690445,2.6698875,0.8404732,1.145577,5.670417,7.9186115,1,1683807258.4546218
0.40112647,0.6895584,1.0667386,-1.4647865,1.0038948,1.1237907,0.810094,5.3451705,8.181888,1,1683807258.4858723
0.40112647,0.6895584,1.0667386,-1.070652,0.27090073,0.8212471,0.87380433,5.1750183,8.284082,1,1683807258.5014975
0.44358978,0.7132317,1.6712794,-1.070652,0.27090073,0.8212471,0.87380433,5.1750183,8.284082,1,1683807258.5014975
0.39063197,0.6959127,1.6656682,-1.070652,0.27090073,0.8212471,0.89104825,5.1645155,8.288799,1,1683807258.517123
0.28324535,0.6646719,1.4460117,0.66677094,-0.000667572,0.04365921,0.91385806,5.2066402,8.2599125,1,1683807258.532746
0.25248978,0.66003126,1.3398383,0.66677094,-0.000667572,0.04365921,0.9127584,5.2403703,8.238675,1,1683807258.579622
0.25248978,0.66003126,1.3398383,0.8649063,0.05367279,-0.012817383,0.88953507,5.3727107,8.155556,1,1683807258.595246
0.12998317,0.67101103,0.8663725,0.71790695,0.3327179,-0.12683868,0.8208947,5.8544245,7.824464,1,1683807258.6108725
0.12998317,0.67101103,0.8663725,0.6368637,0.42430878,-0.12363434,0.8208947,5.8544245,7.824464,1,1683807258.6264982
0.12265826,0.66588515,0.68796605,0.20013809,0.588398,-0.16942978,0.80175614,5.880799,7.8066497,1,1683807258.6421227
0.0040491787,0.6070735,0.7975517,0.047798157,0.60869217,-0.16088486,0.5642235,5.976946,7.7542343,1,1683807258.6577477
0.0040491787,0.6070735,0.7975517,0.21402359,0.6022835,-0.02670288,0.4557943,5.995752,7.746845,1,1683807258.6733735
-0.03353084,0.55191666,0.8475825,0.21402359,0.6022835,-0.02670288,0.4557943,5.995752,7.746845,1,1683807258.6733735
-0.037686173,0.54971766,0.8073182,0.3717041,0.51496506,0.020160675,0.41249764,6.0200443,7.730413,1,1683807258.6889973
0.07115635,0.6070735,0.56203204,0.48879623,0.14419556,-0.199337,0.30912876,6.177039,7.610454,1,1683807258.7202494
-0.038656764,0.60023385,0.27062768,0.32377243,0.18678665,-0.2845192,0.27485865,6.2121344,7.5831547,1,1683807258.7358732
-0.07869358,0.51750624,0.7055428,0.32377243,0.18678665,-0.2845192,0.26647484,6.211595,7.583895,1,1683807258.7983723
