acc_x,acc_y,acc_z,gyr_x,gyr_y,gyr_z,grav_x,grav_y,grav_z,label,timestamp
-0.7508365,-0.40185273,0.5371655,-0.13561209,-0.42210788,-2.9965994,1.3227354,8.078278,5.4062843,1,1683969752.4525683
-1.5295404,-0.7848019,0.64796466,0.5172501,0.040011674,-0.036651913,0.8626994,8.107032,5.455996,1,1683969752.498777
-1.5295404,-0.7848019,0.64796466,1.2380711,-0.006872234,2.1610885,0.8626994,8.107032,5.455996,1,1683969752.5091543
-1.185557,-0.6389397,0.48106465,1.2380711,-0.006872234,2.1610885,0.8626994,8.107032,5.455996,1,1683969752.5193563
-1.185557,-0.6389397,0.48106465,1.2380711,-0.006872234,2.1610885,1.0344638,8.183498,5.310023,1,1683969752.534731
-1.185557,-0.6389397,0.48106465,1.7015651,-0.22296582,4.004527,1.0344638,8.183498,5.310023,1,1683969752.53986
-1.185557,-0.6389397,0.48106465,1.7015651,-0.22296582,4.004527,1.4779464,8.229741,5.1306086,1,1683969752.5705693
-0.62339,-0.4276469,0.42661023,1.7015651,-0.22296582,4.004527,1.4779464,8.229741,5.1306086,1,1683969752.5756981
-0.62339,-0.4276469,0.42661023,1.9507982,-0.33490688,5.289788,1.4779464,8.229741,5.1306086,1,1683969752.5808437
0.4265493,0.056039855,0.38447365,1.9507982,-0.33490688,5.289788,1.4779464,8.229741,5.1306086,1,1683969752.5961208
0.4265493,0.056039855,0.38447365,2.01387,-0.0,6.3632307,1.4779464,8.229741,5.1306086,1,1683969752.601216
0.4265493,0.056039855,0.38447365,2.01387,-0.0,6.3632307,2.119208,8.2121935,4.9300046,1,1683969752.6114202
1.6188749,1.045,0.15391143,2.01387,-0.0,6.3632307,2.119208,8.2121935,4.9300046,1,1683969752.626765
1.6188749,1.045,0.15391143,2.01387,-0.0,6.3632307,2.6072197,8.154004,4.7906914,1,1683969752.6370149
1.6188749,1.045,0.15391143,1.4795157,0.8859073,6.3536096,2.6072197,8.154004,4.7906914,1,1683969752.647195
1.6188749,1.045,0.15391143,0.26557365,1.4188873,5.110804,2.6072197,8.154004,4.7906914,1,1683969752.6625834
2.3437953,1.9800545,-0.16635117,0.26557365,1.4188873,5.110804,2.6072197,8.154004,4.7906914,1,1683969752.6831086
2.3437953,1.9800545,-0.16635117,0.26557365,1.4188873,5.110804,3.0407467,8.052532,4.706029,1,1683969752.693364
2.8050416,2.3967862,-0.10957957,0.26557365,1.4188873,5.110804,3.0407467,8.052532,4.706029,1,1683969752.7035663
2.8050416,2.3967862,-0.10957957,0.26557365,1.4188873,5.110804,3.3485067,7.9162607,4.7282586,1,1683969752.7240126
2.8050416,2.3967862,-0.10957957,-1.1643091,1.7679968,3.1112895,3.3485067,7.9162607,4.7282586,1,1683969752.729142
2.8050416,2.3967862,-0.10957957,-1.1643091,1.7679968,3.1112895,3.5060012,7.706819,4.9546967,1,1683969752.74452
2.8050416,2.3967862,-0.10957957,-2.2262983,1.8272507,0.6554584,3.5060012,7.706819,4.9546967,1,1683969752.754785
2.637288,2.5656376,0.11756783,-2.2262983,1.8272507,0.6554584,3.5060012,7.706819,4.9546967,1,1683969752.759917
2.637288,2.5656376,0.11756783,-2.4072673,1.409877,-0.8258898,3.5060012,7.706819,4.9546967,1,1683969752.7905872
2.136527,2.4130676,0.4007551,-2.4072673,1.409877,-0.8258898,3.5060012,7.706819,4.9546967,1,1683969752.7957184
2.136527,2.4130676,0.4007551,-2.4072673,1.409877,-0.8258898,3.447125,7.5983076,5.159376,1,1683969752.8008113
1.7369306,2.0907316,0.64820856,-2.4072673,1.409877,-0.8258898,3.447125,7.5983076,5.159376,1,1683969752.8211946
1.7369306,2.0907316,0.64820856,-2.0977113,0.8671232,-1.9497292,3.447125,7.5983076,5.159376,1,1683969752.8263283
1.7369306,2.0907316,0.64820856,-2.0977113,0.8671232,-1.9497292,3.3178272,7.525085,5.348012,1,1683969752.8365457
1.7369306,2.0907316,0.64820856,-1.3326025,0.30909783,-2.5187502,3.3178272,7.525085,5.348012,1,1683969752.8519378
1.7369306,2.0907316,0.64820856,-1.3326025,0.30909783,-2.5187502,3.155627,7.491209,5.4918036,1,1683969752.8621948
1.3794707,1.747663,0.77339876,-1.3326025,0.30909783,-2.5187502,3.155627,7.491209,5.4918036,1,1683969752.867285
1.3794707,1.747663,0.77339876,-1.3326025,0.30909783,-2.5187502,2.975262,7.4991784,5.5808835,1,1683969752.882674
1.2026922,1.5261866,0.7003457,-1.3326025,0.30909783,-2.5187502,2.975262,7.4991784,5.5808835,1,1683969752.8878047
1.2026922,1.5261866,0.7003457,-0.70066243,-0.034055736,-2.9856038,2.975262,7.4991784,5.5808835,1,1683969752.9031184
1.0301211,1.1673242,0.5066149,-0.70066243,-0.034055736,-2.9856038,2.975262,7.4991784,5.5808835,1,1683969752.9235065
1.0301211,1.1673242,0.5066149,-0.70066243,-0.034055736,-2.9856038,2.780533,7.545436,5.61882,1,1683969752.9337702
1.0301211,1.1673242,0.5066149,-0.16279559,-0.45097128,-3.618613,2.780533,7.545436,5.61882,1,1683969752.9440267
1.0301211,1.1673242,0.5066149,-0.013439035,-0.7968737,-4.1187587,2.780533,7.545436,5.61882,1,1683969752.9645367
0.8052909,0.80712026,0.37453404,-0.013439035,-0.7968737,-4.1187587,2.780533,7.545436,5.61882,1,1683969752.9696665
0.8052909,0.80712026,0.37453404,-0.013439035,-0.7968737,-4.1187587,2.454122,7.66359,5.610952,1,1683969752.9799266
0.48289403,0.42868355,0.3460568,-0.013439035,-0.7968737,-4.1187587,2.454122,7.66359,5.610952,1,1683969752.9952753
0.48289403,0.42868355,0.3460568,-0.013439035,-0.7968737,-4.1187587,2.2148798,7.751212,5.590092,1,1683969753.0003688
0.48289403,0.42868355,0.3460568,-0.051923547,-1.0968086,-4.471228,2.2148798,7.751212,5.590092,1,1683969753.0106184
0.03158721,-0.0086590415,0.438989,-0.051923547,-1.0968086,-4.471228,2.2148798,7.751212,5.590092,1,1683969753.0311046
0.03158721,-0.0086590415,0.438989,-0.051923547,-1.0968086,-4.471228,1.9626178,7.824754,5.5818872,1,1683969753.03624
0.03158721,-0.0086590415,0.438989,-0.23854288,-1.3197744,-4.576144,1.9626178,7.824754,5.5818872,1,1683969753.041372
0.03158721,-0.0086590415,0.438989,-0.3848451,-1.350623,-4.3230934,1.9626178,7.824754,5.5818872,1,1683969753.0618913
0.03158721,-0.0086590415,0.438989,-0.3848451,-1.350623,-4.3230934,1.6985598,7.8745117,5.598488,1,1683969753.0721471
-0.35355723,-0.32501897,0.59790075,-0.3848451,-1.350623,-4.3230934,1.6985598,7.8745117,5.598488,1,1683969753.0875487
-0.35355723,-0.32501897,0.59790075,-0.3848451,-1.350623,-4.3230934,1.4476041,7.903941,5.6274567,1,1683969753.0977778
-0.35355723,-0.32501897,0.59790075,-0.38591412,-1.2110404,-3.5051448,1.4476041,7.903941,5.6274567,1,1683969753.1029098
-0.84267116,-0.6910769,0.8729778,-0.38591412,-1.2110404,-3.5051448,1.4476041,7.903941,5.6274567,1,1683969753.1233566
-1.2353159,-0.87999034,1.0842706,-0.38591412,-1.2110404,-3.5051448,1.4476041,7.903941,5.6274567,1,1683969753.12849
-1.2353159,-0.87999034,1.0842706,-0.12644911,-0.93584555,-2.4242187,1.4476041,7.903941,5.6274567,1,1683969753.1438801
-1.2353159,-0.87999034,1.0842706,-0.12644911,-0.93584555,-2.4242187,1.1483166,7.9212446,5.6719813,1,1683969753.1490135
-1.518869,-0.9117605,1.188301,-0.12644911,-0.93584555,-2.4242187,1.1483166,7.9212446,5.6719813,1,1683969753.1694744
-1.518869,-0.9117605,1.188301,0.36086863,-0.58032197,-1.0567969,1.1483166,7.9212446,5.6719813,1,1683969753.1797347
-1.518869,-0.9117605,1.188301,0.36086863,-0.58032197,-1.0567969,1.0301082,7.932447,5.6790195,1,1683969753.1951246
-1.518869,-0.9117605,1.188301,0.36086863,-0.58032197,-1.0567969,1.0014981,7.9427447,5.669739,1,1683969753.200258
-1.6269851,-0.87931955,1.150311,0.36086863,-0.58032197,-1.0567969,1.0014981,7.9427447,5.669739,1,1683969753.2105048
-1.6269851,-0.87931955,1.150311,0.9624182,-0.2565634,0.45662177,1.0014981,7.9427447,5.669739,1,1683969753.2309556
-1.6269851,-0.87931955,1.150311,1.6668985,0.028252518,2.4524713,1.0014981,7.9427447,5.669739,1,1683969753.2463012
-1.5686891,-0.83767086,1.0018877,1.6668985,0.028252518,2.4524713,1.0014981,7.9427447,5.669739,1,1683969753.251425
-1.5686891,-0.83767086,1.0018877,1.6668985,0.028252518,2.4524713,1.0557718,7.998718,5.5804996,1,1683969753.2668192
-1.5686891,-0.83767086,1.0018877,2.2133174,0.23411411,4.3467646,1.0557718,7.998718,5.5804996,1,1683969753.2719433
-0.9917042,-0.5615572,0.6940649,2.2133174,0.23411411,4.3467646,1.0557718,7.998718,5.5804996,1,1683969753.2873003
-0.9917042,-0.5615572,0.6940649,2.2133174,0.23411411,4.3467646,1.2229782,8.049789,5.4718676,1,1683969753.3026814
-0.20098734,-0.20092636,0.5538738,2.2133174,0.23411411,4.3467646,1.2229782,8.049789,5.4718676,1,1683969753.3231437
-0.20098734,-0.20092636,0.5538738,2.2133174,0.23411411,4.3467646,1.665563,8.11094,5.260671,1,1683969753.3282394
-0.20098734,-0.20092636,0.5538738,2.4168882,0.6049093,5.4782395,1.665563,8.11094,5.260671,1,1683969753.3385024
0.7213226,0.36203334,0.3427639,2.4168882,0.6049093,5.4782395,1.665563,8.11094,5.260671,1,1683969753.3487625
0.7213226,0.36203334,0.3427639,2.4168882,0.6049093,5.4782395,2.0561516,8.117661,5.1099825,1,1683969753.3538644
0.7213226,0.36203334,0.3427639,2.1789563,1.5273159,6.0628376,2.0561516,8.117661,5.1099825,1,1683969753.3641238
0.7213226,0.36203334,0.3427639,1.4010195,1.8626808,5.486028,2.0561516,8.117661,5.1099825,1,1683969753.3897285
1.7967511,1.5108808,-0.22836697,1.4010195,1.8626808,5.486028,2.0561516,8.117661,5.1099825,1,1683969753.4050806
1.7967511,1.5108808,-0.22836697,1.4010195,1.8626808,5.486028,2.4445024,8.091127,4.979376,1,1683969753.4102104
2.3646502,2.2258615,-0.42398816,1.4010195,1.8626808,5.486028,2.4445024,8.091127,4.979376,1,1683969753.4306173
2.3646502,2.2258615,-0.42398816,1.4010195,1.8626808,5.486028,2.7667496,8.025829,4.916022,1,1683969753.4357471
2.3646502,2.2258615,-0.42398816,0.25610524,1.5685493,3.8547125,2.7667496,8.025829,4.916022,1,1683969753.4408796
2.3646502,2.2258615,-0.42398816,0.25610524,1.5685493,3.8547125,3.0390775,7.9030094,4.9540462,1,1683969753.4511445
2.3646502,2.2258615,-0.42398816,-0.65408397,0.81504697,1.4011722,3.0390775,7.9030094,4.9540462,1,1683969753.456281
2.6223483,2.4862425,-0.2338551,-0.65408397,0.81504697,1.4011722,3.0390775,7.9030094,4.9540462,1,1683969753.466544
2.3076956,2.556064,0.11762882,-0.65408397,0.81504697,1.4011722,3.0390775,7.9030094,4.9540462,1,1683969753.4870167
2.3076956,2.556064,0.11762882,-0.8014552,-0.053450707,-0.2753475,3.0390775,7.9030094,4.9540462,1,1683969753.4921484
2.3076956,2.556064,0.11762882,-0.8014552,-0.053450707,-0.2753475,3.0860023,7.8502684,5.008593,1,1683969753.507536
1.8553522,2.345259,0.5302139,-0.8014552,-0.053450707,-0.2753475,3.0860023,7.8502684,5.008593,1,1683969753.5228465
1.8553522,2.345259,0.5302139,-0.57558775,-0.7816021,-1.6723963,3.0860023,7.8502684,5.008593,1,1683969753.5279472
1.8553522,2.345259,0.5302139,-0.57558775,-0.7816021,-1.6723963,3.0593348,7.837545,5.0447474,1,1683969753.5483546
1.8553522,2.345259,0.5302139,-0.3735441,-0.9060659,-2.1768184,3.0593348,7.837545,5.0447474,1,1683969753.5983598
1.5100272,2.004934,0.64375705,-0.3735441,-0.9060659,-2.1768184,3.0593348,7.837545,5.0447474,1,1683969753.6035578
1.5100272,2.004934,0.64375705,-0.3735441,-0.9060659,-2.1768184,3.0258565,7.8452563,5.052945,1,1683969753.6087253
1.232084,1.7424186,0.65296495,-0.3735441,-0.9060659,-2.1768184,3.0258565,7.8452563,5.052945,1,1683969753.613854
1.232084,1.7424186,0.65296495,-0.3735441,-0.9060659,-2.1768184,2.8634143,7.909982,5.046697,1,1683969753.6189845
1.232084,1.7424186,0.65296495,-0.12232576,-0.838718,-2.7015514,2.8634143,7.909982,5.046697,1,1683969753.6240933
1.0090833,1.448926,0.5149081,-0.12232576,-0.838718,-2.7015514,2.8634143,7.909982,5.046697,1,1683969753.6547477
1.0090833,1.448926,0.5149081,-0.12232576,-0.838718,-2.7015514,2.7120504,7.9742107,5.029202,1,1683969753.6598735
1.0090833,1.448926,0.5149081,-0.07391469,-0.6898196,-3.0399709,2.7120504,7.9742107,5.029202,1,1683969753.680314
1.0090833,1.448926,0.5149081,-0.07391469,-0.6898196,-3.0399709,2.422462,8.077888,5.011539,1,1683969753.6957035
1.0090833,1.448926,0.5149081,-0.28328875,-0.52763486,-3.4968982,2.422462,8.077888,5.011539,1,1683969753.7008364
0.7873021,1.0337799,0.32154313,-0.28328875,-0.52763486,-3.4968982,2.422462,8.077888,5.011539,1,1683969753.7161877
0.7873021,1.0337799,0.32154313,-0.28328875,-0.52763486,-3.4968982,2.191219,8.135946,5.0240464,1,1683969753.731535
0.42734203,0.5775947,0.24605095,-0.28328875,-0.52763486,-3.4968982,2.191219,8.135946,5.0240464,1,1683969753.7417285
0.42734203,0.5775947,0.24605095,-0.28328875,-0.52763486,-3.4968982,1.0865011,8.087017,5.445712,1,1683969753.7519712
0.42734203,0.5775947,0.24605095,-1.1505647,0.03970624,-2.083356,1.0865011,8.087017,5.445712,1,1683969753.7571025
-1.0365849,-0.58180225,0.971825,-1.1505647,0.03970624,-2.083356,1.0865011,8.087017,5.445712,1,1683969753.7622359
-1.0365849,-0.58180225,0.971825,-1.1505647,0.03970624,-2.083356,0.9353088,8.043846,5.5369544,1,1683969753.7878392
-1.287941,-0.6893695,1.0961006,-1.1505647,0.03970624,-2.083356,0.9353088,8.043846,5.5369544,1,1683969753.7981193
-1.287941,-0.6893695,1.0961006,-0.6452264,0.34284812,-0.95340794,0.9353088,8.043846,5.5369544,1,1683969753.8083153
-1.287941,-0.6893695,1.0961006,0.023518313,0.5925393,0.3202461,0.9353088,8.043846,5.5369544,1,1683969753.8287973
-1.287941,-0.6893695,1.0961006,0.023518313,0.5925393,0.3202461,0.88579667,8.02782,5.5682664,1,1683969753.8389807
-1.3981303,-0.70717543,1.0804899,0.023518313,0.5925393,0.3202461,0.88579667,8.02782,5.5682664,1,1683969753.8440578
-1.4222782,-0.699614,0.93456674,0.023518313,0.5925393,0.3202461,0.88579667,8.02782,5.5682664,1,1683969753.8645668
-1.4222782,-0.699614,0.93456674,0.023518313,0.5925393,0.3202461,0.85937864,8.016388,5.5888367,1,1683969753.869697
-1.4222782,-0.699614,0.93456674,0.9231701,0.6382015,1.984243,0.85937864,8.016388,5.5888367,1,1683969753.8850844
-1.2349502,-0.61387724,0.71315134,0.9231701,0.6382015,1.984243,0.85937864,8.016388,5.5888367,1,1683969753.9003935
-1.2349502,-0.61387724,0.71315134,1.5758796,0.57757306,3.352123,0.85937864,8.016388,5.5888367,1,1683969753.9106176
-1.2349502,-0.61387724,0.71315134,1.5758796,0.57757306,3.352123,0.9605888,8.04058,5.5373697,1,1683969753.9157522
-1.2349502,-0.61387724,0.71315134,1.5758796,0.57757306,3.352123,1.3029176,8.099692,5.3789854,1,1683969753.925976
-0.58411944,-0.3386783,0.49539477,1.5758796,0.57757306,3.352123,1.3029176,8.099692,5.3789854,1,1683969753.9463341
-0.58411944,-0.3386783,0.49539477,2.1103866,0.6282749,4.851797,1.3029176,8.099692,5.3789854,1,1683969753.956585
-0.58411944,-0.3386783,0.49539477,2.1131356,1.0957395,5.726709,1.3029176,8.099692,5.3789854,1,1683969753.9668415
-0.58411944,-0.3386783,0.49539477,2.1131356,1.0957395,5.726709,1.6410762,8.123113,5.249573,1,1683969753.9873295
0.41965863,0.19677977,0.24800226,2.1131356,1.0957395,5.726709,1.6410762,8.123113,5.249573,1,1683969753.9924636
0.41965863,0.19677977,0.24800226,1.6010778,1.3542882,5.652947,1.6410762,8.123113,5.249573,1,1683969754.0026877
1.2512925,0.9340179,-0.118604474,1.6010778,1.3542882,5.652947,1.6410762,8.123113,5.249573,1,1683969754.0078185
2.2803159,2.3906884,-0.18623038,1.6010778,1.3542882,5.652947,1.6410762,8.123113,5.249573,1,1683969754.0385606
2.2803159,2.3906884,-0.18623038,1.6010778,1.3542882,5.652947,2.825914,7.934575,5.0291996,1,1683969754.0436864
2.2803159,2.3906884,-0.18623038,-0.61193424,1.3396275,1.1110111,2.825914,7.934575,5.0291996,1,1683969754.048822
2.2803159,2.3906884,-0.18623038,-0.90087354,0.40607268,-0.58200186,2.825914,7.934575,5.0291996,1,1683969754.0744786
1.9153557,2.3261724,0.017196124,-0.90087354,0.40607268,-0.58200186,2.825914,7.934575,5.0291996,1,1683969754.0796046
1.9153557,2.3261724,0.017196124,-0.90087354,0.40607268,-0.58200186,2.832251,7.8888597,5.097094,1,1683969754.0898757
1.9153557,2.3261724,0.017196124,-0.7997753,-0.1872302,-1.4848607,2.832251,7.8888597,5.097094,1,1683969754.0950077
1.5672256,2.0896952,0.2816018,-0.7997753,-0.1872302,-1.4848607,2.832251,7.8888597,5.097094,1,1683969754.1001375
1.5672256,2.0896952,0.2816018,-0.7997753,-0.1872302,-1.4848607,2.7798676,7.867447,5.158656,1,1683969754.1103578
1.5672256,2.0896952,0.2816018,-0.7997753,-0.1872302,-1.4848607,2.6899295,7.8714767,5.2000246,1,1683969754.1360078
1.3516033,1.9066967,0.4063042,-0.7997753,-0.1872302,-1.4848607,2.6899295,7.8714767,5.2000246,1,1683969754.1513548
1.3516033,1.9066967,0.4063042,-0.6426302,-0.45677447,-1.9561433,2.6899295,7.8714767,5.2000246,1,1683969754.1616125
1.3516033,1.9066967,0.4063042,-0.6426302,-0.45677447,-1.9561433,2.5706923,7.897353,5.2210608,1,1683969754.1821213
1.3516033,1.9066967,0.4063042,-0.4071417,-0.5737552,-2.5153904,2.5706923,7.897353,5.2210608,1,1683969754.1871848
1.0900636,1.6177163,0.43844023,-0.4071417,-0.5737552,-2.5153904,2.5706923,7.897353,5.2210608,1,1683969754.1974397
1.0900636,1.6177163,0.43844023,-0.4071417,-0.5737552,-2.5153904,2.3396041,7.960457,5.2338767,1,1683969754.2179463
0.8965157,1.2957463,0.29050475,-0.4071417,-0.5737552,-2.5153904,2.3396041,7.960457,5.2338767,1,1683969754.2230835
0.8965157,1.2957463,0.29050475,-0.41248676,-0.548557,-2.9594893,2.3396041,7.960457,5.2338767,1,1683969754.2282128
0.670222,0.91907805,0.16086306,-0.41248676,-0.548557,-2.9594893,2.3396041,7.960457,5.2338767,1,1683969754.238475
0.670222,0.91907805,0.16086306,-0.41248676,-0.548557,-2.9594893,2.1526723,8.00294,5.2492924,1,1683969754.2538528
0.670222,0.91907805,0.16086306,-0.7338019,-0.54534996,-3.3846517,2.1526723,8.00294,5.2492924,1,1683969754.2589772
0.670222,0.91907805,0.16086306,-1.1510228,-0.54718256,-3.6370916,2.1526723,8.00294,5.2492924,1,1683969754.289691
0.670222,0.91907805,0.16086306,-1.1510228,-0.54718256,-3.6370916,1.9418398,8.031862,5.287206,1,1683969754.2948189
0.670222,0.91907805,0.16086306,-1.3419182,-0.56153786,-2.5621216,1.9418398,8.031862,5.287206,1,1683969754.3153055
0.670222,0.91907805,0.16086306,-1.3419182,-0.56153786,-2.5621216,1.0468118,7.378021,6.380055,1,1683969754.3255687
-0.62564623,-0.35428897,1.0704283,-1.3419182,-0.56153786,-2.5621216,1.0468118,7.378021,6.380055,1,1683969754.3358223
-0.62564623,-0.35428897,1.0704283,-0.82924956,-0.37415496,-1.8196149,1.0468118,7.378021,6.380055,1,1683969754.356302
-0.62564623,-0.35428897,1.0704283,-0.82924956,-0.37415496,-1.8196149,0.89747906,7.311416,6.478722,1,1683969754.361455
-0.8852955,-0.550215,1.2578174,-0.82924956,-0.37415496,-1.8196149,0.89747906,7.311416,6.478722,1,1683969754.3717096
-0.8852955,-0.550215,1.2578174,-0.82924956,-0.37415496,-1.8196149,0.78883064,7.26705,6.542465,1,1683969754.3767908
-1.0343896,-0.6281464,1.3501397,-0.82924956,-0.37415496,-1.8196149,0.78883064,7.26705,6.542465,1,1683969754.387045
-1.0343896,-0.6281464,1.3501397,-0.25457808,-0.26358834,-1.097114,0.78883064,7.26705,6.542465,1,1683969754.3972943
-1.0343896,-0.6281464,1.3501397,0.9266826,-0.19501872,0.26083946,0.78883064,7.26705,6.542465,1,1683969754.428064
-1.2065338,-0.64851344,1.3278824,0.9266826,-0.19501872,0.26083946,0.78883064,7.26705,6.542465,1,1683969754.4383247
-1.2065338,-0.64851344,1.3278824,0.9266826,-0.19501872,0.26083946,0.7370594,7.2626934,6.553331,1,1683969754.4434507
-1.2065338,-0.64851344,1.3278824,0.9266826,-0.19501872,0.26083946,0.79614156,7.3500323,6.4482007,1,1683969754.4485786
-1.2065338,-0.64851344,1.3278824,2.1630738,-0.31429017,1.7725782,0.79614156,7.3500323,6.4482007,1,1683969754.458837
-1.2281204,-0.6018644,1.1634825,2.1630738,-0.31429017,1.7725782,0.79614156,7.3500323,6.4482007,1,1683969754.463977
-0.95383614,-0.47142997,0.8146207,2.1630738,-0.31429017,1.7725782,0.79614156,7.3500323,6.4482007,1,1683969754.5049744
-0.95383614,-0.47142997,0.8146207,3.14168,-0.40851614,3.3194418,0.79614156,7.3500323,6.4482007,1,1683969754.510105
-0.95383614,-0.47142997,0.8146207,3.14168,-0.40851614,3.3194418,0.94444585,7.4640093,6.2954516,1,1683969754.5151887
-0.95383614,-0.47142997,0.8146207,3.5753944,-0.32345316,4.366923,0.94444585,7.4640093,6.2954516,1,1683969754.5305755
-0.41136545,-0.21824445,0.60405964,3.5753944,-0.32345316,4.366923,0.94444585,7.4640093,6.2954516,1,1683969754.5357056
-0.41136545,-0.21824445,0.60405964,3.5753944,-0.32345316,4.366923,1.1815022,7.598968,6.0906363,1,1683969754.5511014
-0.41136545,-0.21824445,0.60405964,3.5888333,0.19990565,5.0842314,1.1815022,7.598968,6.0906363,1,1683969754.5613472
1.378861,1.082929,-0.10811607,3.5888333,0.19990565,5.0842314,1.1815022,7.598968,6.0906363,1,1683969754.5869946
1.378861,1.082929,-0.10811607,3.5888333,0.19990565,5.0842314,2.2987962,7.8530464,5.4112196,1,1683969754.597243
1.378861,1.082929,-0.10811607,2.437047,1.764637,5.33377,2.2987962,7.8530464,5.4112196,1,1683969754.6075017
1.378861,1.082929,-0.10811607,1.2762502,1.678505,3.86357,2.2987962,7.8530464,5.4112196,1,1683969754.622929
2.0862193,2.063657,-0.38307112,1.2762502,1.678505,3.86357,2.2987962,7.8530464,5.4112196,1,1683969754.6280248
2.0862193,2.063657,-0.38307112,1.2762502,1.678505,3.86357,2.5869493,7.8493867,5.284972,1,1683969754.6382349
2.2586074,2.280011,-0.48240623,1.2762502,1.678505,3.86357,2.5869493,7.8493867,5.284972,1,1683969754.6587064
2.2586074,2.280011,-0.48240623,0.79443026,1.5792394,3.0343204,2.5869493,7.8493867,5.284972,1,1683969754.6740568
2.2586074,2.280011,-0.48240623,0.79443026,1.5792394,3.0343204,2.6995075,7.8366027,5.2475166,1,1683969754.679185
2.1412833,2.4603875,-0.4414282,0.79443026,1.5792394,3.0343204,2.6995075,7.8366027,5.2475166,1,1683969754.7048335
2.1412833,2.4603875,-0.4414282,-0.6000224,0.7846564,0.15241088,2.6995075,7.8366027,5.2475166,1,1683969754.709962
2.1412833,2.4603875,-0.4414282,-0.6000224,0.7846564,0.15241088,2.8770642,7.7857275,5.228868,1,1683969754.720218
1.8789511,2.367577,-0.24025792,-0.6000224,0.7846564,0.15241088,2.8770642,7.7857275,5.228868,1,1683969754.7304783
1.8789511,2.367577,-0.24025792,-0.9764681,0.39736784,-0.7872526,2.8770642,7.7857275,5.228868,1,1683969754.7407346
1.8789511,2.367577,-0.24025792,-0.9764681,0.39736784,-0.7872526,2.8766122,7.7567587,5.271995,1,1683969754.7561266
1.4757568,2.0557299,0.082199916,-0.9764681,0.39736784,-0.7872526,2.8766122,7.7567587,5.271995,1,1683969754.7817714
1.4757568,2.0557299,0.082199916,-1.2846496,-0.0009162979,-1.8399261,2.8766122,7.7567587,5.271995,1,1683969754.786861
1.4757568,2.0557299,0.082199916,-1.2846496,-0.0009162979,-1.8399261,2.8090644,7.7356315,5.339033,1,1683969754.791998
1.2143391,1.7301619,0.30544463,-1.2846496,-0.0009162979,-1.8399261,2.8090644,7.7356315,5.339033,1,1683969754.8073554
1.2143391,1.7301619,0.30544463,-1.2846496,-0.0009162979,-1.8399261,2.6278744,7.7166286,5.457475,1,1683969754.8176146
1.2143391,1.7301619,0.30544463,-1.3697126,-0.16722436,-2.4312437,2.6278744,7.7166286,5.457475,1,1683969754.8227432
1.0049367,1.4788058,0.36764342,-1.3697126,-0.16722436,-2.4312437,2.6278744,7.7166286,5.457475,1,1683969754.8381243
1.0049367,1.4788058,0.36764342,-1.3880385,-0.13561209,-2.773023,2.6278744,7.7166286,5.457475,1,1683969754.8534157
0.4549046,0.4042919,0.20117027,-1.3880385,-0.13561209,-2.773023,2.6278744,7.7166286,5.457475,1,1683969754.8636186
0.4549046,0.4042919,0.20117027,2.826779,0.657291,4.893489,2.6278744,7.7166286,5.457475,1,1683969754.873873
0.4549046,0.4042919,0.20117027,2.826779,0.657291,4.893489,1.6815192,7.685194,5.8605795,1,1683969754.894388
0.4549046,0.4042919,0.20117027,2.826779,0.657291,4.893489,2.001359,7.7480197,5.674405,1,1683969754.9149106
1.0983567,1.0893319,-0.24964872,2.826779,0.657291,4.893489,2.001359,7.7480197,5.674405,1,1683969754.92
1.0983567,1.0893319,-0.24964872,2.2832615,0.79351395,4.709313,2.001359,7.7480197,5.674405,1,1683969754.9251313
1.0983567,1.0893319,-0.24964872,2.2832615,0.79351395,4.709313,2.2933462,7.768393,5.534324,1,1683969754.9455752
1.0983567,1.0893319,-0.24964872,1.1539245,0.5884159,3.5399642,2.2933462,7.768393,5.534324,1,1683969754.9507048
1.8302287,1.9513334,-0.46027076,1.1539245,0.5884159,3.5399642,2.2933462,7.768393,5.534324,1,1683969754.96094
1.8302287,1.9513334,-0.46027076,0.21090123,0.52748215,2.1137464,2.2933462,7.768393,5.534324,1,1683969754.9762504
1.8302287,1.9513334,-0.46027076,0.21090123,0.52748215,2.1137464,2.518174,7.752946,5.457722,1,1683969754.9916232
2.0829265,2.30922,-0.44276974,0.21090123,0.52748215,2.1137464,2.518174,7.752946,5.457722,1,1683969754.9967544
2.0829265,2.30922,-0.44276974,-0.6403395,0.4036292,0.71883565,2.518174,7.752946,5.457722,1,1683969755.012125
2.0829265,2.30922,-0.44276974,-0.6403395,0.4036292,0.71883565,2.6455457,7.718259,5.446621,1,1683969755.0275054
2.007983,2.4010546,-0.316116,-0.6403395,0.4036292,0.71883565,2.6455457,7.718259,5.446621,1,1683969755.0326364
1.7256494,2.3231232,-0.009573729,-0.6403395,0.4036292,0.71883565,2.6455457,7.718259,5.446621,1,1683969755.0480382
1.7256494,2.3231232,-0.009573729,-0.6403395,0.4036292,0.71883565,2.681863,7.6737714,5.491535,1,1683969755.0531662
1.7256494,2.3231232,-0.009573729,-1.3854424,0.2843578,-0.59757894,2.681863,7.6737714,5.491535,1,1683969755.0684373
1.4790497,2.148113,0.1923283,-1.3854424,0.2843578,-0.59757894,2.681863,7.6737714,5.491535,1,1683969755.0735452
1.4790497,2.148113,0.1923283,-1.7687603,0.21884248,-1.5192219,2.681863,7.6737714,5.491535,1,1683969755.078673
1.4790497,2.148113,0.1923283,-1.7687603,0.21884248,-1.5192219,2.6089048,7.598568,5.6295195,1,1683969755.0838153
1.4790497,2.148113,0.1923283,-1.7687603,0.21884248,-1.5192219,2.499961,7.5476303,5.7462683,1,1683969755.11457
1.2511706,1.8744996,0.39801103,-1.7687603,0.21884248,-1.5192219,2.499961,7.5476303,5.7462683,1,1683969755.119689
1.2511706,1.8744996,0.39801103,-0.9445504,0.3744604,0.7806858,2.499961,7.5476303,5.7462683,1,1683969755.1402156
1.2511706,1.8744996,0.39801103,-1.5569428,0.21456642,-0.54443365,2.499961,7.5476303,5.7462683,1,1683969755.1708753
1.2511706,1.8744996,0.39801103,-1.5569428,0.21456642,-0.54443365,2.45226,7.703473,5.556891,1,1683969755.1759977
1.6174724,2.213178,0.15037462,-1.5569428,0.21456642,-0.54443365,2.45226,7.703473,5.556891,1,1683969755.18113
1.2773916,1.9449306,0.45417285,-1.5569428,0.21456642,-0.54443365,2.45226,7.703473,5.556891,1,1683969755.1964254
1.2773916,1.9449306,0.45417285,-1.5569428,0.21456642,-0.54443365,2.3683834,7.61264,5.716167,1,1683969755.2117789
1.2773916,1.9449306,0.45417285,-1.6872098,0.1965459,-1.4210253,2.3683834,7.61264,5.716167,1,1683969755.2169032
1.0521955,1.7057703,0.5687527,-1.6872098,0.1965459,-1.4210253,2.3683834,7.61264,5.716167,1,1683969755.2271614
1.0521955,1.7057703,0.5687527,-1.5497651,0.13316862,-1.8762726,2.3683834,7.61264,5.716167,1,1683969755.2425454
1.0521955,1.7057703,0.5687527,-1.5497651,0.13316862,-1.8762726,2.2587442,7.5628757,5.825555,1,1683969755.2579188
1.0521955,1.7057703,0.5687527,-1.5497651,0.13316862,-1.8762726,2.124291,7.5271564,5.9216065,1,1683969755.2630143
1.0521955,1.7057703,0.5687527,-1.3098478,0.029168816,-2.2403483,2.124291,7.5271564,5.9216065,1,1683969755.2681015
0.740592,1.0876855,0.51722527,-1.3098478,0.029168816,-2.2403483,2.124291,7.5271564,5.9216065,1,1683969755.3141723
0.740592,1.0876855,0.51722527,-1.3098478,0.029168816,-2.2403483,1.9739933,7.5065355,5.9992833,1,1683969755.3192654
0.740592,1.0876855,0.51722527,-1.0320568,-0.20845777,-2.6462681,1.9739933,7.5065355,5.9992833,1,1683969755.324398
0.740592,1.0876855,0.51722527,-0.87995136,-0.47723848,-2.9222267,1.9739933,7.5065355,5.9992833,1,1683969755.334658
0.740592,1.0876855,0.51722527,-0.87995136,-0.47723848,-2.9222267,1.814782,7.4981084,6.059789,1,1683969755.3397875
0.5719236,0.804986,0.48307696,-0.87995136,-0.47723848,-2.9222267,1.814782,7.4981084,6.059789,1,1683969755.34491
0.5719236,0.804986,0.48307696,-0.8005389,-0.8136725,-3.1178563,1.814782,7.4981084,6.059789,1,1683969755.3704317
0.5719236,0.804986,0.48307696,-0.8005389,-0.8136725,-3.1178563,1.6521329,7.495866,6.1088915,1,1683969755.3755262
0.35081315,0.49027252,0.4744179,-0.8005389,-0.8136725,-3.1178563,1.6521329,7.495866,6.1088915,1,1683969755.380615
0.14580119,0.2643447,0.5067369,-0.8005389,-0.8136725,-3.1178563,1.6521329,7.495866,6.1088915,1,1683969755.4011173
0.14580119,0.2643447,0.5067369,-0.8081747,-0.99173975,-3.106097,1.6521329,7.495866,6.1088915,1,1683969755.4062505
-0.11079915,-0.057503358,0.5428975,-0.8081747,-0.99173975,-3.106097,1.6521329,7.495866,6.1088915,1,1683969755.4215899
-0.11079915,-0.057503358,0.5428975,2.737898,0.41141775,4.0646973,1.6521329,7.495866,6.1088915,1,1683969755.431842
-0.11079915,-0.057503358,0.5428975,2.737898,0.41141775,4.0646973,0.9644858,7.474699,6.27971,1,1683969755.4369721
-0.11079915,-0.057503358,0.5428975,2.737898,0.41141775,4.0646973,1.0931935,7.527878,6.1945224,1,1683969755.4574466
-0.11079915,-0.057503358,0.5428975,2.7041478,0.5804747,4.3343945,1.0931935,7.527878,6.1945224,1,1683969755.467681
0.30306646,0.3047129,0.33178765,2.7041478,0.5804747,4.3343945,1.0931935,7.527878,6.1945224,1,1683969755.4727714
0.30306646,0.3047129,0.33178765,2.2676845,0.56062156,4.2174134,1.0931935,7.527878,6.1945224,1,1683969755.4931972
0.30306646,0.3047129,0.33178765,2.2676845,0.56062156,4.2174134,1.5167431,7.6684966,5.927035,1,1683969755.4983287
0.960239,1.0310968,0.030550564,2.2676845,0.56062156,4.2174134,1.5167431,7.6684966,5.927035,1,1683969755.513708
0.960239,1.0310968,0.030550564,1.5725199,0.4476115,3.4003813,1.5167431,7.6684966,5.927035,1,1683969755.5393052
0.960239,1.0310968,0.030550564,1.5725199,0.4476115,3.4003813,1.7869523,7.723833,5.7780023,1,1683969755.5444348
1.5275282,1.7398577,-0.03146525,1.5725199,0.4476115,3.4003813,1.7869523,7.723833,5.7780023,1,1683969755.5495672
1.5275282,1.7398577,-0.03146525,0.8894198,0.4025602,2.096184,1.7869523,7.723833,5.7780023,1,1683969755.5598269
1.8683406,2.212751,-0.11354321,0.8894198,0.4025602,2.096184,1.7869523,7.723833,5.7780023,1,1683969755.57004
1.8683406,2.212751,-0.11354321,0.8894198,0.4025602,2.096184,2.095972,7.758573,5.6256156,1,1683969755.5751288
1.8683406,2.212751,-0.11354321,0.31719178,0.27550024,0.91751957,2.095972,7.758573,5.6256156,1,1683969755.5956006
1.9217584,2.403067,-0.11616532,0.31719178,0.27550024,0.91751957,2.095972,7.758573,5.6256156,1,1683969755.6058555
1.9217584,2.403067,-0.11616532,0.31719178,0.27550024,0.91751957,2.210993,7.7658405,5.5712953,1,1683969755.6161232
1.9217584,2.403067,-0.11616532,-0.3652974,0.19608775,-0.4436409,2.210993,7.7658405,5.5712953,1,1683969755.631528
1.7688228,2.394713,-0.047258858,-0.3652974,0.19608775,-0.4436409,2.210993,7.7658405,5.5712953,1,1683969755.6417794
1.7688228,2.394713,-0.047258858,-0.3652974,0.19608775,-0.4436409,2.2483797,7.7665863,5.5552716,1,1683969755.646907
1.5336261,2.2559245,0.01323248,-0.3652974,0.19608775,-0.4436409,2.2483797,7.7665863,5.5552716,1,1683969755.6622927
1.5336261,2.2559245,0.01323248,-0.8144361,0.17195857,-1.2927436,2.2483797,7.7665863,5.5552716,1,1683969755.6674151
1.5336261,2.2559245,0.01323248,-0.8144361,0.17195857,-1.2927436,2.2134604,7.7619295,5.5757647,1,1683969755.6776083
-1.123785,-0.66461194,1.021401,-0.8144361,0.17195857,-1.2927436,2.2134604,7.7619295,5.5757647,1,1683969755.698082
-1.123785,-0.66461194,1.021401,-0.8144361,0.17195857,-1.2927436,0.2422367,7.203412,6.6549444,1,1683969755.7134168
-1.123785,-0.66461194,1.021401,1.8779525,0.12904528,2.3458753,0.2422367,7.203412,6.6549444,1,1683969755.7185447
-0.6209509,-0.3802661,0.75437325,1.8779525,0.12904528,2.3458753,0.2422367,7.203412,6.6549444,1,1683969755.739054
-0.6209509,-0.3802661,0.75437325,2.3593142,0.31719178,3.6409097,0.2422367,7.203412,6.6549444,1,1683969755.7441847
-0.6209509,-0.3802661,0.75437325,2.3593142,0.31719178,3.6409097,0.4424122,7.3430295,6.490015,1,1683969755.7493153
-0.6209509,-0.3802661,0.75437325,2.4500277,0.5694791,4.2342124,0.4424122,7.3430295,6.490015,1,1683969755.759575
-0.6209509,-0.3802661,0.75437325,2.4500277,0.5694791,4.2342124,0.6559984,7.448646,6.3500743,1,1683969755.764705
-0.2470876,-0.15555786,0.6784542,2.4500277,0.5694791,4.2342124,0.6559984,7.448646,6.3500743,1,1683969755.7902114
-0.2470876,-0.15555786,0.6784542,2.2165246,1.2450961,4.7737594,0.6559984,7.448646,6.3500743,1,1683969755.8055649
-0.2470876,-0.15555786,0.6784542,2.2165246,1.2450961,4.7737594,0.9167353,7.5434394,6.2042093,1,1683969755.8106933
1.1451279,1.0703673,0.27556485,2.2165246,1.2450961,4.7737594,0.9167353,7.5434394,6.2042093,1,1683969755.8260808
1.1451279,1.0703673,0.27556485,2.2165246,1.2450961,4.7737594,1.1887529,7.6158385,6.068112,1,1683969755.8516798
1.1451279,1.0703673,0.27556485,1.5366315,1.8478674,4.596303,1.1887529,7.6158385,6.068112,1,1683969755.8568149
1.6569259,1.7339426,0.082626775,1.5366315,1.8478674,4.596303,1.1887529,7.6158385,6.068112,1,1683969755.877288
1.6569259,1.7339426,0.082626775,0.88300574,1.9941696,3.775758,1.1887529,7.6158385,6.068112,1,1683969755.8823817
1.6569259,1.7339426,0.082626775,0.88300574,1.9941696,3.775758,1.5306637,7.65815,5.936827,1,1683969755.8927665
1.6569259,1.7339426,0.082626775,0.37705657,1.7690657,2.5100453,1.5306637,7.65815,5.936827,1,1683969755.9081345
1.9644438,2.1970794,-0.10518907,0.37705657,1.7690657,2.5100453,1.5306637,7.65815,5.936827,1,1683969755.9132793
1.9644438,2.1970794,-0.10518907,0.37705657,1.7690657,2.5100453,1.6755296,7.65231,5.905156,1,1683969755.9184196
1.9644438,2.1970794,-0.10518907,0.027183503,0.82512623,0.7706065,1.6755296,7.65231,5.905156,1,1683969755.933798
2.0031047,2.4621558,-0.16476572,0.027183503,0.82512623,0.7706065,1.6755296,7.65231,5.905156,1,1683969755.9491875
2.0031047,2.4621558,-0.16476572,0.027183503,0.82512623,0.7706065,1.7490182,7.6409335,5.8985744,1,1683969755.95941
1.709063,2.391969,0.028904125,0.027183503,0.82512623,0.7706065,1.7490182,7.6409335,5.8985744,1,1683969755.974814
1.709063,2.391969,0.028904125,0.43493605,-0.40485093,-0.31795537,1.7490182,7.6409335,5.8985744,1,1683969755.9799309
1.709063,2.391969,0.028904125,0.43493605,-0.40485093,-0.31795537,1.9032437,7.6719403,5.8099136,1,1683969755.990152
1.709063,2.391969,0.028904125,0.08506299,-0.62949663,-1.1618657,1.9032437,7.6719403,5.8099136,1,1683969756.0054617
1.4157534,2.2119584,0.10177423,0.08506299,-0.62949663,-1.1618657,1.9032437,7.6719403,5.8099136,1,1683969756.0207927
1.4157534,2.2119584,0.10177423,0.08506299,-0.62949663,-1.1618657,1.8973813,7.705012,5.7679157,1,1683969756.025918
1.1228703,1.9209658,0.143423,0.08506299,-0.62949663,-1.1618657,1.8973813,7.705012,5.7679157,1,1683969756.0464828
1.1228703,1.9209658,0.143423,-0.39736784,-0.65316767,-1.8341229,1.8973813,7.705012,5.7679157,1,1683969756.056698
1.1228703,1.9209658,0.143423,-0.39736784,-0.65316767,-1.8341229,1.8466974,7.731853,5.7484145,1,1683969756.0618227
0.9504823,1.6997942,0.12897095,-0.39736784,-0.65316767,-1.8341229,1.8466974,7.731853,5.7484145,1,1683969756.0823705
0.9504823,1.6997942,0.12897095,-0.39736784,-0.65316767,-1.8341229,1.7587967,7.7452106,5.75799,1,1683969756.0874913
0.9504823,1.6997942,0.12897095,-0.8596401,-0.4999932,-2.2145393,1.7587967,7.7452106,5.75799,1,1683969756.1028752
0.9504823,1.6997942,0.12897095,-0.8596401,-0.4999932,-2.2145393,1.5607218,7.725179,5.8413935,1,1683969756.1080067
0.9504823,1.6997942,0.12897095,-1.4978416,-0.18982637,-2.6294694,1.5607218,7.725179,5.8413935,1,1683969756.1182775
0.766935,1.3547741,0.13708118,-1.4978416,-0.18982637,-2.6294694,1.5607218,7.725179,5.8413935,1,1683969756.1233535
0.766935,1.3547741,0.13708118,-1.4978416,-0.18982637,-2.6294694,1.3865815,7.6782537,5.946254,1,1683969756.1592143
0.5928395,1.0365238,0.16885132,-1.4978416,-0.18982637,-2.6294694,1.3865815,7.6782537,5.946254,1,1683969756.1643438
0.5928395,1.0365238,0.16885132,-1.9776763,0.054519724,-2.8858802,1.3865815,7.6782537,5.946254,1,1683969756.1694787
0.32587266,0.61601156,0.23281845,-1.9776763,0.054519724,-2.8858802,1.3865815,7.6782537,5.946254,1,1683969756.1847847
0.32587266,0.61601156,0.23281845,-2.4921775,0.28787026,-3.085175,1.3865815,7.6782537,5.946254,1,1683969756.2052526
0.32587266,0.61601156,0.23281845,-2.4921775,0.28787026,-3.085175,1.1856476,7.601635,6.0865016,1,1683969756.2103784
0.32587266,0.61601156,0.23281845,-2.8171577,0.36254853,-3.114191,1.1856476,7.601635,6.0865016,1,1683969756.2155044
0.063540295,0.2720281,0.3096522,-2.8171577,0.36254853,-3.114191,1.1856476,7.601635,6.0865016,1,1683969756.2360168
0.063540295,0.2720281,0.3096522,-2.8171577,0.36254853,-3.114191,0.74275297,7.1789603,6.6443176,1,1683969756.2462747
0.063540295,0.2720281,0.3096522,-2.9393308,0.2843578,-3.4182491,0.74275297,7.1789603,6.6443176,1,1683969756.256525
-0.1326297,-0.02933098,0.46283188,-2.9393308,0.2843578,-3.4182491,0.74275297,7.1789603,6.6443176,1,1683969756.2667844
-0.4281347,-0.33062905,0.6957723,-2.9393308,0.2843578,-3.4182491,0.74275297,7.1789603,6.6443176,1,1683969756.2872171
-0.4281347,-0.33062905,0.6957723,-2.8506026,0.17150041,-3.2403347,0.74275297,7.1789603,6.6443176,1,1683969756.2923179
-0.4281347,-0.33062905,0.6957723,-2.8506026,0.17150041,-3.2403347,0.49492136,7.0045543,6.850357,1,1683969756.2974062
-0.4281347,-0.33062905,0.6957723,-2.8506026,0.17150041,-3.2403347,0.27741238,6.827121,7.039146,1,1683969756.3332384
-0.4281347,-0.33062905,0.6957723,-2.346028,0.002443461,-2.6096163,0.27741238,6.827121,7.039146,1,1683969756.3383703
-0.77815515,-0.6457084,1.0291454,-2.346028,0.002443461,-2.6096163,0.27741238,6.827121,7.039146,1,1683969756.3434932
-1.1109184,-0.82980454,1.3129424,-2.346028,0.002443461,-2.6096163,0.27741238,6.827121,7.039146,1,1683969756.3588924
-1.1109184,-0.82980454,1.3129424,-2.346028,0.002443461,-2.6096163,0.044155836,6.6067634,7.2515407,1,1683969756.3691463
-1.1109184,-0.82980454,1.3129424,-1.3205379,-0.14110987,-1.5234979,0.044155836,6.6067634,7.2515407,1,1683969756.3794053
-1.1109184,-0.82980454,1.3129424,-0.2284636,-0.20906863,-0.41416663,0.044155836,6.6067634,7.2515407,1,1683969756.404932
-1.2743427,-0.8337072,1.410814,-0.2284636,-0.20906863,-0.41416663,0.044155836,6.6067634,7.2515407,1,1683969756.4100595
-1.2743427,-0.8337072,1.410814,-0.2284636,-0.20906863,-0.41416663,-0.030899905,6.5285234,7.322126,1,1683969756.4151998
-1.3175769,-0.7894363,1.2661715,-0.2284636,-0.20906863,-0.41416663,-0.030899905,6.5285234,7.322126,1,1683969756.4357138
-1.3175769,-0.7894363,1.2661715,-0.2284636,-0.20906863,-0.41416663,-0.03455617,6.524669,7.3255453,1,1683969756.4408448
-1.3175769,-0.7894363,1.2661715,1.1749994,-0.33215797,1.0558805,-0.03455617,6.524669,7.3255453,1,1683969756.4459786
-1.197387,-0.7168711,1.0715259,1.1749994,-0.33215797,1.0558805,-0.03455617,6.524669,7.3255453,1,1683969756.4613764
-1.197387,-0.7168711,1.0715259,1.1749994,-0.33215797,1.0558805,0.039425146,6.59372,7.2634296,1,1683969756.481883
-1.197387,-0.7168711,1.0715259,2.0967948,-0.5056437,2.2537873,0.039425146,6.59372,7.2634296,1,1683969756.4869874
-1.197387,-0.7168711,1.0715259,2.0967948,-0.5056437,2.2537873,0.196151,6.7178044,7.1462398,1,1683969756.5075054
-0.8993817,-0.5741799,0.8607819,2.0967948,-0.5056437,2.2537873,0.196151,6.7178044,7.1462398,1,1683969756.5126379
-0.8993817,-0.5741799,0.8607819,1.4413365,-0.5377141,1.6342173,0.196151,6.7178044,7.1462398,1,1683969756.5434153
-0.8993817,-0.5741799,0.8607819,1.4413365,-0.5377141,1.6342173,-0.3477506,6.4173274,7.4116855,1,1683969756.5485473
-1.3131863,-0.7857775,1.0913442,1.4413365,-0.5377141,1.6342173,-0.3477506,6.4173274,7.4116855,1,1683969756.5639458
-1.3131863,-0.7857775,1.0913442,2.2142339,-0.66553766,2.8567114,-0.3477506,6.4173274,7.4116855,1,1683969756.5844204
-1.0495734,-0.6503428,0.910419,2.2142339,-0.66553766,2.8567114,-0.3477506,6.4173274,7.4116855,1,1683969756.599805
-0.7139441,-0.48630884,0.8015102,2.2142339,-0.66553766,2.8567114,-0.3477506,6.4173274,7.4116855,1,1683969756.6151772
-0.7139441,-0.48630884,0.8015102,2.5879307,-0.66431594,3.6615262,-0.3477506,6.4173274,7.4116855,1,1683969756.625452
-0.7139441,-0.48630884,0.8015102,2.8765645,-0.35506544,4.605924,-0.3477506,6.4173274,7.4116855,1,1683969756.645984
-0.7139441,-0.48630884,0.8015102,2.8765645,-0.35506544,4.605924,0.35305607,6.8596706,7.004026,1,1683969756.6510763
-0.007561417,-0.032197,0.7356527,2.8765645,-0.35506544,4.605924,0.35305607,6.8596706,7.004026,1,1683969756.6716013
-0.007561417,-0.032197,0.7356527,2.6994135,0.116980694,4.7989573,0.35305607,6.8596706,7.004026,1,1683969756.687002
-0.007561417,-0.032197,0.7356527,2.6994135,0.116980694,4.7989573,0.6748181,7.0105014,6.8288803,1,1683969756.6921315
0.78449696,0.65363574,0.49490693,2.6994135,0.116980694,4.7989573,0.6748181,7.0105014,6.8288803,1,1683969756.7075198
1.4116068,1.5077709,0.319043,2.6994135,0.116980694,4.7989573,0.6748181,7.0105014,6.8288803,1,1683969756.7229064
1.4116068,1.5077709,0.319043,2.0717494,0.23701571,4.111734,0.6748181,7.0105014,6.8288803,1,1683969756.728039
1.4116068,1.5077709,0.319043,2.0717494,0.23701571,4.111734,0.99124783,7.13935,6.654564,1,1683969756.7434225
1.6857691,1.9321859,0.26721072,2.0717494,0.23701571,4.111734,0.99124783,7.13935,6.654564,1,1683969756.7691066
1.6857691,1.9321859,0.26721072,1.5099062,0.31795537,3.0321825,0.99124783,7.13935,6.654564,1,1683969756.774236
1.6857691,1.9321859,0.26721072,1.5099062,0.31795537,3.0321825,1.3847154,7.263224,6.447035,1,1683969756.7793334
1.8513275,2.216471,0.21178065,1.5099062,0.31795537,3.0321825,1.3847154,7.263224,6.447035,1,1683969756.784466
1.8513275,2.216471,0.21178065,3.2100968,-0.23808473,4.329049,1.3847154,7.263224,6.447035,1,1683969756.7998776
-0.7693132,-0.5538128,1.0076808,3.2100968,-0.23808473,4.329049,1.3847154,7.263224,6.447035,1,1683969756.8152423
-0.7693132,-0.5538128,1.0076808,3.2100968,-0.23808473,4.329049,0.18641011,6.702057,7.161271,1,1683969756.8306303
-0.7693132,-0.5538128,1.0076808,3.2100968,-0.23808473,4.329049,0.4585961,6.8811917,6.976747,1,1683969756.8511574
-0.7693132,-0.5538128,1.0076808,3.519042,0.32986724,5.451667,0.4585961,6.8811917,6.976747,1,1683969756.856287
-0.14348398,-0.26483253,0.8609039,3.519042,0.32986724,5.451667,0.4585961,6.8811917,6.976747,1,1683969756.8614156
-0.14348398,-0.26483253,0.8609039,3.3217325,0.9569204,5.78917,0.4585961,6.8811917,6.976747,1,1683969756.8767989
0.7879728,0.3925229,0.53722644,3.3217325,0.9569204,5.78917,0.4585961,6.8811917,6.976747,1,1683969756.8870592
0.7879728,0.3925229,0.53722644,3.3217325,0.9569204,5.78917,0.9543472,7.1342263,6.665445,1,1683969756.902353
1.4359374,1.1873254,0.16458277,3.3217325,0.9569204,5.78917,0.9543472,7.1342263,6.665445,1,1683969756.9176502
1.4359374,1.1873254,0.16458277,2.6934576,1.2388347,5.368131,0.9543472,7.1342263,6.665445,1,1683969756.9330366
1.4359374,1.1873254,0.16458277,2.6934576,1.2388347,5.368131,1.2832645,7.264998,6.4659986,1,1683969756.9381657
1.9485893,1.993348,-0.09457869,2.6934576,1.2388347,5.368131,1.2832645,7.264998,6.4659986,1,1683969756.958643
1.9485893,1.993348,-0.09457869,1.6479617,1.2588406,3.8116465,1.2832645,7.264998,6.4659986,1,1683969756.963773
1.9485893,1.993348,-0.09457869,1.6479617,1.2588406,3.8116465,1.5594579,7.3458734,6.31208,1,1683969756.968902
1.9485893,1.993348,-0.09457869,0.95417154,0.9405798,2.3342688,1.5594579,7.3458734,6.31208,1,1683969756.9894185
1.9485893,1.993348,-0.09457869,0.95417154,0.9405798,2.3342688,1.7519249,7.3873434,6.212409,1,1683969756.999642
2.09872,2.2903166,-0.22958656,0.95417154,0.9405798,2.3342688,1.7519249,7.3873434,6.212409,1,1683969757.004736
2.09872,2.2903166,-0.22958656,0.48456886,0.31749722,0.946383,1.7519249,7.3873434,6.212409,1,1683969757.030278
1.9511505,2.4807544,-0.19751152,0.48456886,0.31749722,0.946383,1.7519249,7.3873434,6.212409,1,1683969757.035371
1.9511505,2.4807544,-0.19751152,0.48456886,0.31749722,0.946383,1.8665035,7.4094815,6.152386,1,1683969757.0456283
1.9511505,2.4807544,-0.19751152,0.1647809,-0.3399465,-0.44058657,1.8665035,7.4094815,6.152386,1,1683969757.0507536
1.6282657,2.4124577,-0.0031099375,0.1647809,-0.3399465,-0.44058657,1.8665035,7.4094815,6.152386,1,1683969757.0558853
1.6282657,2.4124577,-0.0031099375,0.1647809,-0.3399465,-0.44058657,1.9317652,7.4389005,6.096487,1,1683969757.0712302
1.6282657,2.4124577,-0.0031099375,1.0800097,0.41218132,1.6775887,1.9317652,7.4389005,6.096487,1,1683969757.07636
1.6282657,2.4124577,-0.0031099375,1.0800097,0.41218132,1.6775887,1.9799566,7.5910153,5.890023,1,1683969757.0866024
2.0296307,2.362333,-0.32947046,1.0800097,0.41218132,1.6775887,1.9799566,7.5910153,5.890023,1,1683969757.1070428
2.0296307,2.362333,-0.32947046,0.691194,-0.3820962,0.2835942,1.9799566,7.5910153,5.890023,1,1683969757.1223931
1.8959644,2.464168,-0.30483487,0.691194,-0.3820962,0.2835942,1.9799566,7.5910153,5.890023,1,1683969757.1274896
1.8959644,2.464168,-0.30483487,0.691194,-0.3820962,0.2835942,2.0688496,7.6259727,5.8138213,1,1683969757.1326232
1.8959644,2.464168,-0.30483487,0.691194,-0.3820962,0.2835942,2.1048794,7.6654043,5.748667,1,1683969757.1531029
1.5490538,2.2836697,-0.0831146,0.691194,-0.3820962,0.2835942,2.1048794,7.6654043,5.748667,1,1683969757.1684513
1.5490538,2.2836697,-0.0831146,0.31123585,-1.0963504,-1.0619892,2.1048794,7.6654043,5.748667,1,1683969757.173585
1.3500178,2.1212823,-0.017013188,0.31123585,-1.0963504,-1.0619892,2.1048794,7.6654043,5.748667,1,1683969757.1941004
1.3500178,2.1212823,-0.017013188,0.31123585,-1.0963504,-1.0619892,2.0955737,7.707755,5.69519,1,1683969757.1991885
1.3500178,2.1212823,-0.017013188,0.099571034,-1.2793045,-1.5954273,2.0955737,7.707755,5.69519,1,1683969757.2094011
1.0972592,1.8760852,0.06786981,0.099571034,-1.2793045,-1.5954273,2.0955737,7.707755,5.69519,1,1683969757.2298262
1.0972592,1.8760852,0.06786981,0.099571034,-1.2793045,-1.5954273,2.0494149,7.7468677,5.658803,1,1683969757.2349877
1.0972592,1.8760852,0.06786981,-0.31963524,-1.328021,-2.1891882,2.0494149,7.7468677,5.658803,1,1683969757.2452464
1.0972592,1.8760852,0.06786981,-0.88163126,-1.0210613,-2.6207647,2.0494149,7.7468677,5.658803,1,1683969757.2708986
0.90511376,1.5625912,0.09713981,-0.88163126,-1.0210613,-2.6207647,2.0494149,7.7468677,5.658803,1,1683969757.27603
0.90511376,1.5625912,0.09713981,-0.88163126,-1.0210613,-2.6207647,1.9160625,7.782029,5.65728,1,1683969757.281122
0.6938819,1.1869595,0.08573671,-0.88163126,-1.0210613,-2.6207647,1.9160625,7.782029,5.65728,1,1683969757.2913377
0.6938819,1.1869595,0.08573671,-0.88163126,-1.0210613,-2.6207647,1.7802658,7.7784414,5.706366,1,1683969757.2964673
0.6938819,1.1869595,0.08573671,-1.5630515,-0.5661194,-2.9501736,1.7802658,7.7784414,5.706366,1,1683969757.316979
0.6938819,1.1869595,0.08573671,-1.5630515,-0.5661194,-2.9501736,1.5146517,7.7170844,5.8641744,1,1683969757.3374045
0.6938819,1.1869595,0.08573671,-2.2311852,-0.21624629,-3.170238,1.5146517,7.7170844,5.8641744,1,1683969757.3425364
0.47075918,0.80651045,0.09848136,-2.2311852,-0.21624629,-3.170238,1.5146517,7.7170844,5.8641744,1,1683969757.3476706
0.47075918,0.80651045,0.09848136,-2.2311852,-0.21624629,-3.170238,1.9302058,7.685199,5.783437,1,1683969757.3527994
0.47075918,0.80651045,0.09848136,-1.3029755,-0.41355577,-2.4711027,1.9302058,7.685199,5.783437,1,1683969757.3578982
0.91651684,1.7402234,0.09866429,-1.3029755,-0.41355577,-2.4711027,1.9302058,7.685199,5.783437,1,1683969757.3681452
0.91651684,1.7402234,0.09866429,-1.4837917,-0.41599923,-2.6991081,1.9302058,7.685199,5.783437,1,1683969757.3886623
0.7548611,1.4586216,0.09750569,-1.4837917,-0.41599923,-2.6991081,1.9302058,7.685199,5.783437,1,1683969757.3937883
0.7548611,1.4586216,0.09750569,-1.4837917,-0.41599923,-2.6991081,1.7875764,7.6640267,5.856908,1,1683969757.4143052
0.7548611,1.4586216,0.09750569,-1.4837917,-0.41599923,-2.6991081,1.6301589,7.632148,5.9438214,1,1683969757.4245594
0.7548611,1.4586216,0.09750569,-1.7334828,-0.41141775,-2.9029844,1.6301589,7.632148,5.9438214,1,1683969757.4296975
0.5992423,1.1460425,0.08140719,-1.7334828,-0.41141775,-2.9029844,1.6301589,7.632148,5.9438214,1,1683969757.439956
0.5992423,1.1460425,0.08140719,-1.7334828,-0.41141775,-2.9029844,1.4602777,7.5841246,6.0485334,1,1683969757.465574
0.5992423,1.1460425,0.08140719,-2.1273382,-0.40683624,-3.161533,1.4602777,7.5841246,6.0485334,1,1683969757.4707074
0.40715793,0.7329086,0.12640981,-2.1273382,-0.40683624,-3.161533,1.4602777,7.5841246,6.0485334,1,1683969757.4860926
0.40715793,0.7329086,0.12640981,-2.393981,-0.45265114,-3.3347135,1.4602777,7.5841246,6.0485334,1,1683969757.4963033
0.40715793,0.7329086,0.12640981,-2.393981,-0.45265114,-3.3347135,1.1842859,7.4680233,6.2499766,1,1683969757.506559
0.23916028,0.39130333,0.24983165,-2.393981,-0.45265114,-3.3347135,1.1842859,7.4680233,6.2499766,1,1683969757.521947
0.23916028,0.39130333,0.24983165,-2.5396724,-0.56581396,-3.4362698,1.1842859,7.4680233,6.2499766,1,1683969757.5424287
0.023842854,0.04981998,0.42282957,-2.5396724,-0.56581396,-3.4362698,1.1842859,7.4680233,6.2499766,1,1683969757.5526779
0.023842854,0.04981998,0.42282957,-2.5396724,-0.56581396,-3.4362698,0.9894931,7.354114,6.4166975,1,1683969757.5578146
-0.32367742,-0.3675824,0.71339524,-2.5396724,-0.56581396,-3.4362698,0.9894931,7.354114,6.4166975,1,1683969757.5834184
-0.32367742,-0.3675824,0.71339524,-2.5396724,-0.56581396,-3.4362698,0.79109335,7.2169204,6.59745,1,1683969757.5885491
-0.32367742,-0.3675824,0.71339524,-2.474615,-0.7478518,-3.3105843,0.79109335,7.2169204,6.59745,1,1683969757.593714
-0.32367742,-0.3675824,0.71339524,-2.474615,-0.7478518,-3.3105843,0.61372966,7.0740466,6.7688484,1,1683969757.6142266
-0.32367742,-0.3675824,0.71339524,-2.2359195,-0.9251554,-2.9924762,0.61372966,7.0740466,6.7688484,1,1683969757.619364
-0.32367742,-0.3675824,0.71339524,-2.2359195,-0.9251554,-2.9924762,1.0644218,6.7331395,7.0546403,1,1683969757.639894
-0.80669343,-0.8263897,1.5970445,-2.2359195,-0.9251554,-2.9924762,1.0644218,6.7331395,7.0546403,1,1683969757.6450274
-0.80669343,-0.8263897,1.5970445,-1.6862935,-0.72341716,-2.7475193,1.0644218,6.7331395,7.0546403,1,1683969757.6501215
-1.188484,-0.92682236,1.8919396,-1.6862935,-0.72341716,-2.7475193,1.0644218,6.7331395,7.0546403,1,1683969757.6808035
-1.188484,-0.92682236,1.8919396,-0.25427267,-0.3678936,-1.3796391,1.0644218,6.7331395,7.0546403,1,1683969757.6859388
-1.188484,-0.92682236,1.8919396,-0.25427267,-0.3678936,-1.3796391,0.94585997,6.654286,7.1457634,1,1683969757.691071
-1.188484,-0.92682236,1.8919396,1.0719157,-0.017256944,-0.0954477,0.94585997,6.654286,7.1457634,1,1683969757.7116
-1.188484,-0.92682236,1.8919396,1.0719157,-0.017256944,-0.0954477,0.87587625,6.641674,7.166388,1,1683969757.716734
-1.3284311,-0.8995037,1.8087031,1.0719157,-0.017256944,-0.0954477,0.87587625,6.641674,7.166388,1,1683969757.7218628
-1.337822,-0.8334022,1.4133142,1.0719157,-0.017256944,-0.0954477,0.87587625,6.641674,7.166388,1,1683969757.7321184
-1.337822,-0.8334022,1.4133142,1.0719157,-0.017256944,-0.0954477,0.87908536,6.7585373,7.0558834,1,1683969757.752643
-1.337822,-0.8334022,1.4133142,2.4610233,0.1611157,1.571909,0.87908536,6.7585373,7.0558834,1,1683969757.7577786
-1.15897,-0.7195542,1.094454,2.4610233,0.1611157,1.571909,0.87908536,6.7585373,7.0558834,1,1683969757.778305
-1.15897,-0.7195542,1.094454,2.4610233,0.1611157,1.571909,0.9740386,6.901931,6.902951,1,1683969757.783425
-1.15897,-0.7195542,1.094454,3.228881,0.28802297,2.9494102,0.9740386,6.901931,6.902951,1,1683969757.79369
-1.15897,-0.7195542,1.094454,3.703676,0.5682574,4.236503,0.9740386,6.901931,6.902951,1,1683969757.8193038
-1.15897,-0.7195542,1.094454,3.703676,0.5682574,4.236503,1.1481166,7.0665064,6.706894,1,1683969757.8244295
-0.6991871,-0.46484417,0.83980507,3.703676,0.5682574,4.236503,1.1481166,7.0665064,6.706894,1,1683969757.8295567
-0.046466127,-0.054576356,0.50210243,3.703676,0.5682574,4.236503,1.1481166,7.0665064,6.706894,1,1683969757.8449504
-0.046466127,-0.054576356,0.50210243,3.8383718,1.0297661,5.1682253,1.1481166,7.0665064,6.706894,1,1683969757.850092
-0.046466127,-0.054576356,0.50210243,3.8383718,1.0297661,5.1682253,1.3899877,7.2260227,6.487575,1,1683969757.865433
0.9007233,0.7019312,-0.079333894,3.8383718,1.0297661,5.1682253,1.3899877,7.2260227,6.487575,1,1683969757.885952
0.9007233,0.7019312,-0.079333894,3.8383718,1.0297661,5.1682253,1.6931756,7.3657565,6.2541904,1,1683969757.8910856
1.5784458,1.5056976,-0.17196125,3.8383718,1.0297661,5.1682253,1.6931756,7.3657565,6.2541904,1,1683969757.9167335
1.5784458,1.5056976,-0.17196125,2.6433666,0.8472701,4.8550043,1.6931756,7.3657565,6.2541904,1,1683969757.921867
1.5784458,1.5056976,-0.17196125,2.6433666,0.8472701,4.8550043,2.090138,7.537967,5.9200077,1,1683969757.9321225
1.5784458,1.5056976,-0.17196125,1.5178474,1.0528263,3.2091806,2.090138,7.537967,5.9200077,1,1683969757.9423811
2.0598154,2.1329901,-0.33111688,1.5178474,1.0528263,3.2091806,2.090138,7.537967,5.9200077,1,1683969757.95264
2.0598154,2.1329901,-0.33111688,1.5178474,1.0528263,3.2091806,2.363701,7.5779276,5.764031,1,1683969757.9680297
2.0598154,2.1329901,-0.33111688,0.59956425,1.0946705,1.6630806,2.363701,7.5779276,5.764031,1,1683969757.9885082
2.110428,2.3251967,-0.3492277,0.59956425,1.0946705,1.6630806,2.363701,7.5779276,5.764031,1,1683969757.99364
2.110428,2.3251967,-0.3492277,0.59956425,1.0946705,1.6630806,2.5343735,7.589627,5.6754413,1,1683969758.0038989
1.8262042,2.3526983,-0.2952611,0.59956425,1.0946705,1.6630806,2.5343735,7.589627,5.6754413,1,1683969758.019255
1.8262042,2.3526983,-0.2952611,-0.100334615,0.96745783,0.36163223,2.5343735,7.589627,5.6754413,1,1683969758.0243874
1.8262042,2.3526983,-0.2952611,-0.100334615,0.96745783,0.36163223,2.5985794,7.5870013,5.64986,1,1683969758.0295122
1.8262042,2.3526983,-0.2952611,-0.5644395,0.5038111,-0.7487681,2.5985794,7.5870013,5.64986,1,1683969758.0602443
1.8262042,2.3526983,-0.2952611,-0.5644395,0.5038111,-0.7487681,2.5547404,7.57661,5.683696,1,1683969758.0653799
1.4277663,2.1934814,-0.15476513,-0.5644395,0.5038111,-0.7487681,2.5547404,7.57661,5.683696,1,1683969758.0705118
1.4277663,2.1934814,-0.15476513,-0.5644395,0.5038111,-0.7487681,2.480846,7.573313,5.720703,1,1683969758.0909948
1.4277663,2.1934814,-0.15476513,-0.698219,0.04016439,-1.3231341,2.480846,7.573313,5.720703,1,1683969758.0961368
1.1873864,2.020057,-0.05256404,-0.698219,0.04016439,-1.3231341,2.480846,7.573313,5.720703,1,1683969758.1012704
1.9966408,2.1801882,0.4688688,-0.129198,0.32895094,-1.420109,2.5906658,6.347292,7.0168686,1,1683969758.1351497
0.62076795,0.8974914,0.3494716,0.79000145,-0.34284812,-3.306308,1.9317616,6.7269826,6.8740163,1,1683969758.1527772
0.62076795,0.8974914,0.3494716,0.5551238,-0.61361414,-3.632052,1.9317616,6.7269826,6.8740163,1,1683969758.2329865
0.38240036,0.5652159,0.19501138,0.5551238,-0.61361414,-3.632052,1.9317616,6.7269826,6.8740163,1,1683969758.2380826
0.38240036,0.5652159,0.19501138,0.5551238,-0.61361414,-3.632052,1.6714202,6.886586,6.7836137,1,1683969758.2431457
0.38240036,0.5652159,0.19501138,0.07925977,-0.8081747,-3.7374263,1.6714202,6.886586,6.7836137,1,1683969758.258397
0.014574022,0.17263202,0.17598589,0.07925977,-0.8081747,-3.7374263,1.6714202,6.886586,6.7836137,1,1683969758.2737439
0.014574022,0.17263202,0.17598589,0.07925977,-0.8081747,-3.7374263,1.4892557,6.970939,6.739751,1,1683969758.2788684
0.014574022,0.17263202,0.17598589,0.07925977,-0.8081747,-3.7374263,1.1912858,7.019477,6.748621,1,1683969758.2839987
-0.3758756,-0.16891229,0.33056808,0.07925977,-0.8081747,-3.7374263,1.1912858,7.019477,6.748621,1,1683969758.2891333
-0.3758756,-0.16891229,0.33056808,-0.5093089,-0.7440339,-3.4373388,1.1912858,7.019477,6.748621,1,1683969758.309573
-0.3758756,-0.16891229,0.33056808,-0.91828316,-0.4552473,-2.9019153,1.1912858,7.019477,6.748621,1,1683969758.3249607
-0.68863773,-0.37227783,0.5084443,-0.91828316,-0.4552473,-2.9019153,1.1912858,7.019477,6.748621,1,1683969758.335135
-0.68863773,-0.37227783,0.5084443,-0.91828316,-0.4552473,-2.9019153,1.0023088,7.0010734,6.7982693,1,1683969758.3504095
-0.93981093,-0.5392388,0.6696122,-0.91828316,-0.4552473,-2.9019153,1.0023088,7.0010734,6.7982693,1,1683969758.3760147
-0.93981093,-0.5392388,0.6696122,-0.91828316,-0.4552473,-2.9019153,0.8346205,6.948951,6.87398,1,1683969758.381141
-0.93981093,-0.5392388,0.6696122,-1.1707232,-0.07345655,-2.081676,0.8346205,6.948951,6.87398,1,1683969758.3862686
-1.1790322,-0.6540016,0.8041323,-1.1707232,-0.07345655,-2.081676,0.8346205,6.948951,6.87398,1,1683969758.4016125
-1.1790322,-0.6540016,0.8041323,-1.1707232,-0.07345655,-2.081676,0.70295274,6.874353,6.9631343,1,1683969758.4118671
-1.1790322,-0.6540016,0.8041323,-1.1861476,0.301462,-0.6977608,0.70295274,6.874353,6.9631343,1,1683969758.4169903
-1.3127595,-0.6648559,0.85181797,-1.1861476,0.301462,-0.6977608,0.70295274,6.874353,6.9631343,1,1683969758.4323084
-1.3127595,-0.6648559,0.85181797,-0.96791595,0.43249258,0.6021604,0.70295274,6.874353,6.9631343,1,1683969758.4527721
-1.3127595,-0.6648559,0.85181797,-0.96791595,0.43249258,0.6021604,0.6262235,6.7925377,7.0502057,1,1683969758.4579098
-1.3127595,-0.6648559,0.85181797,-0.4885395,0.42821655,2.3005185,0.6262235,6.7925377,7.0502057,1,1683969758.4783926
-1.270501,-0.6360737,0.8709045,-0.4885395,0.42821655,2.3005185,0.6262235,6.7925377,7.0502057,1,1683969758.4886384
-1.270501,-0.6360737,0.8709045,-0.4885395,0.42821655,2.3005185,0.6215804,6.717255,7.122375,1,1683969758.4937675
-1.270501,-0.6360737,0.8709045,-0.025198191,0.38789943,3.574478,0.6215804,6.717255,7.122375,1,1683969758.514273
-1.270501,-0.6360737,0.8709045,-0.025198191,0.38789943,3.574478,0.76859516,6.633698,7.1860576,1,1683969758.5193899
-0.9079798,-0.47203976,0.8725509,-0.025198191,0.38789943,3.574478,0.76859516,6.633698,7.1860576,1,1683969758.5245223
-0.5539957,-0.29452938,0.85041547,-0.025198191,0.38789943,3.574478,0.76859516,6.633698,7.1860576,1,1683969758.550171
-0.5539957,-0.29452938,0.85041547,-0.025198191,0.38789943,3.574478,0.8575065,6.6139846,7.1941643,1,1683969758.5552566
-0.5539957,-0.29452938,0.85041547,0.27962357,0.4240932,4.355622,0.8575065,6.6139846,7.1941643,1,1683969758.5654647
0.17720546,0.09677394,0.8061446,0.27962357,0.4240932,4.355622,0.8575065,6.6139846,7.1941643,1,1683969758.575694
0.17720546,0.09677394,0.8061446,0.56199604,0.7473936,5.1498995,0.8575065,6.6139846,7.1941643,1,1683969758.585949
0.17720546,0.09677394,0.8061446,0.56199604,0.7473936,5.1498995,1.2091204,6.5652347,7.1883116,1,1683969758.591079
0.9620684,0.6822349,0.6232071,0.56199604,0.7473936,5.1498995,1.2091204,6.5652347,7.1883116,1,1683969758.6167638
0.9620684,0.6822349,0.6232071,0.51007247,1.1414018,5.2343516,1.2091204,6.5652347,7.1883116,1,1683969758.6269689
0.9620684,0.6822349,0.6232071,0.51007247,1.1414018,5.2343516,1.3419408,6.54935,7.1792293,1,1683969758.637235
0.9620684,0.6822349,0.6232071,0.51007247,1.1414018,5.2343516,1.7234625,6.490839,7.15086,1,1683969758.6577663
0.9620684,0.6822349,0.6232071,0.24663684,1.1221595,4.3117924,1.7234625,6.490839,7.15086,1,1683969758.6680381
1.5383214,1.4206927,0.47838157,0.24663684,1.1221595,4.3117924,1.7234625,6.490839,7.15086,1,1683969758.6731691
1.8594987,1.8985864,0.45862433,0.24663684,1.1221595,4.3117924,1.7234625,6.490839,7.15086,1,1683969758.6935809
1.8594987,1.8985864,0.45862433,0.24663684,1.1221595,4.3117924,2.007935,6.415713,7.1444335,1,1683969758.6987119
1.8594987,1.8985864,0.45862433,0.07452556,0.8038987,3.0497448,2.007935,6.415713,7.1444335,1,1683969758.7038438
2.1422591,2.1413445,0.5777776,0.07452556,0.8038987,3.0497448,2.007935,6.415713,7.1444335,1,1683969758.724282
2.1422591,2.1413445,0.5777776,0.030085113,0.44425175,1.3092369,2.007935,6.415713,7.1444335,1,1683969758.7396421
2.1422591,2.1413445,0.5777776,0.030085113,0.44425175,1.3092369,2.129247,6.376423,7.144484,1,1683969758.7447705
1.9513943,2.1654313,0.5644842,0.030085113,0.44425175,1.3092369,2.129247,6.376423,7.144484,1,1683969758.7703826
1.9513943,2.1654313,0.5644842,0.049480084,0.25228736,-0.0926988,2.129247,6.376423,7.144484,1,1683969758.7755082
1.9513943,2.1654313,0.5644842,0.049480084,0.25228736,-0.0926988,2.1838336,6.361222,7.1415567,1,1683969758.7806444
1.9513943,2.1654313,0.5644842,0.11789699,-0.029321533,-1.2669345,2.1838336,6.361222,7.1415567,1,1683969758.806271
1.9513943,2.1654313,0.5644842,0.11789699,-0.029321533,-1.2669345,2.171009,6.374955,7.1332164,1,1683969758.8113952
1.6177773,2.096159,0.6450986,0.11789699,-0.029321533,-1.2669345,2.171009,6.374955,7.1332164,1,1683969758.8165274
1.6177773,2.096159,0.6450986,0.3031419,-0.27412578,-2.0540345,2.171009,6.374955,7.1332164,1,1683969758.8267918
1.3298947,1.8948666,0.7204689,0.3031419,-0.27412578,-2.0540345,2.171009,6.374955,7.1332164,1,1683969758.8319182
1.3298947,1.8948666,0.7204689,0.3031419,-0.27412578,-2.0540345,2.1079776,6.4158216,7.115461,1,1683969758.8421853
1.036219,1.5980201,0.7413237,0.3031419,-0.27412578,-2.0540345,2.1079776,6.4158216,7.115461,1,1683969758.8729258
1.036219,1.5980201,0.7413237,0.3031419,-0.27412578,-2.0540345,1.9616748,6.5237646,7.058926,1,1683969758.8831432
1.036219,1.5980201,0.7413237,0.634689,-0.6030767,-2.682462,1.9616748,6.5237646,7.058926,1,1683969758.8882768
1.036219,1.5980201,0.7413237,0.634689,-0.6030767,-2.682462,1.9053603,6.571156,7.030337,1,1683969758.8934076
0.8555377,1.4222782,0.7189444,0.634689,-0.6030767,-2.682462,1.9053603,6.571156,7.030337,1,1683969758.9036694
0.8555377,1.4222782,0.7189444,0.8350528,-0.767094,-2.944065,1.9053603,6.571156,7.030337,1,1683969758.9190073
0.8555377,1.4222782,0.7189444,0.96883225,-0.8323039,-3.2333097,1.9053603,6.571156,7.030337,1,1683969758.9446487
0.8555377,1.4222782,0.7189444,0.96883225,-0.8323039,-3.2333097,1.7181834,6.736719,6.9210243,1,1683969758.9497893
0.6297928,1.0545127,0.523933,0.96883225,-0.8323039,-3.2333097,1.7181834,6.736719,6.9210243,1,1683969758.9600432
0.6297928,1.0545127,0.523933,0.96883225,-0.8323039,-3.2333097,1.5763739,6.84818,6.8449693,1,1683969758.9805493
0.40874338,0.69943106,0.3439225,0.96883225,-0.8323039,-3.2333097,1.5763739,6.84818,6.8449693,1,1683969758.9856822
0.40874338,0.69943106,0.3439225,0.73273283,-0.8594874,-3.438255,1.5763739,6.84818,6.8449693,1,1683969758.9959457
0.40874338,0.69943106,0.3439225,0.73273283,-0.8594874,-3.438255,1.422462,6.9419007,6.7840047,1,1683969759.0164344
0.23348923,0.4475261,0.27288178,0.73273283,-0.8594874,-3.438255,1.422462,6.9419007,6.7840047,1,1683969759.0215619
0.23348923,0.4475261,0.27288178,0.3510948,-0.8370381,-3.530801,1.422462,6.9419007,6.7840047,1,1683969759.0266929
0.23348923,0.4475261,0.27288178,-0.24144448,-0.7495316,-3.5236235,1.422462,6.9419007,6.7840047,1,1683969759.0420797
0.23348923,0.4475261,0.27288178,-0.24144448,-0.7495316,-3.5236235,1.1658914,7.0212736,6.751186,1,1683969759.0523005
-0.024025792,0.152204,0.29544407,-0.24144448,-0.7495316,-3.5236235,1.1658914,7.0212736,6.751186,1,1683969759.0625608
-0.024025792,0.152204,0.29544407,-0.24144448,-0.7495316,-3.5236235,0.97323036,7.020919,6.782008,1,1683969759.0933552
-0.024025792,0.152204,0.29544407,-0.7415904,-0.59299743,-3.301574,0.97323036,7.020919,6.782008,1,1683969759.0984468
-0.286785,-0.089517415,0.39813298,-0.7415904,-0.59299743,-3.301574,0.97323036,7.020919,6.782008,1,1683969759.1035783
-0.286785,-0.089517415,0.39813298,-0.7415904,-0.59299743,-3.301574,0.7835113,6.9881043,6.8402205,1,1683969759.1291926
-0.65369666,-0.33392194,0.63686645,-0.7415904,-0.59299743,-3.301574,0.7835113,6.9881043,6.8402205,1,1683969759.1343234
-0.65369666,-0.33392194,0.63686645,-0.9309586,-0.44776422,-2.8446467,0.7835113,6.9881043,6.8402205,1,1683969759.1394432
-0.65369666,-0.33392194,0.63686645,-0.9309586,-0.44776422,-2.8446467,0.61540955,6.9361258,6.9099593,1,1683969759.1548257
-0.91419965,-0.4730764,0.8599282,-0.9309586,-0.44776422,-2.8446467,0.61540955,6.9361258,6.9099593,1,1683969759.159961
-0.91419965,-0.4730764,0.8599282,-0.86406887,-0.2750421,-2.1351268,0.61540955,6.9361258,6.9099593,1,1683969759.1702256
-0.91419965,-0.4730764,0.8599282,-0.42653665,-0.0627664,-0.8880454,0.61540955,6.9361258,6.9099593,1,1683969759.1958315
-0.91419965,-0.4730764,0.8599282,-0.42653665,-0.0627664,-0.8880454,0.4368901,6.8593755,6.9995866,1,1683969759.200965
-1.1384811,-0.5698503,1.007071,-0.42653665,-0.0627664,-0.8880454,0.4368901,6.8593755,6.9995866,1,1683969759.2060997
-1.1384811,-0.5698503,1.007071,0.08078693,0.041691553,0.3013093,0.4368901,6.8593755,6.9995866,1,1683969759.2162971
-1.1384811,-0.5698503,1.007071,0.08078693,0.041691553,0.3013093,0.3875966,6.832803,7.028419,1,1683969759.236816
-1.2289742,-0.59588844,0.9726787,0.08078693,0.041691553,0.3013093,0.3875966,6.832803,7.028419,1,1683969759.241947
-1.2289742,-0.59588844,0.9726787,0.5719226,0.05681047,1.570229,0.3875966,6.832803,7.028419,1,1683969759.252207
-1.2084242,-0.5827169,0.8585257,0.5719226,0.05681047,1.570229,0.3875966,6.832803,7.028419,1,1683969759.2624815
-1.2084242,-0.5827169,0.8585257,0.5719226,0.05681047,1.570229,0.40887403,6.8345604,7.025506,1,1683969759.2727418
-1.0120713,-0.47923526,0.71992004,0.5719226,0.05681047,1.570229,0.40887403,6.8345604,7.025506,1,1683969759.2983885
-1.0120713,-0.47923526,0.71992004,0.95462966,0.0290161,2.7925704,0.40887403,6.8345604,7.025506,1,1683969759.3035157
-1.0120713,-0.47923526,0.71992004,0.95462966,0.0290161,2.7925704,0.5084157,6.8601933,6.993953,1,1683969759.3189085
-1.0120713,-0.47923526,0.71992004,0.95462966,0.0290161,2.7925704,0.6832888,6.8975263,6.9421434,1,1683969759.3343055
-0.5433854,-0.21629311,0.5664965,0.95462966,0.0290161,2.7925704,0.6832888,6.8975263,6.9421434,1,1683969759.3394265
-0.5433854,-0.21629311,0.5664965,0.95462966,0.0290161,2.7925704,1.0545331,6.941329,6.851425,1,1683969759.3700864
-0.5433854,-0.21629311,0.5664965,1.108415,0.20158553,4.8006372,1.0545331,6.941329,6.851425,1,1683969759.3751895
0.022440333,0.1235438,0.34904477,1.108415,0.20158553,4.8006372,1.0545331,6.941329,6.851425,1,1683969759.3803241
0.022440333,0.1235438,0.34904477,1.108415,0.20158553,4.8006372,1.3617811,6.9505544,6.787596,1,1683969759.4008508
0.4610025,0.4399647,0.16287535,1.108415,0.20158553,4.8006372,1.3617811,6.9505544,6.787596,1,1683969759.4059792
0.4610025,0.4399647,0.16287535,0.80848014,0.26389378,5.0119967,1.3617811,6.9505544,6.787596,1,1683969759.411071
0.82565796,0.8217553,0.047258858,0.80848014,0.26389378,5.0119967,1.3617811,6.9505544,6.787596,1,1683969759.4213336
0.82565796,0.8217553,0.047258858,0.35078937,0.20189096,4.8365254,1.3617811,6.9505544,6.787596,1,1683969759.4315927
0.82565796,0.8217553,0.047258858,0.35078937,0.20189096,4.8365254,1.6771715,6.9280276,6.7398543,1,1683969759.4367225
0.25983223,0.43423265,0.9006623,0.35078937,0.20189096,4.8365254,1.6771715,6.9280276,6.7398543,1,1683969759.472654
0.25983223,0.43423265,0.9006623,0.23777929,-0.1910481,-0.48349985,1.6771715,6.9280276,6.7398543,1,1683969759.4829206
0.25983223,0.43423265,0.9006623,0.23777929,-0.1910481,-0.48349985,1.8695838,4.772191,8.364625,1,1683969759.4931464
0.25983223,0.43423265,0.9006623,0.23777929,-0.1910481,-0.48349985,1.8641746,4.794792,8.3529,1,1683969759.5033677
0.25983223,0.43423265,0.9006623,0.19242255,-0.059253927,-0.28191432,1.8641746,4.794792,8.3529,1,1683969759.5085018
0.2406238,0.4374036,0.8641968,0.19242255,-0.059253927,-0.28191432,1.8641746,4.794792,8.3529,1,1683969759.523889
0.23879443,0.47313735,0.83895135,0.19242255,-0.059253927,-0.28191432,1.8641746,4.794792,8.3529,1,1683969759.5443308
0.23879443,0.47313735,0.83895135,0.07452556,0.063682705,-0.020922136,1.8641746,4.794792,8.3529,1,1683969759.5494597
0.23879443,0.47313735,0.83895135,0.07452556,0.063682705,-0.020922136,1.8582643,4.8096967,8.345645,1,1683969759.5699806
0.23879443,0.47313735,0.83895135,-0.027488936,0.10781772,0.15393804,1.8582643,4.8096967,8.345645,1,1683969759.5904121
0.23879443,0.47313735,0.83895135,-0.027488936,0.10781772,0.15393804,1.8545097,4.814669,8.343613,1,1683969759.595525
0.27172315,0.5098468,0.80803496,-0.027488936,0.10781772,0.15393804,1.8545097,4.814669,8.343613,1,1683969759.6006572
0.27172315,0.5098468,0.80803496,-0.027488936,0.10781772,0.15393804,1.8594602,4.8059163,8.347555,1,1683969759.6160553
0.27172315,0.5098468,0.80803496,-0.10797043,0.10262536,0.26083946,1.8594602,4.8059163,8.347555,1,1683969759.6262631
0.3591063,0.5749116,0.7982173,-0.10797043,0.10262536,0.26083946,1.8594602,4.8059163,8.347555,1,1683969759.6364887
0.3591063,0.5749116,0.7982173,-0.12003502,0.10125092,0.22296582,1.8594602,4.8059163,8.347555,1,1683969759.6518788
0.42148802,0.62009716,0.80760807,-0.12003502,0.10125092,0.22296582,1.8594602,4.8059163,8.347555,1,1683969759.667182
0.42148802,0.62009716,0.80760807,-0.12003502,0.10125092,0.22296582,1.8679459,4.795143,8.351855,1,1683969759.6774569
0.42148802,0.62009716,0.80760807,-0.12003502,0.10125092,0.22296582,1.8743403,4.785974,8.355681,1,1683969759.6877184
0.42148802,0.62009716,0.80760807,-0.089491755,0.10445796,0.075594574,1.8743403,4.785974,8.355681,1,1683969759.6928499
0.4723446,0.65644073,0.7918755,-0.089491755,0.10445796,0.075594574,1.8743403,4.785974,8.355681,1,1683969759.7133663
0.4723446,0.65644073,0.7918755,-0.05299256,0.10552697,-0.04016439,1.8743403,4.785974,8.355681,1,1683969759.738962
