acc_x,acc_y,acc_z,gyr_x,gyr_y,gyr_z,grav_x,grav_y,grav_z,label,timestamp
0.28861392,0.6695552,1.2024392,7.464657,-12.374783,-5.629902,3.1886053,8.638569,3.3731766,1,1683900538.1182244
-0.06721333,0.52969927,0.42877313,7.464657,-12.374783,-5.629902,3.1886053,8.638569,3.3731766,1,1683900538.1326
-0.33861443,0.3029756,0.10394408,7.387886,-11.279697,-6.097603,3.1886053,8.638569,3.3731766,1,1683900538.137827
-0.33861443,0.3029756,0.10394408,5.7260323,-9.50489,-5.456333,3.1886053,8.638569,3.3731766,1,1683900538.148142
-0.83795244,0.21316575,0.25427932,5.7260323,-9.50489,-5.456333,3.1886053,8.638569,3.3731766,1,1683900538.1584318
-0.83795244,0.21316575,0.25427932,5.7260323,-9.50489,-5.456333,2.102969,9.57262,0.33592567,1,1683900538.16359
-0.83795244,0.21316575,0.25427932,5.7260323,-9.50489,-5.456333,1.8621372,9.628211,0.019869804,1,1683900538.1790159
-0.83795244,0.21316575,0.25427932,4.979286,-8.313942,-4.895973,1.8621372,9.628211,0.019869804,1,1683900538.1995203
-1.1430209,0.24781883,0.32895404,4.979286,-8.313942,-4.895973,1.8621372,9.628211,0.019869804,1,1683900538.209701
-2.0911808,0.29736438,0.09294912,4.979286,-8.313942,-4.895973,1.8621372,9.628211,0.019869804,1,1683900538.2148352
-2.0911808,0.29736438,0.09294912,4.979286,-8.313942,-4.895973,1.3177366,9.699121,-0.60083747,1,1683900538.245505
-2.0911808,0.29736438,0.09294912,2.6474571,-3.3402634,-2.0804214,1.3177366,9.699121,-0.60083747,1,1683900538.250601
-2.2137024,0.13921894,-0.28362447,2.6474571,-3.3402634,-2.0804214,1.3177366,9.699121,-0.60083747,1,1683900538.2711182
-2.2137024,0.13921894,-0.28362447,2.6474571,-3.3402634,-2.0804214,1.2397274,9.702692,-0.70088196,1,1683900538.2762508
-2.2137024,0.13921894,-0.28362447,0.33685684,1.0135078,0.39840698,1.2397274,9.702692,-0.70088196,1,1683900538.2813876
-2.2137024,0.13921894,-0.28362447,0.33685684,1.0135078,0.39840698,1.4383897,9.688222,-0.48968172,1,1683900538.2865207
-2.2137024,0.13921894,-0.28362447,-2.3614693,5.188236,2.9294395,1.4383897,9.688222,-0.48968172,1,1683900538.291651
-1.8825192,0.06745598,-0.29728857,-2.3614693,5.188236,2.9294395,1.4383897,9.688222,-0.48968172,1,1683900538.3121285
-1.8825192,0.06745598,-0.29728857,-4.5910263,8.196583,4.9929047,1.4383897,9.688222,-0.48968172,1,1683900538.342898
-1.1784171,0.1770416,-0.13865782,-4.5910263,8.196583,4.9929047,1.4383897,9.688222,-0.48968172,1,1683900538.348031
-1.1784171,0.1770416,-0.13865782,-4.5910263,8.196583,4.9929047,1.8586959,9.628867,0.023536976,1,1683900538.3531592
-0.81841934,0.16483341,-0.036639757,-4.5910263,8.196583,4.9929047,1.8586959,9.628867,0.023536976,1,1683900538.3634076
-0.81841934,0.16483341,-0.036639757,-4.5910263,8.196583,4.9929047,2.1156871,9.568352,0.3753862,1,1683900538.378787
0.4372506,0.24147967,0.40071702,-4.5910263,8.196583,4.9929047,2.1156871,9.568352,0.3753862,1,1683900538.383921
0.4372506,0.24147967,0.40071702,-4.5910263,8.196583,4.9929047,3.2952802,8.815171,2.7575836,1,1683900538.3992662
1.1599001,0.5187195,0.62328535,-4.5910263,8.196583,4.9929047,3.2952802,8.815171,2.7575836,1,1683900538.404393
1.1599001,0.5187195,0.62328535,-7.193489,10.565662,6.972122,3.2952802,8.815171,2.7575836,1,1683900538.409521
1.1599001,0.5187195,0.62328535,-7.193489,10.565662,6.972122,2.9009035,9.210386,1.7099518,1,1683900538.4454172
1.6841397,0.77694184,0.72994405,-7.193489,10.565662,6.972122,2.9009035,9.210386,1.7099518,1,1683900538.450547
1.6841397,0.77694184,0.72994405,-8.180962,10.781956,5.710945,2.9009035,9.210386,1.7099518,1,1683900538.460799
1.6841397,0.77694184,0.72994405,-8.180962,10.781956,5.710945,3.4804301,8.329407,3.8311849,1,1683900538.4762099
2.0502188,0.9856034,0.9137191,-8.180962,10.781956,5.710945,3.4804301,8.329407,3.8311849,1,1683900538.491606
2.0502188,0.9856034,0.9137191,-8.180962,10.781956,5.710945,3.4670014,7.826131,4.7855988,1,1683900538.5070045
2.0502188,0.9856034,0.9137191,-7.6003075,8.668423,3.9010239,3.4670014,7.826131,4.7855988,1,1683900538.5172527
2.2500997,1.0834662,1.1770523,-7.6003075,8.668423,3.9010239,3.4670014,7.826131,4.7855988,1,1683900538.5326512
2.2500997,1.0834662,1.1770523,-6.8131065,6.6583633,2.7845764,3.4670014,7.826131,4.7855988,1,1683900538.5429213
2.2500997,1.0834662,1.1770523,-6.8131065,6.6583633,2.7845764,3.427845,7.6015596,5.1610622,1,1683900538.5531905
2.2500997,1.0834662,1.1770523,-1.5826797,-1.404705,-0.92565536,3.427845,7.6015596,5.1610622,1,1683900538.5685794
2.334556,1.4175916,2.4346786,-1.5826797,-1.404705,-0.92565536,3.427845,7.6015596,5.1610622,1,1683900538.5737078
2.334556,1.4175916,2.4346786,3.24934,-6.0375214,-3.004074,3.427845,7.6015596,5.1610622,1,1683900538.5890813
2.334556,1.4175916,2.4346786,3.24934,-6.0375214,-3.004074,3.5174415,7.4306297,5.346377,1,1683900538.6095324
1.7143949,1.3558378,2.4349363,3.24934,-6.0375214,-3.004074,3.5174415,7.4306297,5.346377,1,1683900538.619802
1.7143949,1.3558378,2.4349363,6.5698433,-8.845596,-4.3632507,3.5174415,7.4306297,5.346377,1,1683900538.6249397
1.7143949,1.3558378,2.4349363,6.5698433,-8.845596,-4.3632507,3.6296675,7.849544,4.623911,1,1683900538.635163
1.1045007,0.9612022,1.8059943,6.5698433,-8.845596,-4.3632507,3.6296675,7.849544,4.623911,1,1683900538.6864967
1.1045007,0.9612022,1.8059943,7.7702713,-9.666843,-5.4925156,3.6296675,7.849544,4.623911,1,1683900538.7224011
-0.25538638,0.48992026,0.10418673,7.7702713,-9.666843,-5.4925156,3.6296675,7.849544,4.623911,1,1683900538.7428942
-0.25538638,0.48992026,0.10418673,7.7702713,-9.666843,-5.4925156,3.1560926,9.153987,1.5537019,1,1683900538.7531555
-0.25538638,0.48992026,0.10418673,6.1340523,-8.334236,-4.605179,3.1560926,9.153987,1.5537019,1,1683900538.758296
-0.25538638,0.48992026,0.10418673,6.1340523,-8.334236,-4.605179,2.5569773,9.464357,0.24120721,1,1683900538.7685318
-0.77327174,0.4162161,0.1900839,6.1340523,-8.334236,-4.605179,2.5569773,9.464357,0.24120721,1,1683900538.7839203
-1.0214849,0.44697168,0.24158582,6.1340523,-8.334236,-4.605179,2.5569773,9.464357,0.24120721,1,1683900538.7941868
-1.0214849,0.44697168,0.24158582,6.1340523,-8.334236,-4.605179,2.3538404,9.519317,-0.11149779,1,1683900538.8146698
-1.0214849,0.44697168,0.24158582,5.5747604,-7.374401,-4.046955,2.3538404,9.519317,-0.11149779,1,1683900538.8198059
-1.5257062,0.41476023,0.053412758,5.5747604,-7.374401,-4.046955,2.3538404,9.519317,-0.11149779,1,1683900538.840265
-1.5257062,0.41476023,0.053412758,4.2783356,-4.450302,-2.4159431,2.3538404,9.519317,-0.11149779,1,1683900538.8454
-1.5257062,0.41476023,0.053412758,4.2783356,-4.450302,-2.4159431,1.9277105,9.577248,-0.8547725,1,1683900538.8607895
-1.7092386,0.34178403,-0.1750246,4.2783356,-4.450302,-2.4159431,1.9277105,9.577248,-0.8547725,1,1683900538.8813179
-1.7092386,0.34178403,-0.1750246,3.382454,-2.539177,-1.3890839,1.9277105,9.577248,-0.8547725,1,1683900538.891583
-1.5603592,0.17875531,-0.6504467,3.382454,-2.539177,-1.3890839,1.9277105,9.577248,-0.8547725,1,1683900538.9018588
-1.5603592,0.17875531,-0.6504467,-0.5962753,3.8247871,1.9473076,1.9277105,9.577248,-0.8547725,1,1683900538.922358
-1.5603592,0.17875531,-0.6504467,-0.5962753,3.8247871,1.9473076,2.0094762,9.551806,-0.94625026,1,1683900538.927493
-1.5603592,0.17875531,-0.6504467,-3.341465,7.503109,3.8338661,2.0094762,9.551806,-0.94625026,1,1683900538.9377596
-0.97876376,0.29784968,-0.63799584,-3.341465,7.503109,3.8338661,2.0094762,9.551806,-0.94625026,1,1683900538.9428957
-0.97876376,0.29784968,-0.63799584,-3.341465,7.503109,3.8338661,2.3543615,9.503263,-0.5615664,1,1683900538.958291
-0.3808351,0.3913296,-0.5369484,-3.341465,7.503109,3.8338661,2.3543615,9.503263,-0.5615664,1,1683900538.968531
-0.3808351,0.3913296,-0.5369484,-3.341465,7.503109,3.8338661,2.8139565,9.393337,0.13130444,1,1683900538.978794
-0.3808351,0.3913296,-0.5369484,-5.417614,9.6954155,5.064335,2.8139565,9.393337,0.13130444,1,1683900538.9890637
0.5912407,0.4381757,-0.107659616,-5.417614,9.6954155,5.064335,2.8139565,9.393337,0.13130444,1,1683900539.0146904
0.5912407,0.4381757,-0.107659616,-5.417614,9.6954155,5.064335,3.463318,9.040552,1.5634005,1,1683900539.0249555
0.5912407,0.4381757,-0.107659616,-7.490692,10.703182,5.7141495,3.463318,9.040552,1.5634005,1,1683900539.0300894
1.0271416,0.70200926,0.7323857,-7.490692,10.703182,5.7141495,3.463318,9.040552,1.5634005,1,1683900539.0711436
1.0271416,0.70200926,0.7323857,-8.369484,10.825615,4.9087906,3.463318,9.040552,1.5634005,1,1683900539.0968094
0.9988277,0.7359344,1.1831639,-8.369484,10.825615,4.9087906,3.463318,9.040552,1.5634005,1,1683900539.1070838
0.9988277,0.7359344,1.1831639,-8.032894,10.41132,3.995819,3.463318,9.040552,1.5634005,1,1683900539.112221
0.9988277,0.7359344,1.1831639,-8.032894,10.41132,3.995819,3.7882285,8.446371,3.2370558,1,1683900539.1224833
0.9988277,0.7359344,1.1831639,-8.032894,10.41132,3.995819,3.748622,7.967462,4.31715,1,1683900539.1378832
1.0127344,0.7366623,1.3149518,-8.032894,10.41132,3.995819,3.748622,7.967462,4.31715,1,1683900539.1532397
1.0127344,0.7366623,1.3149518,-7.5694656,9.870052,3.5207748,3.748622,7.967462,4.31715,1,1683900539.1583767
1.0127344,0.7366623,1.3149518,-7.5694656,9.870052,3.5207748,3.6669726,7.7227974,4.804383,1,1683900539.163507
1.0127344,0.7366623,1.3149518,-4.8593903,5.676098,1.8354225,3.6669726,7.7227974,4.804383,1,1683900539.1891692
1.0127344,0.7366623,1.3149518,-4.8593903,5.676098,1.8354225,3.3722632,7.098566,5.865885,1,1683900539.1994228
1.4966947,0.8660086,1.4616321,-4.8593903,5.676098,1.8354225,3.3722632,7.098566,5.865885,1,1683900539.2096941
2.073407,1.1591266,1.6971518,-4.8593903,5.676098,1.8354225,3.3722632,7.098566,5.865885,1,1683900539.2148345
2.073407,1.1591266,1.6971518,-3.4277153,3.327179,1.052494,3.3722632,7.098566,5.865885,1,1683900539.2251062
2.073407,1.1591266,1.6971518,-3.4277153,3.327179,1.052494,3.3233528,6.970965,6.0441175,1,1683900539.2302074
2.073407,1.1591266,1.6971518,-3.4277153,3.327179,1.052494,3.4641979,7.0227776,5.903415,1,1683900539.2506654
2.1451547,1.3995296,2.0476105,-3.4277153,3.327179,1.052494,3.4641979,7.0227776,5.903415,1,1683900539.26091
2.1451547,1.3995296,2.0476105,2.383232,-4.9871635,-2.0718765,3.4641979,7.0227776,5.903415,1,1683900539.26605
2.1451547,1.3995296,2.0476105,2.383232,-4.9871635,-2.0718765,3.6882076,7.425887,5.236766,1,1683900539.2968233
1.645574,1.2142835,1.8609084,2.383232,-4.9871635,-2.0718765,3.6882076,7.425887,5.236766,1,1683900539.3019652
1.645574,1.2142835,1.8609084,6.1149597,-9.26096,-4.0405464,3.6882076,7.425887,5.236766,1,1683900539.307109
1.645574,1.2142835,1.8609084,6.1149597,-9.26096,-4.0405464,3.8297842,7.970233,4.2401075,1,1683900539.3225172
1.1132815,0.8843133,1.4347893,6.1149597,-9.26096,-4.0405464,3.8297842,7.970233,4.2401075,1,1683900539.3430438
1.1132815,0.8843133,1.4347893,8.221951,-11.381969,-5.3549957,3.8297842,7.970233,4.2401075,1,1683900539.353306
1.1132815,0.8843133,1.4347893,8.221951,-11.381969,-5.3549957,3.779686,8.509858,3.076799,1,1683900539.378952
1.1132815,0.8843133,1.4347893,8.889923,-11.924171,-6.078377,3.779686,8.509858,3.076799,1,1683900539.3840911
1.1132815,0.8843133,1.4347893,8.446789,-11.831512,-6.345806,3.779686,8.509858,3.076799,1,1683900539.3994606
0.28056106,0.62781984,0.36630657,8.446789,-11.831512,-6.345806,3.779686,8.509858,3.076799,1,1683900539.4097297
0.28056106,0.62781984,0.36630657,8.446789,-11.831512,-6.345806,3.1013103,9.267386,0.8172061,1,1683900539.4199982
0.28056106,0.62781984,0.36630657,7.498703,-11.349926,-6.3116264,3.1013103,9.267386,0.8172061,1,1683900539.4353633
0.02162595,0.4564804,0.31894484,7.498703,-11.349926,-6.3116264,3.1013103,9.267386,0.8172061,1,1683900539.445632
0.02162595,0.4564804,0.31894484,6.5964127,-10.223999,-6.0006714,3.1013103,9.267386,0.8172061,1,1683900539.4661627
0.02162595,0.4564804,0.31894484,6.5964127,-10.223999,-6.0006714,2.5569425,9.466809,-0.109261,1,1683900539.4712613
0.02162595,0.4564804,0.31894484,6.5964127,-10.223999,-6.0006714,3.8317814,7.9015493,4.365014,1,1683900539.4815238
1.6353221,1.3829234,1.2534406,4.903717,-8.349056,-3.105278,3.8317814,7.9015493,4.365014,1,1683900539.4866757
1.3922501,1.2086722,1.1506946,6.0850525,-9.894886,-3.8689804,3.8317814,7.9015493,4.365014,1,1683900539.4969723
0.5253468,0.86626637,0.62280005,6.0850525,-9.894886,-3.8689804,3.8317814,7.9015493,4.365014,1,1683900539.5021114
0.5253468,0.86626637,0.62280005,6.0850525,-9.894886,-3.8689804,3.8532224,8.569584,2.8080776,1,1683900539.5174646
0.5253468,0.86626637,0.62280005,7.724476,-11.828308,-5.29438,3.8532224,8.569584,2.8080776,1,1683900539.5225956
0.5253468,0.86626637,0.62280005,7.724476,-11.828308,-5.29438,3.626868,8.95193,1.696807,1,1683900539.52773
0.5253468,0.86626637,0.62280005,7.785225,-11.879444,-5.5511284,3.626868,8.95193,1.696807,1,1683900539.5379314
0.5253468,0.86626637,0.62280005,7.1663857,-11.292515,-5.851536,3.626868,8.95193,1.696807,1,1683900539.5687418
0.034804735,0.52238953,0.38655248,7.1663857,-11.292515,-5.851536,3.626868,8.95193,1.696807,1,1683900539.573876
0.034804735,0.52238953,0.38655248,7.1663857,-11.292515,-5.851536,3.227292,9.23766,0.64853036,1,1683900539.6046915
0.034804735,0.52238953,0.38655248,5.109329,-6.596813,-3.518505,3.227292,9.23766,0.64853036,1,1683900539.6867278
-1.3202142,0.41645876,0.28087953,5.109329,-6.596813,-3.518505,3.227292,9.23766,0.64853036,1,1683900539.6969824
-1.3202142,0.41645876,0.28087953,-2.6138115,6.788273,2.6397133,3.227292,9.23766,0.64853036,1,1683900539.7021165
-1.3202142,0.41645876,0.28087953,-2.6138115,6.788273,2.6397133,1.9805722,9.3002,-2.398749,1,1683900539.7276728
-0.76449096,0.4950462,-0.9203768,-2.6138115,6.788273,2.6397133,1.9805722,9.3002,-2.398749,1,1683900539.7328098
-0.07185396,0.5955932,-0.82249886,-2.6138115,6.788273,2.6397133,1.9805722,9.3002,-2.398749,1,1683900539.7532744
-0.07185396,0.5955932,-0.82249886,-2.6138115,6.788273,2.6397133,2.763378,9.314609,-1.3312364,1,1683900539.763493
-0.07185396,0.5955932,-0.82249886,-6.4146996,11.418953,4.0107727,2.763378,9.314609,-1.3312364,1,1683900539.768628
0.39135993,0.5880408,-0.16184582,-6.4146996,11.418953,4.0107727,2.763378,9.314609,-1.3312364,1,1683900539.8148263
0.39135993,0.5880408,-0.16184582,-6.4146996,11.418953,4.0107727,3.4497097,9.172465,0.3684603,1,1683900539.8199594
0.39135993,0.5880408,-0.16184582,-8.816891,12.684536,4.238682,3.4497097,9.172465,0.3684603,1,1683900539.8353229
0.39135993,0.5880408,-0.16184582,-9.289932,12.407494,3.7636375,3.4497097,9.172465,0.3684603,1,1683900539.8507233
0.39135993,0.5880408,-0.16184582,-9.289932,12.407494,3.7636375,3.6822925,8.937312,1.6539545,1,1683900539.855861
0.51242584,0.63952756,0.32358548,-9.289932,12.407494,3.7636375,3.6822925,8.937312,1.6539545,1,1683900539.8609953
0.51242584,0.63952756,0.32358548,-8.743458,11.037636,3.0584145,3.6822925,8.937312,1.6539545,1,1683900539.8865814
0.557816,0.68150556,0.8658872,-8.743458,11.037636,3.0584145,3.6822925,8.937312,1.6539545,1,1683900539.896866
0.557816,0.68150556,0.8658872,-8.743458,11.037636,3.0584145,3.7127213,8.609683,2.873926,1,1683900539.9019983
1.087667,0.7745002,1.3666964,-8.743458,11.037636,3.0584145,3.7127213,8.609683,2.873926,1,1683900539.9224982
1.087667,0.7745002,1.3666964,-8.743458,11.037636,3.0584145,3.5554156,8.1046505,4.224222,1,1683900539.9378583
1.087667,0.7745002,1.3666964,-5.785179,6.4645004,1.5925598,3.5554156,8.1046505,4.224222,1,1683900539.942993
1.087667,0.7745002,1.3666964,-5.785179,6.4645004,1.5925598,3.2906933,8.35994,3.931048,1,1683900539.9635646
1.2777812,1.1696211,1.3591287,4.3774033,-5.5475235,-1.7278099,3.4031506,8.546053,3.3991075,1,1683900539.9688199
0.8382406,0.9668134,0.55446446,6.8232536,-8.043442,-3.4546852,3.349044,8.944011,2.226875,1,1683900539.9739852
0.8382406,0.9668134,0.55446446,7.0181847,-9.14587,-4.366455,3.349044,8.944011,2.226875,1,1683900539.9791846
0.8382406,0.9668134,0.55446446,7.0181847,-9.14587,-4.366455,2.810041,9.388215,0.36806768,1,1683900539.9894323
-0.049409077,0.6558759,0.10418673,7.0181847,-9.14587,-4.366455,2.810041,9.388215,0.36806768,1,1683900539.994566
-0.049409077,0.6558759,0.10418673,7.0181847,-9.14587,-4.366455,2.4016027,9.495606,-0.48596185,1,1683900540.0099888
-0.44844273,0.58315754,0.15226124,7.0181847,-9.14587,-4.366455,2.4016027,9.495606,-0.48596185,1,1683900540.0253975
-0.44844273,0.58315754,0.15226124,6.4930725,-8.604736,-4.0138435,2.4016027,9.495606,-0.48596185,1,1683900540.0305345
-0.44844273,0.58315754,0.15226124,6.4930725,-8.604736,-4.0138435,2.1940644,9.518738,-0.866084,1,1683900540.035671
-0.6107283,0.593652,0.124690436,6.4930725,-8.604736,-4.0138435,2.1940644,9.518738,-0.866084,1,1683900540.045945
-0.6107283,0.593652,0.124690436,6.147938,-7.976284,-3.6346626,2.1940644,9.518738,-0.866084,1,1683900540.0613532
-0.6107283,0.593652,0.124690436,6.147938,-7.976284,-3.6346626,1.6816379,9.498013,-1.7692518,1,1683900540.0818825
-0.31225687,0.591453,-1.3191526,6.147938,-7.976284,-3.6346626,1.6816379,9.498013,-1.7692518,1,1683900540.107549
-0.31225687,0.591453,-1.3191526,-4.31612,9.088192,3.369503,1.6816379,9.498013,-1.7692518,1,1683900540.1126857
-0.31225687,0.591453,-1.3191526,-4.31612,9.088192,3.369503,2.1068814,9.348712,-2.0815914,1,1683900540.1280963
-0.31225687,0.591453,-1.3191526,-7.328739,12.1795845,3.975525,2.1068814,9.348712,-2.0815914,1,1683900540.1383646
0.19367813,0.7061646,-0.92964286,-7.328739,12.1795845,3.975525,2.1068814,9.348712,-2.0815914,1,1683900540.1537242
0.19367813,0.7061646,-0.92964286,-7.328739,12.1795845,3.975525,2.6576576,9.362024,-1.2081988,1,1683900540.1639907
0.19367813,0.7061646,-0.92964286,-7.328739,12.1795845,3.975525,2.9065218,9.344225,-0.638735,1,1683900540.1793556
0.19367813,0.7061646,-0.92964286,-8.513279,13.092556,4.0203857,2.9065218,9.344225,-0.638735,1,1683900540.1947527
0.37892425,0.70860624,-0.7038898,-8.513279,13.092556,4.0203857,2.9065218,9.344225,-0.638735,1,1683900540.199885
0.37892425,0.70860624,-0.7038898,-8.513279,13.092556,4.0203857,3.358088,9.109579,1.3817421,1,1683900540.2101493
0.61589974,0.7083484,-0.039324045,-8.513279,13.092556,4.0203857,3.358088,9.109579,1.3817421,1,1683900540.215247
0.61589974,0.7083484,-0.039324045,-10.425472,13.651714,3.419571,3.358088,9.109579,1.3817421,1,1683900540.2357695
0.61589974,0.7083484,-0.039324045,-9.205685,9.710369,1.5382195,3.358088,9.109579,1.3817421,1,1683900540.2767131
0.61589974,0.7083484,-0.039324045,-9.205685,9.710369,1.5382195,3.1553888,8.412127,3.9306538,1,1683900540.2972603
0.61589974,0.7083484,-0.039324045,-6.4647675,4.7322845,0.65942764,3.1553888,8.412127,3.9306538,1,1683900540.302397
0.68520594,0.5685077,1.8316239,-6.4647675,4.7322845,0.65942764,3.1553888,8.412127,3.9306538,1,1683900540.307505
0.50655675,0.5999912,0.8517227,-6.4647675,4.7322845,0.65942764,3.1553888,8.412127,3.9306538,1,1683900540.3177762
0.50655675,0.5999912,0.8517227,-6.4647675,4.7322845,0.65942764,2.971048,8.056458,4.736743,1,1683900540.3433728
0.50655675,0.5999912,0.8517227,-6.4647675,4.7322845,0.65942764,2.934557,7.935705,4.95816,1,1683900540.3485086
0.8238334,0.70957685,2.3765948,-6.4647675,4.7322845,0.65942764,2.934557,7.935705,4.95816,1,1683900540.358794
0.14853054,0.75106955,-0.49302918,-6.4647675,4.7322845,0.65942764,2.934557,7.935705,4.95816,1,1683900540.3895543
0.14853054,0.75106955,-0.49302918,-6.4647675,4.7322845,0.65942764,2.56459,9.451245,-0.5169308,1,1683900540.4049637
0.14853054,0.75106955,-0.49302918,-7.2637177,9.853096,2.6184845,2.56459,9.451245,-0.5169308,1,1683900540.4100966
0.21833716,0.6946843,0.08051344,-7.2637177,9.853096,2.6184845,2.56459,9.451245,-0.5169308,1,1683900540.4151962
0.21833716,0.6946843,0.08051344,-7.9870987,9.719849,2.3350334,2.56459,9.451245,-0.5169308,1,1683900540.4408066
0.21833716,0.6946843,0.08051344,-7.9870987,9.719849,2.3350334,2.8781831,9.322466,0.98898005,1,1683900540.476691
0.21833716,0.6946843,0.08051344,-7.9870987,9.719849,2.3350334,2.9209075,9.241551,1.4941235,1,1683900540.4818263
0.21833716,0.6946843,0.08051344,-7.9870987,9.719849,2.3350334,2.9261143,9.039992,2.4262693,1,1683900540.4869547
0.31058866,0.7066499,0.7211632,-7.9870987,9.719849,2.3350334,2.9261143,9.039992,2.4262693,1,1683900540.49722
0.31058866,0.7066499,0.7211632,-7.155037,8.063335,1.7438316,2.9261143,9.039992,2.4262693,1,1683900540.5023546
0.6376167,0.86088264,1.3410667,-7.155037,8.063335,1.7438316,2.9261143,9.039992,2.4262693,1,1683900540.533103
0.6376167,0.86088264,1.3410667,-7.155037,8.063335,1.7438316,2.8478794,8.737163,3.4237335,1,1683900540.5484726
0.6376167,0.86088264,1.3410667,-4.353504,4.2178535,0.9480858,2.8478794,8.737163,3.4237335,1,1683900540.5536141
0.82530445,0.94703764,1.5089787,-4.353504,4.2178535,0.9480858,2.8478794,8.737163,3.4237335,1,1683900540.5587535
0.82530445,0.94703764,1.5089787,-4.353504,4.2178535,0.9480858,2.8369138,8.670338,3.5982685,1,1683900540.5638888
0.82530445,0.94703764,1.5089787,-2.9505348,2.4323654,0.62538147,2.8369138,8.670338,3.5982685,1,1683900540.5792172
1.3056098,1.2367435,1.7044615,-2.9505348,2.4323654,0.62538147,2.8369138,8.670338,3.5982685,1,1683900540.6048825
1.3056098,1.2367435,1.7044615,-2.9505348,2.4323654,0.62538147,2.9144151,8.678142,3.516594,1,1683900540.6100223
1.3056098,1.2367435,1.7044615,2.1105957,-3.6055565,-0.74567795,2.9144151,8.678142,3.516594,1,1683900540.6202543
1.3056098,1.2367435,1.7044615,-5.581703,6.1416626,1.7406273,2.9144151,8.678142,3.516594,1,1683900540.6613233
0.72035944,0.82965696,0.9698465,-5.581703,6.1416626,1.7406273,2.9144151,8.678142,3.516594,1,1683900540.666459
0.72035944,0.82965696,0.9698465,-5.581703,6.1416626,1.7406273,2.6480632,9.128363,2.4147782,1,1683900540.6818585
0.72035944,0.82965696,0.9698465,-0.80402374,-0.42564392,0.055408478,2.6480632,9.128363,2.4147782,1,1683900540.707524
0.72035944,0.82965696,0.9698465,-0.80402374,-0.42564392,0.055408478,2.6819043,8.915253,3.0815656,1,1683900540.7178092
0.72035944,0.82965696,0.9698465,2.2768211,-4.457779,-0.98213196,2.6819043,8.915253,3.0815656,1,1683900540.733202
1.1508766,1.1173912,1.3171507,2.2768211,-4.457779,-0.98213196,2.6819043,8.915253,3.0815656,1,1683900540.7588415
1.2443414,1.2540624,1.3796325,2.2768211,-4.457779,-0.98213196,2.6819043,8.915253,3.0815656,1,1683900540.7639446
1.2443414,1.2540624,1.3796325,2.2768211,-4.457779,-0.98213196,2.739332,8.966946,2.874079,1,1683900540.7690868
1.2443414,1.2540624,1.3796325,2.2768211,-4.457779,-0.98213196,2.7638156,9.033644,2.6315374,1,1683900540.7844677
1.2016354,1.2543051,1.2929921,2.2768211,-4.457779,-0.98213196,2.7638156,9.033644,2.6315374,1,1683900540.79988
1.2016354,1.2543051,1.2929921,3.717041,-6.178112,-1.5318108,2.7638156,9.033644,2.6315374,1,1683900540.8050127
1.2016354,1.2543051,1.2929921,6.5634346,-9.3014145,-3.016758,2.7638156,9.033644,2.6315374,1,1683900540.8101552
1.2016354,1.2543051,1.2929921,6.5634346,-9.3014145,-3.016758,2.6953518,9.306552,1.51445,1,1683900540.8203864
0.78112745,1.0183002,0.8214676,6.5634346,-9.3014145,-3.016758,2.6953518,9.306552,1.51445,1,1683900540.8409207
0.78112745,1.0183002,0.8214676,6.760502,-8.584576,-3.5888672,2.6953518,9.306552,1.51445,1,1683900540.9230576
-0.70103866,0.50993866,0.13956775,6.760502,-8.584576,-3.5888672,2.6953518,9.306552,1.51445,1,1683900540.9281592
-0.70103866,0.50993866,0.13956775,6.760502,-8.584576,-3.5888672,1.7453129,9.498891,-1.7015675,1,1683900540.938379
-0.70103866,0.50993866,0.13956775,-5.3600693,8.588581,3.4035492,1.7453129,9.498891,-1.7015675,1,1683900540.9435046
-0.049651723,0.68590355,-1.1380618,-5.3600693,8.588581,3.4035492,1.7453129,9.498891,-1.7015675,1,1683900540.9742308
-0.049651723,0.68590355,-1.1380618,-5.3600693,8.588581,3.4035492,1.9873908,9.512519,-1.3162999,1,1683900540.9844518
-0.049651723,0.68590355,-1.1380618,-6.529789,9.342804,3.6635017,1.9873908,9.512519,-1.3162999,1,1683900540.994723
-0.049651723,0.68590355,-1.1380618,-8.985252,10.467663,3.5719109,1.9873908,9.512519,-1.3162999,1,1683900541.0101306
-0.049651723,0.68590355,-1.1380618,-8.985252,10.467663,3.5719109,2.6064,9.451963,0.19349976,1,1683900541.0254543
0.47263163,0.6861462,-0.33658227,-8.985252,10.467663,3.5719109,2.6064,9.451963,0.19349976,1,1683900541.0305974
0.58612996,0.68687415,0.2464691,-8.985252,10.467663,3.5719109,2.6064,9.451963,0.19349976,1,1683900541.035728
0.58612996,0.68687415,0.2464691,-9.649887,10.498638,2.9358482,2.6064,9.451963,0.19349976,1,1683900541.0511353
0.58612996,0.68687415,0.2464691,-9.649887,10.498638,2.9358482,2.8248937,9.289459,1.3770634,1,1683900541.0665374
0.61735564,0.633431,0.89151686,-9.649887,10.498638,2.9358482,2.8248937,9.289459,1.3770634,1,1683900541.0819259
0.61735564,0.633431,0.89151686,-9.325047,9.383259,2.0752144,2.8248937,9.289459,1.3770634,1,1683900541.092194
0.61735564,0.633431,0.89151686,-9.325047,9.383259,2.0752144,2.854262,9.033303,2.5343673,1,1683900541.0973263
0.61735564,0.633431,0.89151686,-9.325047,9.383259,2.0752144,2.7643905,8.733072,3.501711,1,1683900541.1127336
0.61735564,0.633431,0.89151686,-7.7207375,6.859703,1.3049698,2.7643905,8.733072,3.501711,1,1683900541.1178691
0.5387834,0.59389466,1.658586,-7.7207375,6.859703,1.3049698,2.7643905,8.733072,3.501711,1,1683900541.133275
0.5387834,0.59389466,1.658586,-6.410427,5.297985,1.0280609,2.7643905,8.733072,3.501711,1,1683900541.1486835
0.5605003,0.6236645,1.9882983,-6.410427,5.297985,1.0280609,2.7643905,8.733072,3.501711,1,1683900541.1640606
0.5605003,0.6236645,1.9882983,-6.410427,5.297985,1.0280609,2.713758,8.593356,3.8678348,1,1683900541.169164
0.5605003,0.6236645,1.9882983,-6.410427,5.297985,1.0280609,2.6579642,8.357341,4.3886743,1,1683900541.1794171
0.5605003,0.6236645,1.9882983,-1.2779999,0.33805847,0.18117905,2.6579642,8.357341,4.3886743,1,1683900541.189688
0.7657497,0.8923662,2.09203,-1.2779999,0.33805847,0.18117905,2.6579642,8.357341,4.3886743,1,1683900541.205068
0.7657497,0.8923662,2.09203,5.3053284,-6.31443,-2.5491905,2.6579642,8.357341,4.3886743,1,1683900541.2152975
0.48556778,0.87163496,0.5408004,5.3053284,-6.31443,-2.5491905,2.6579642,8.357341,4.3886743,1,1683900541.2204301
0.48556778,0.87163496,0.5408004,5.3053284,-6.31443,-2.5491905,3.4569457,8.695926,2.9327133,1,1683900541.2358377
0.38160855,0.86064,0.21351455,5.3053284,-6.31443,-2.5491905,3.4569457,8.695926,2.9327133,1,1683900541.2614787
0.38160855,0.86064,0.21351455,5.8719635,-7.594967,-2.9486656,3.4569457,8.695926,2.9327133,1,1683900541.2666142
0.38160855,0.86064,0.21351455,5.8719635,-7.594967,-2.9486656,3.3929062,8.939732,2.1771007,1,1683900541.2768483
0.38160855,0.86064,0.21351455,5.9945297,-8.064671,-3.1254387,3.3929062,8.939732,2.1771007,1,1683900541.2870889
0.33791682,0.8567425,0.1083269,5.9945297,-8.064671,-3.1254387,3.3929062,8.939732,2.1771007,1,1683900541.2973607
0.33791682,0.8567425,0.1083269,5.9945297,-8.064671,-3.1254387,3.3325448,9.050992,1.7731576,1,1683900541.3025002
-0.24561983,0.68907315,-0.062026743,5.9945297,-8.064671,-3.1254387,3.3325448,9.050992,1.7731576,1,1683900541.3435593
-0.24561983,0.68907315,-0.062026743,5.9945297,-8.064671,-3.1254387,2.6847463,9.429734,-0.20644292,1,1683900541.34869
-0.24561983,0.68907315,-0.062026743,5.375557,-8.115807,-3.4578896,2.6847463,9.429734,-0.20644292,1,1683900541.353829
-0.24561983,0.68907315,-0.062026743,5.375557,-8.115807,-3.4578896,3.0064697,9.318463,0.5456724,1,1683900541.3641047
0.056036383,0.7727865,-0.045177914,5.375557,-8.115807,-3.4578896,3.0064697,9.318463,0.5456724,1,1683900541.3692493
0.056036383,0.7727865,-0.045177914,5.835781,-8.543053,-3.508892,3.0064697,9.318463,0.5456724,1,1683900541.3743703
-0.6593033,0.6156116,-0.06299733,5.835781,-8.543053,-3.508892,3.0064697,9.318463,0.5456724,1,1683900541.394897
-0.6593033,0.6156116,-0.06299733,4.646969,-6.984539,-2.942257,3.0064697,9.318463,0.5456724,1,1683900541.415422
-0.6593033,0.6156116,-0.06299733,4.646969,-6.984539,-2.942257,2.3361228,9.486427,-0.84888726,1,1683900541.4205568
-0.6593033,0.6156116,-0.06299733,3.4922028,-4.8412323,-1.8503761,2.3361228,9.486427,-0.84888726,1,1683900541.435988
-1.1037272,0.49601677,-0.2645918,3.4922028,-4.8412323,-1.8503761,2.3361228,9.486427,-0.84888726,1,1683900541.4411292
-1.1037272,0.49601677,-0.2645918,3.4922028,-4.8412323,-1.8503761,2.0459423,9.49765,-1.3338395,1,1683900541.456506
-1.3409605,0.3923002,-0.41151482,3.4922028,-4.8412323,-1.8503761,2.0459423,9.49765,-1.3338395,1,1683900541.476992
-1.3409605,0.3923002,-0.41151482,3.4922028,-4.8412323,-1.8503761,1.952725,9.4928875,-1.4974474,1,1683900541.4821641
-0.9075013,0.5802306,-0.4610604,3.4922028,-4.8412323,-1.8503761,1.952725,9.4928875,-1.4974474,1,1683900541.4873316
-0.9075013,0.5802306,-0.4610604,3.4922028,-4.8412323,-1.8503761,1.102476,9.564426,-1.8645854,1,1683900541.507806
-0.9075013,0.5802306,-0.4610604,-1.4207268,3.025837,1.9963074,1.102476,9.564426,-1.8645854,1,1683900541.5180786
-0.4210994,0.6397702,-0.5557535,-1.4207268,3.025837,1.9963074,1.102476,9.564426,-1.8645854,1,1683900541.543814
-0.4210994,0.6397702,-0.5557535,-1.4207268,3.025837,1.9963074,1.4636024,9.576315,-1.5239555,1,1683900541.548964
-0.4210994,0.6397702,-0.5557535,-3.4000778,6.4388657,3.2277107,1.4636024,9.576315,-1.5239555,1,1683900541.5541298
-0.4210994,0.6397702,-0.5557535,-3.4000778,6.4388657,3.2277107,1.688621,9.577357,-1.2622083,1,1683900541.5592706
-0.14141794,0.71129054,-0.52645385,-3.4000778,6.4388657,3.2277107,1.688621,9.577357,-1.2622083,1,1683900541.5695794
-0.14141794,0.71129054,-0.52645385,-4.3034363,7.699108,3.6453438,1.688621,9.577357,-1.2622083,1,1683900541.5901563
-0.14141794,0.71129054,-0.52645385,-6.487198,10.123596,4.0075684,1.688621,9.577357,-1.2622083,1,1683900541.6004305
0.35036767,0.76277727,-0.2667908,-6.487198,10.123596,4.0075684,1.688621,9.577357,-1.2622083,1,1683900541.6055803
0.35036767,0.76277727,-0.2667908,-6.487198,10.123596,4.0075684,2.3606224,9.5170555,-0.15337095,1,1683900541.6210153
0.41357732,0.72959524,-0.1645301,-6.487198,10.123596,4.0075684,2.3606224,9.5170555,-0.15337095,1,1683900541.6518917
0.41357732,0.72959524,-0.1645301,-7.0261955,10.568867,3.9074326,2.3606224,9.5170555,-0.15337095,1,1683900541.6570394
0.41357732,0.72959524,-0.1645301,-7.0261955,10.568867,3.9074326,2.5447648,9.465714,0.30791548,1,1683900541.662232
0.43408102,0.7910912,0.46612567,-7.0261955,10.568867,3.9074326,2.5447648,9.465714,0.30791548,1,1683900541.6724408
0.43408102,0.7910912,0.46612567,-7.867737,10.81707,3.1936646,2.5447648,9.465714,0.30791548,1,1683900541.698253
0.43408102,0.7910912,0.46612567,-7.867737,10.81707,3.1936646,2.865263,9.198052,1.8320755,1,1683900541.7033894
0.41406262,0.79181916,0.8461115,-7.867737,10.81707,3.1936646,2.865263,9.198052,1.8320755,1,1683900541.7085412
0.41406262,0.79181916,0.8461115,-7.3116493,9.842415,2.5172806,2.865263,9.198052,1.8320755,1,1683900541.7137184
0.41406262,0.79181916,0.8461115,-7.3116493,9.842415,2.5172806,2.8757963,8.941404,2.8198357,1,1683900541.7343569
0.41406262,0.79181916,0.8461115,-6.662903,8.893261,2.173214,2.8757963,8.941404,2.8198357,1,1683900541.744629
0.46409348,0.78816426,0.98693794,-6.662903,8.893261,2.173214,2.8757963,8.941404,2.8198357,1,1683900541.7601168
0.46409348,0.78816426,0.98693794,-6.662903,8.893261,2.173214,2.839272,8.806776,3.2480164,1,1683900541.7652469
0.9885758,0.9694977,1.6834725,-6.662903,8.893261,2.173214,2.839272,8.806776,3.2480164,1,1683900541.780705
0.9885758,0.9694977,1.6834725,-1.3706589,1.5141869,0.3697014,2.839272,8.806776,3.2480164,1,1683900541.7961102
0.9885758,0.9694977,1.6834725,-1.3706589,1.5141869,0.3697014,2.658768,8.606356,3.877109,1,1683900541.801248
0.9885758,0.9694977,1.6834725,1.9252777,-2.506199,-0.70949554,2.658768,8.606356,3.877109,1,1683900541.8218076
1.0993747,1.100315,1.6559017,1.9252777,-2.506199,-0.70949554,2.658768,8.606356,3.877109,1,1683900541.8269453
1.0993747,1.100315,1.6559017,1.9252777,-2.506199,-0.70949554,2.6679935,8.605675,3.872282,1,1683900541.8372374
0.95269436,1.0998297,1.2907932,1.9252777,-2.506199,-0.70949554,2.6679935,8.605675,3.872282,1,1683900541.8475533
0.95269436,1.0998297,1.2907932,5.037899,-6.1631584,-1.7971039,2.6679935,8.605675,3.872282,1,1683900541.8630111
0.95269436,1.0998297,1.2907932,5.037899,-6.1631584,-1.7971039,2.7577932,8.825347,3.267752,1,1683900541.8681562
0.66153264,0.9424122,0.79779434,5.037899,-6.1631584,-1.7971039,2.7577932,8.825347,3.267752,1,1683900541.8938656
0.66153264,0.9424122,0.79779434,5.037899,-6.1631584,-1.7971039,2.769204,9.078391,2.4667208,1,1683900541.899026
0.66153264,0.9424122,0.79779434,7.0534325,-8.545189,-2.771759,2.769204,9.078391,2.4667208,1,1683900541.9041872
0.49898922,0.8833427,0.56594473,7.0534325,-8.545189,-2.771759,2.769204,9.078391,2.4667208,1,1683900541.9144514
0.49898922,0.8833427,0.56594473,7.608452,-9.278049,-3.161621,2.769204,9.078391,2.4667208,1,1683900541.9196432
0.49898922,0.8833427,0.56594473,7.608452,-9.278049,-3.161621,2.730445,9.205152,1.9950564,1,1683900541.9299505
0.49898922,0.8833427,0.56594473,7.9258156,-10.214386,-3.8306618,2.730445,9.205152,1.9950564,1,1683900541.945417
0.49898922,0.8833427,0.56594473,7.9258156,-10.214386,-3.8306618,2.4009514,9.495246,0.49610206,1,1683900541.960837
0.034804735,0.72519726,0.1100406,7.9258156,-10.214386,-3.8306618,2.4009514,9.495246,0.49610206,1,1683900541.9762633
-0.2829572,0.6409986,0.062208727,7.9258156,-10.214386,-3.8306618,2.4009514,9.495246,0.49610206,1,1683900541.9813986
-0.2829572,0.6409986,0.062208727,7.9258156,-10.214386,-3.8306618,2.0286477,9.583946,-0.4504919,1,1683900541.98653
-0.2829572,0.6409986,0.062208727,7.4773407,-9.983273,-3.8062286,2.0286477,9.583946,-0.4504919,1,1683900541.9968152
-0.5909677,0.65002203,0.008750472,7.4773407,-9.983273,-3.8062286,2.0286477,9.583946,-0.4504919,1,1683900542.0173383
-0.5909677,0.65002203,0.008750472,7.4773407,-9.983273,-3.8062286,1.6012485,9.589496,-1.2837266,1,1683900542.0327034
-0.5909677,0.65002203,0.008750472,6.193733,-8.5227585,-2.636509,1.6012485,9.589496,-1.2837266,1,1683900542.0583963
-0.5909677,0.65002203,0.008750472,6.193733,-8.5227585,-2.636509,2.1807802,9.551287,-0.43302235,1,1683900542.0840814
-0.1350636,0.83623874,-0.42346522,6.193733,-8.5227585,-2.636509,2.1807802,9.551287,-0.43302235,1,1683900542.0892243
-0.1350636,0.83623874,-0.42346522,6.193733,-8.5227585,-2.636509,1.89667,9.556212,-1.1188576,1,1683900542.0994942
-0.1350636,0.83623874,-0.42346522,5.165806,-7.3467636,-2.1379662,1.89667,9.556212,-1.1188576,1,1683900542.1046433
-0.1714304,0.92604864,-0.5052222,5.165806,-7.3467636,-2.1379662,1.89667,9.556212,-1.1188576,1,1683900542.1097534
-0.1714304,0.92604864,-0.5052222,3.7745857,-5.391979,-1.5115166,1.89667,9.556212,-1.1188576,1,1683900542.1200435
-0.319324,0.9829191,-0.61920583,3.7745857,-5.391979,-1.5115166,1.89667,9.556212,-1.1188576,1,1683900542.1251912
-0.319324,0.9829191,-0.61920583,3.7745857,-5.391979,-1.5115166,1.6432897,9.529354,-1.6313815,1,1683900542.135426
-0.319324,0.9829191,-0.61920583,1.8688011,-2.429428,-0.61670303,1.6432897,9.529354,-1.6313815,1,1683900542.150805
-0.5365389,0.95924586,-0.84959954,1.8688011,-2.429428,-0.61670303,1.6432897,9.529354,-1.6313815,1,1683900542.1764345
-0.5365389,0.95924586,-0.84959954,1.8688011,-2.429428,-0.61670303,1.4889745,9.50025,-1.9231714,1,1683900542.181567
-0.69030154,0.7984161,-1.1746712,1.8688011,-2.429428,-0.61670303,1.4889745,9.50025,-1.9231714,1,1683900542.1867046
-0.69030154,0.7984161,-1.1746712,-0.73259354,1.4832115,0.5624962,1.4889745,9.50025,-1.9231714,1,1683900542.2071867
-0.69030154,0.7984161,-1.1746712,-0.73259354,1.4832115,0.5624962,1.5019727,9.49574,-1.9353029,1,1683900542.2123294
-0.69030154,0.7984161,-1.1746712,-3.902893,5.8498,1.8173981,1.5019727,9.49574,-1.9353029,1,1683900542.2226012
-0.54020894,0.637829,-1.2781603,-3.902893,5.8498,1.8173981,1.5019727,9.49574,-1.9353029,1,1683900542.2277405
-0.54020894,0.637829,-1.2781603,-3.902893,5.8498,1.8173981,1.7109017,9.524076,-1.5922223,1,1683900542.2483015
-0.54020894,0.637829,-1.2781603,-6.7630386,9.20969,2.6844406,1.7109017,9.524076,-1.5922223,1,1683900542.2791133
-0.21730591,0.71079004,-1.0939,-6.7630386,9.20969,2.6844406,1.7109017,9.524076,-1.5922223,1,1683900542.2842517
-0.21730591,0.71079004,-1.0939,-6.7630386,9.20969,2.6844406,2.0436628,9.550909,-0.8797464,1,1683900542.2894006
-0.17362937,0.6593033,-0.84837115,-6.7630386,9.20969,2.6844406,2.0436628,9.550909,-0.8797464,1,1683900542.2945435
-0.17362937,0.6593033,-0.84837115,-6.7630386,9.20969,2.6844406,2.2110205,9.545661,-0.40262577,1,1683900542.3048203
-0.06745598,0.3747234,-0.4190824,-6.7630386,9.20969,2.6844406,2.2110205,9.545661,-0.40262577,1,1683900542.335665
-0.06745598,0.3747234,-0.4190824,-6.7630386,9.20969,2.6844406,2.5548038,9.446269,0.6413678,1,1683900542.3459415
-0.06745598,0.3747234,-0.4190824,-8.619823,10.744705,4.4378853,2.5548038,9.446269,0.6413678,1,1683900542.3510425
-0.06745598,0.3747234,-0.4190824,-9.650955,10.739365,3.9660454,2.5548038,9.446269,0.6413678,1,1683900542.371561
0.40478137,0.41500288,0.39022252,-9.650955,10.739365,3.9660454,2.5548038,9.446269,0.6413678,1,1683900542.3767207
0.40478137,0.41500288,0.39022252,-9.650955,10.739365,3.9660454,2.8276095,9.214425,1.8081458,1,1683900542.3818576
0.40478137,0.41500288,0.39022252,-9.650955,10.739365,3.9660454,2.898406,9.055136,2.4029446,1,1683900542.412588
1.097661,0.8047553,1.9939246,-9.650955,10.739365,3.9660454,2.898406,9.055136,2.4029446,1,1683900542.422831
1.097661,0.8047553,1.9939246,-6.7694473,5.52269,1.715126,2.898406,9.055136,2.4029446,1,1683900542.438241
1.097661,0.8047553,1.9939246,-6.7694473,5.52269,1.715126,2.8750021,8.486569,3.985334,1,1683900542.4536185
1.4005456,1.0551674,2.627007,-6.7694473,5.52269,1.715126,2.8750021,8.486569,3.985334,1,1683900542.5049243
1.4005456,1.0551674,2.627007,-0.44286728,-1.0807991,0.13418198,2.8750021,8.486569,3.985334,1,1683900542.5100648
1.4005456,1.0551674,2.627007,-0.44286728,-1.0807991,0.13418198,2.8702617,8.059004,4.794209,1,1683900542.5151772
1.4005456,1.0551674,2.627007,3.5593605,-4.695301,-1.061039,2.8702617,8.059004,4.794209,1,1683900542.5305755
1.4005456,1.0551674,2.627007,3.5593605,-4.695301,-1.061039,3.0051076,8.181995,4.4938474,1,1683900542.540849
1.4005456,1.0551674,2.627007,4.9899673,-6.024704,-1.7033768,3.0051076,8.181995,4.4938474,1,1683900542.5716226
1.3312243,1.1476616,1.7515655,4.9899673,-6.024704,-1.7033768,3.0051076,8.181995,4.4938474,1,1683900542.576761
1.3312243,1.1476616,1.7515655,4.9899673,-6.024704,-1.7033768,3.0740166,8.308165,4.206567,1,1683900542.587035
1.3312243,1.1476616,1.7515655,7.600975,-8.610077,-4.018116,3.0740166,8.308165,4.206567,1,1683900542.5921726
0.49313533,0.8472186,0.63964885,7.600975,-8.610077,-4.018116,3.0740166,8.308165,4.206567,1,1683900542.6178348
0.49313533,0.8472186,0.63964885,7.276001,-8.984051,-4.597702,3.0740166,8.308165,4.206567,1,1683900542.6229653
0.49313533,0.8472186,0.63964885,7.276001,-8.984051,-4.597702,2.667269,9.276017,1.7353908,1,1683900542.6281013
0.49313533,0.8472186,0.63964885,6.867981,-8.8518715,-5.05579,2.667269,9.276017,1.7353908,1,1683900542.6486459
-0.1875361,0.5423928,0.15885822,6.867981,-8.8518715,-5.05579,2.667269,9.276017,1.7353908,1,1683900542.6588917
-0.1875361,0.5423928,0.15885822,6.867981,-8.8518715,-5.05579,2.1040754,9.569173,0.41736877,1,1683900542.6640358
-0.1875361,0.5423928,0.15885822,6.52071,-8.530235,-4.9629974,2.1040754,9.569173,0.41736877,1,1683900542.6794276
-0.1875361,0.5423928,0.15885822,6.52071,-8.530235,-4.9629974,1.8683722,9.627001,0.020398038,1,1683900542.6948225
-0.45966518,0.4630774,0.10711366,6.52071,-8.530235,-4.9629974,1.8683722,9.627001,0.020398038,1,1683900542.6999626
-0.45966518,0.4630774,0.10711366,6.52071,-8.530235,-4.9629974,1.1677492,9.68974,-0.9569157,1,1683900542.7102876
-0.45966518,0.4630774,0.10711366,5.6355095,-7.324333,-4.2673874,1.1677492,9.68974,-0.9569157,1,1683900542.7205534
-1.0302657,0.3923002,0.020473374,5.6355095,-7.324333,-4.2673874,1.1677492,9.68974,-0.9569157,1,1683900542.7308156
-1.0302657,0.3923002,0.020473374,5.0507164,-6.3602257,-3.669777,1.1677492,9.68974,-0.9569157,1,1683900542.7513177
-1.2931135,0.38571838,-0.104490034,5.0507164,-6.3602257,-3.669777,1.1677492,9.68974,-0.9569157,1,1683900542.7667334
-1.2931135,0.38571838,-0.104490034,2.3705482,-1.9234085,-1.1462212,1.1677492,9.68974,-0.9569157,1,1683900542.7821321
-1.7126509,0.41206077,-0.5899213,2.3705482,-1.9234085,-1.1462212,1.1677492,9.68974,-0.9569157,1,1683900542.7872136
-1.7126509,0.41206077,-0.5899213,2.3705482,-1.9234085,-1.1462212,0.7451517,9.660694,-1.511993,1,1683900542.797487
-1.3697445,0.40644956,-0.983829,2.3705482,-1.9234085,-1.1462212,0.7451517,9.660694,-1.511993,1,1683900542.8128877
-1.3697445,0.40644956,-0.983829,-1.4910889,4.21999,1.737423,0.7451517,9.660694,-1.511993,1,1683900542.818027
-1.3697445,0.40644956,-0.983829,-1.4910889,4.21999,1.737423,0.7523035,9.651358,-1.567074,1,1683900542.8283002
-1.0920194,0.48259535,-1.0550915,-1.4910889,4.21999,1.737423,0.7523035,9.651358,-1.567074,1,1683900542.8540058
-1.0920194,0.48259535,-1.0550915,-1.4910889,4.21999,1.737423,1.0001601,9.662776,-1.3419482,1,1683900542.8591352
-1.0920194,0.48259535,-1.0550915,-2.7449226,5.8988,2.5331688,1.0001601,9.662776,-1.3419482,1,1683900542.8642695
-1.0920194,0.48259535,-1.0550915,-9.286728,10.968342,4.997177,1.0001601,9.662776,-1.3419482,1,1683900542.884778
0.5548891,0.34129873,-0.07300653,-9.286728,10.968342,4.997177,1.0001601,9.662776,-1.3419482,1,1683900542.8950415
0.5548891,0.34129873,-0.07300653,-10.201702,10.897045,4.5711327,1.0001601,9.662776,-1.3419482,1,1683900542.9104083
0.06774412,0.25758538,-0.44128463,-10.201702,10.897045,4.5711327,1.0001601,9.662776,-1.3419482,1,1683900542.9155457
0.06774412,0.25758538,-0.44128463,-10.201702,10.897045,4.5711327,2.4358754,9.467711,0.7741759,1,1683900542.9206817
0.06774412,0.25758538,-0.44128463,-10.201702,10.897045,4.5711327,2.7338052,9.205808,1.9874111,1,1683900542.92582
0.7786858,0.45942253,0.14005305,-10.201702,10.897045,4.5711327,2.7338052,9.205808,1.9874111,1,1683900542.9514675
0.7786858,0.45942253,0.14005305,-10.201702,10.897045,4.5711327,2.8076231,9.030161,2.5968916,1,1683900542.9566028
0.7786858,0.45942253,0.14005305,-10.298634,10.353775,4.065113,2.8076231,9.030161,2.5968916,1,1683900542.972015
1.2746116,0.96217275,1.4040337,-10.298634,10.353775,4.065113,2.8076231,9.030161,2.5968916,1,1683900542.9976826
1.2746116,0.96217275,1.4040337,-9.514637,7.900448,2.5566673,2.8076231,9.030161,2.5968916,1,1683900543.00282
1.2746116,0.96217275,1.4040337,-9.514637,7.900448,2.5566673,2.78368,8.431009,4.164083,1,1683900543.0079494
1.2746116,0.96217275,1.4040337,-8.48671,5.974369,1.6351509,2.78368,8.431009,4.164083,1,1683900543.0284445
1.4867007,0.96217275,1.4040337,-8.48671,5.974369,1.6351509,2.78368,8.431009,4.164083,1,1683900543.0387187
1.6177605,1.0275815,2.8849714,-8.48671,5.974369,1.6351509,2.78368,8.431009,4.164083,1,1683900543.0540817
1.6177605,1.0275815,2.8849714,-8.48671,5.974369,1.6351509,2.7867308,8.046751,4.86357,1,1683900543.0591903
1.6177605,1.0275815,2.8849714,-2.807808,-1.3332748,-0.6977463,2.7867308,8.046751,4.86357,1,1683900543.0797338
1.6177605,1.0275815,2.8849714,-0.50575256,-3.2741737,-1.297493,2.7867308,8.046751,4.86357,1,1683900543.0900033
1.4940103,1.0612639,3.01773,-0.50575256,-3.2741737,-1.297493,2.7867308,8.046751,4.86357,1,1683900543.0951438
1.4940103,1.0612639,3.01773,-0.50575256,-3.2741737,-1.297493,2.8988032,8.3278055,4.2912674,1,1683900543.1207416
0.88266027,0.967784,2.0590756,-0.50575256,-3.2741737,-1.297493,2.8988032,8.3278055,4.2912674,1,1683900543.1310244
0.88266027,0.967784,2.0590756,4.528675,-6.4199066,-2.83144,2.8988032,8.3278055,4.2912674,1,1683900543.1464329
0.88266027,0.967784,2.0590756,6.1106873,-6.3944054,-5.620289,2.8988032,8.3278055,4.2912674,1,1683900543.1618023
-0.8164782,0.23147045,0.26208952,6.1106873,-6.3944054,-5.620289,2.8988032,8.3278055,4.2912674,1,1683900543.172083
-0.8164782,0.23147045,0.26208952,6.1106873,-6.3944054,-5.620289,1.4330654,9.629128,1.1817757,1,1683900543.1772208
-0.8164782,0.23147045,0.26208952,6.1106873,-6.3944054,-5.620289,1.1993122,9.694,0.87086016,1,1683900543.2029064
-0.8164782,0.23147045,0.26208952,6.1106873,-6.3944054,-5.620289,0.60456055,9.787153,0.12854657,1,1683900543.2439613
-0.8164782,0.23147045,0.26208952,4.003563,-3.7003517,-3.2330513,0.60456055,9.787153,0.12854657,1,1683900543.2490587
-1.4976349,0.29175317,-0.29022145,4.003563,-3.7003517,-3.2330513,0.60456055,9.787153,0.12854657,1,1683900543.254157
-1.4976349,0.29175317,-0.29022145,2.6688194,-1.9980431,-1.7810822,0.60456055,9.787153,0.12854657,1,1683900543.2694957
-1.4976349,0.29175317,-0.29022145,2.6688194,-1.9980431,-1.7810822,0.35855556,9.798311,-0.18685496,1,1683900543.2746332
-1.4239308,0.45379615,-0.44275567,2.6688194,-1.9980431,-1.7810822,0.35855556,9.798311,-0.18685496,1,1683900543.2797706
-1.3314366,0.51579255,-0.54915655,2.6688194,-1.9980431,-1.7810822,0.35855556,9.798311,-0.18685496,1,1683900543.3003352
-1.3314366,0.51579255,-0.54915655,2.6688194,-1.9980431,-1.7810822,0.28624916,9.798066,-0.293857,1,1683900543.3054507
-1.3314366,0.51579255,-0.54915655,2.0083237,-1.1351395,-1.1068344,0.28624916,9.798066,-0.293857,1,1683900543.3157215
-1.1559571,0.568265,-0.78394824,2.0083237,-1.1351395,-1.1068344,0.28624916,9.798066,-0.293857,1,1683900543.3311245
-1.1559571,0.568265,-0.78394824,-0.0050735474,1.1275291,0.6487465,0.28624916,9.798066,-0.293857,1,1683900543.3516629
-1.1559571,0.568265,-0.78394824,-0.0050735474,1.1275291,0.6487465,0.25649834,9.794399,-0.41754195,1,1683900543.356786
-1.1559571,0.568265,-0.78394824,-0.0050735474,1.1275291,0.6487465,0.6157472,9.78686,-0.09273253,1,1683900543.408126
-0.7210419,0.44281635,-0.8071211,-0.0050735474,1.1275291,0.6487465,0.6157472,9.78686,-0.09273253,1,1683900543.418381
-0.7210419,0.44281635,-0.8071211,-0.0050735474,1.1275291,0.6487465,0.22520898,9.7559,-0.9706027,1,1683900543.4286482
-0.7210419,0.44281635,-0.8071211,-0.0050735474,1.1275291,0.6487465,0.059226427,9.678012,-1.5820743,1,1683900543.4543116
-0.8352682,0.25758538,-0.8569093,-0.0050735474,1.1275291,0.6487465,0.059226427,9.678012,-1.5820743,1,1683900543.4697099
-1.6806821,0.25171635,-1.0797354,-0.0050735474,1.1275291,0.6487465,0.059226427,9.678012,-1.5820743,1,1683900543.4748476
-1.6806821,0.25171635,-1.0797354,-0.48866272,1.8081856,2.3339653,0.059226427,9.678012,-1.5820743,1,1683900543.4851182
-1.6806821,0.25171635,-1.0797354,-0.48866272,1.8081856,2.3339653,0.6782968,9.709382,-1.19925,1,1683900543.4953837
-1.6806821,0.25171635,-1.0797354,-3.8122368,5.3619385,4.6509743,0.6782968,9.709382,-1.19925,1,1683900543.5005019
-0.55899894,0.25782803,-0.67826015,-3.8122368,5.3619385,4.6509743,0.6782968,9.709382,-1.19925,1,1683900543.5261743
-0.55899894,0.25782803,-0.67826015,-4.857254,6.421776,5.183563,0.6782968,9.709382,-1.19925,1,1683900543.5415397
-0.55899894,0.25782803,-0.67826015,-4.857254,6.421776,5.183563,0.95734674,9.713969,-0.94482064,1,1683900543.546675
-0.55899894,0.25782803,-0.67826015,-7.453308,8.992329,5.919628,0.95734674,9.713969,-0.94482064,1,1683900543.5620792
0.2703092,0.29223847,-0.114984535,-7.453308,8.992329,5.919628,0.95734674,9.713969,-0.94482064,1,1683900543.5774548
0.2703092,0.29223847,-0.114984535,-7.453308,8.992329,5.919628,1.8408449,9.630593,0.18260792,1,1683900543.5825927
0.2703092,0.29223847,-0.114984535,-7.453308,8.992329,5.919628,2.336786,9.449698,1.1887028,1,1683900543.5979896
0.6671439,0.35788974,0.25817683,-7.453308,8.992329,5.919628,2.336786,9.449698,1.1887028,1,1683900543.6082482
0.6671439,0.35788974,0.25817683,-8.596325,9.9733925,5.6619453,2.336786,9.449698,1.1887028,1,1683900543.6133823
1.0954772,0.5172636,0.64501745,-8.596325,9.9733925,5.6619453,2.336786,9.449698,1.1887028,1,1683900543.6236064
1.0954772,0.5172636,0.64501745,-9.06723,10.081005,4.826679,2.336786,9.449698,1.1887028,1,1683900543.628746
1.0954772,0.5172636,0.64501745,-9.06723,10.081005,4.826679,2.652844,9.1595125,2.2882636,1,1683900543.6441126
1.5801654,0.8347829,1.3144665,-9.06723,10.081005,4.826679,2.652844,9.1595125,2.2882636,1,1683900543.6697762
1.5801654,0.8347829,1.3144665,-9.06723,10.081005,4.826679,2.7632291,8.801935,3.3257914,1,1683900543.6749141
1.5801654,0.8347829,1.3144665,-8.385506,8.510876,3.332119,2.7632291,8.801935,3.3257914,1,1683900543.6851838
1.5801654,0.8347829,1.3144665,0.60214996,-1.7210007,-0.71790695,2.7632291,8.801935,3.3257914,1,1683900543.7005587
1.5801654,0.8347829,1.3144665,0.60214996,-1.7210007,-0.71790695,3.2439225,7.9442897,4.747168,1,1683900543.710831
2.016051,1.2975115,2.6367583,0.60214996,-1.7210007,-0.71790695,3.2439225,7.9442897,4.747168,1,1683900543.7313762
2.016051,1.2975115,2.6367583,0.60214996,-1.7210007,-0.71790695,3.324938,8.146138,4.330775,1,1683900543.7467859
1.7178223,1.3006811,2.277261,0.60214996,-1.7210007,-0.71790695,3.324938,8.146138,4.330775,1,1683900543.751918
1.7178223,1.3006811,2.277261,4.5585823,-5.633774,-2.321148,3.324938,8.146138,4.330775,1,1683900543.7570596
1.4486202,1.1864548,1.9231474,4.5585823,-5.633774,-2.321148,3.324938,8.146138,4.330775,1,1683900543.7929175
1.4486202,1.1864548,1.9231474,6.089325,-7.078266,-3.05521,3.324938,8.146138,4.330775,1,1683900543.7980556
1.4486202,1.1864548,1.9231474,6.089325,-7.078266,-3.05521,3.3542113,8.314307,3.9739087,1,1683900543.8031797
0.6249232,0.9079866,0.9439894,6.089325,-7.078266,-3.05521,3.3542113,8.314307,3.9739087,1,1683900543.8288522
0.6249232,0.9079866,0.9439894,8.357334,-9.350414,-4.587021,3.3542113,8.314307,3.9739087,1,1683900543.8339856
0.3813659,0.8320834,0.70090216,8.357334,-9.350414,-4.587021,3.3542113,8.314307,3.9739087,1,1683900543.8442206
0.3813659,0.8320834,0.70090216,8.357334,-9.350414,-4.587021,3.008345,9.212878,1.497708,1,1683900543.854491
0.3813659,0.8320834,0.70090216,8.48938,-9.554958,-4.8491096,3.008345,9.212878,1.497708,1,1683900543.8596249
-0.17290144,0.59340936,0.29795584,8.48938,-9.554958,-4.8491096,3.008345,9.212878,1.497708,1,1683900543.8852632
-0.17290144,0.59340936,0.29795584,7.812996,-9.022369,-5.0429726,3.008345,9.212878,1.497708,1,1683900543.900669
-0.17290144,0.59340936,0.29795584,7.812996,-9.022369,-5.0429726,2.6232088,9.435967,0.501694,1,1683900543.9058142
-0.6939564,0.49601677,0.10125979,6.8807983,-7.6844215,-4.7254753,2.1545312,9.560098,-0.36457533,1,1683900543.9212406
-0.99805427,0.4581941,-0.03761035,6.8807983,-7.6844215,-4.7254753,2.1545312,9.560098,-0.36457533,1,1683900543.9366388
-0.99805427,0.4581941,-0.03761035,6.259823,-6.6563606,-4.353771,2.1545312,9.560098,-0.36457533,1,1683900543.941775
-0.99805427,0.4581941,-0.03761035,6.259823,-6.6563606,-4.353771,1.9147065,9.589952,-0.73285943,1,1683900543.9571645
-1.1501032,0.6639288,-1.2383814,6.259823,-6.6563606,-4.353771,1.9147065,9.589952,-0.73285943,1,1683900543.972534
-1.1501032,0.6639288,-1.2383814,6.259823,-6.6563606,-4.353771,2.764985,9.402148,0.35334283,1,1683900543.9828043
-1.1501032,0.6639288,-1.2383814,-0.7890701,2.423954,0.6637001,2.764985,9.402148,0.35334283,1,1683900543.987942
-1.1501032,0.6639288,-1.2383814,-8.816891,10.193958,3.768978,2.764985,9.402148,0.35334283,1,1683900544.0596645
-1.1501032,0.6639288,-1.2383814,-8.816891,10.193958,3.768978,3.1542008,8.945621,2.489433,1,1683900544.0648112
-0.2592839,0.17996854,-0.45250708,-8.816891,10.193958,3.768978,3.1542008,8.945621,2.489433,1,1683900544.0751853
-0.2592839,0.17996854,-0.45250708,-8.816891,10.193958,3.768978,2.764985,9.402148,0.35334283,1,1683900544.080301
-0.055505592,0.20462759,-0.0805741,-8.816891,10.193958,3.768978,2.764985,9.402148,0.35334283,1,1683900544.1060941
-0.055505592,0.20462759,-0.0805741,-8.816891,10.193958,3.768978,3.1749063,8.753641,3.0763829,1,1683900544.1112595
0.42577037,0.2614829,0.99694717,-10.15377,9.795551,3.0807114,3.1749063,8.753641,3.0763829,1,1683900544.116572
0.65055287,0.36350098,1.9380248,-10.15377,9.795551,3.0807114,3.1749063,8.753641,3.0763829,1,1683900544.1474884
0.65055287,0.36350098,1.9380248,-8.895798,7.2772026,2.3457146,3.1749063,8.753641,3.0763829,1,1683900544.1577508
0.65055287,0.36350098,1.9380248,-8.895798,7.2772026,2.3457146,2.7729025,7.3941073,5.8145156,1,1683900544.16289
0.85751593,0.46991703,2.6775231,-8.895798,7.2772026,2.3457146,2.7729025,7.3941073,5.8145156,1,1683900544.1784167
0.85751593,0.46991703,2.6775231,-6.1600876,3.958969,1.6469002,2.7729025,7.3941073,5.8145156,1,1683900544.1886613
0.85751593,0.46991703,2.6775231,-6.1600876,3.958969,1.6469002,2.6164036,6.8934307,6.4657116,1,1683900544.1938105
0.85751593,0.46991703,2.6775231,0.9196472,1.607914,-0.39093018,2.6164036,6.8934307,6.4657116,1,1683900544.2142959
-0.059403118,0.80792487,0.6991885,0.9196472,1.607914,-0.39093018,2.6164036,6.8934307,6.4657116,1,1683900544.219411
-0.059403118,0.80792487,0.6991885,0.9196472,1.607914,-0.39093018,0.43437138,5.7496257,7.932434,1,1683900544.229679
-0.059403118,0.80792487,0.6991885,0.68733215,1.1594391,-0.16302109,0.43437138,5.7496257,7.932434,1,1683900544.2502606
-0.16289224,0.566794,0.4441509,0.68733215,1.1594391,-0.16302109,0.43437138,5.7496257,7.932434,1,1683900544.2554028
-0.16289224,0.566794,0.4441509,0.68733215,1.1594391,-0.16302109,0.23358127,5.8511057,7.866409,1,1683900544.270861
-0.16289224,0.566794,0.4441509,0.68733215,1.1594391,-0.16302109,0.1937874,5.8752904,7.849446,1,1683900544.286288
-0.1267681,0.59169567,0.499793,0.68733215,1.1594391,-0.16302109,0.1937874,5.8752904,7.849446,1,1683900544.291452
-0.1267681,0.59169567,0.499793,0.57237625,0.9324646,-0.054340363,0.1937874,5.8752904,7.849446,1,1683900544.3016803
-0.1267681,0.59169567,0.499793,0.4189682,0.5969429,-0.038318634,0.1937874,5.8752904,7.849446,1,1683900544.3170836
-0.10943398,0.55411565,0.67088974,0.4189682,0.5969429,-0.038318634,0.1937874,5.8752904,7.849446,1,1683900544.32733
-0.10943398,0.55411565,0.67088974,0.4189682,0.5969429,-0.038318634,0.104621425,5.930897,7.809219,1,1683900544.3479376
-0.12555486,0.52067584,0.7265318,0.4189682,0.5969429,-0.038318634,0.104621425,5.930897,7.809219,1,1683900544.373575
-0.12749605,0.5606975,0.7597138,0.4189682,0.5969429,-0.038318634,0.104621425,5.930897,7.809219,1,1683900544.4041307
-0.12749605,0.5606975,0.7597138,0.3901291,0.5128288,0.12577057,0.104621425,5.930897,7.809219,1,1683900544.4143133
-0.12749605,0.5606975,0.7597138,0.3901291,0.5128288,0.12577057,0.045391873,5.9769173,7.7746253,1,1683900544.419402
-0.12749605,0.5606975,0.7597138,0.41362762,0.64380646,0.2492714,0.045391873,5.9769173,7.7746253,1,1683900544.424485
-0.07966417,0.55337256,0.7831445,0.41362762,0.64380646,0.2492714,0.045391873,5.9769173,7.7746253,1,1683900544.4295714
-0.07966417,0.55337256,0.7831445,0.41362762,0.64380646,0.2492714,-0.0071558203,6.022585,7.7394314,1,1683900544.4346588
-0.034031298,0.57290566,0.741667,0.41362762,0.64380646,0.2492714,-0.0071558203,6.022585,7.7394314,1,1683900544.4600823
-0.034031298,0.57290566,0.741667,0.3911972,0.73539734,0.29506683,-0.0071558203,6.022585,7.7394314,1,1683900544.470264
-0.10919133,0.62025225,0.7868145,0.3911972,0.73539734,0.29506683,-0.0071558203,6.022585,7.7394314,1,1683900544.4906309
-0.10919133,0.62025225,0.7868145,-0.07637024,0.85582733,0.07143021,-0.0071558203,6.022585,7.7394314,1,1683900544.495776
-0.10919133,0.62025225,0.7868145,-0.08277893,0.84941864,0.042591095,-0.0071558203,6.022585,7.7394314,1,1683900544.506071
-0.06819908,0.6351447,0.7592285,-0.08277893,0.84941864,0.042591095,-0.0071558203,6.022585,7.7394314,1,1683900544.5163572
-0.06819908,0.6351447,0.7592285,-0.08277893,0.84941864,0.042591095,-1.0973719,6.140636,7.5669513,1,1683900544.5267217
-0.15728101,0.589982,0.64184785,-0.08277893,0.84941864,0.042591095,-1.0973719,6.140636,7.5669513,1,1683900544.5370586
-0.15728101,0.589982,0.64184785,-0.08277893,0.84941864,0.042591095,-1.3567121,6.148345,7.5184817,1,1683900544.5473318
-0.08137787,0.5658234,0.40290084,-0.031642914,1.3267326,-0.02122879,-1.4635231,6.15549,7.4925575,1,1683900544.5731974
