acc_x,acc_y,acc_z,gyr_x,gyr_y,gyr_z,grav_x,grav_y,grav_z,label,timestamp
0.37800986,0.26519838,-0.37227783,-1.2038627,-0.3042109,5.625611,2.0625324,9.297317,2.3541381,1,1683969742.29886
1.4064845,0.8866371,-0.21300024,-2.0865629,-0.1151481,5.5281777,2.554851,9.151228,2.4421048,1,1683969742.3611305
2.6493618,1.9099895,0.71059024,-3.5155294,0.32330042,2.5486825,3.5106003,8.658751,2.9896195,1,1683969742.3662858
1.9426744,1.7126609,1.6624141,-1.1100949,0.3846924,-1.2454015,3.6550856,8.323078,3.6882017,1,1683969742.371495
1.9426744,1.7126609,1.6624141,0.58123827,-0.16249016,-2.2872322,3.6550856,8.323078,3.6882017,1,1683969742.3766153
1.9426744,1.7126609,1.6624141,0.58123827,-0.16249016,-2.2872322,3.5372093,8.346447,3.7498126,1,1683969742.3919606
1.5077709,1.5197228,1.3979474,0.58123827,-0.16249016,-2.2872322,3.5372093,8.346447,3.7498126,1,1683969742.4021802
1.0804899,1.2471459,1.0518907,0.58123827,-0.16249016,-2.2872322,3.5372093,8.346447,3.7498126,1,1683969742.417521
1.0804899,1.2471459,1.0518907,1.941177,-0.7466301,-3.0563116,3.5372093,8.346447,3.7498126,1,1683969742.4329019
1.0804899,1.2471459,1.0518907,1.941177,-0.7466301,-3.0563116,3.2767553,8.504044,3.6304615,1,1683969742.4379919
0.714066,1.0234133,0.77675265,1.941177,-0.7466301,-3.0563116,3.2767553,8.504044,3.6304615,1,1683969742.4635825
0.714066,1.0234133,0.77675265,1.941177,-0.7466301,-3.0563116,3.0598285,8.662131,3.4410825,1,1683969742.4686782
0.714066,1.0234133,0.77675265,2.561358,-1.040609,-3.4794884,3.0598285,8.662131,3.4410825,1,1683969742.4737704
0.3445323,0.79894906,0.57911915,2.561358,-1.040609,-3.4794884,3.0598285,8.662131,3.4410825,1,1683969742.4839838
0.3445323,0.79894906,0.57911915,2.561358,-1.040609,-3.4794884,2.8107708,8.834427,3.2075832,1,1683969742.4993467
0.3445323,0.79894906,0.57911915,2.7853928,-1.0877982,-3.7452147,2.8107708,8.834427,3.2075832,1,1683969742.5096018
0.3445323,0.79894906,0.57911915,2.731331,-0.80954915,-3.7626245,2.8107708,8.834427,3.2075832,1,1683969742.5351899
0.3445323,0.79894906,0.57911915,2.731331,-0.80954915,-3.7626245,2.5314896,9.002187,2.9645076,1,1683969742.5403113
-0.08567573,0.52222556,0.4078287,2.731331,-0.80954915,-3.7626245,2.5314896,9.002187,2.9645076,1,1683969742.545442
-0.08567573,0.52222556,0.4078287,2.731331,-0.80954915,-3.7626245,2.2297196,9.153753,2.7337296,1,1683969742.571011
-0.08567573,0.52222556,0.4078287,2.5004241,-0.41386122,-3.5146132,2.2297196,9.153753,2.7337296,1,1683969742.581207
-0.3999014,0.34117845,0.24281906,2.5004241,-0.41386122,-3.5146132,2.2297196,9.153753,2.7337296,1,1683969742.5862942
-0.3999014,0.34117845,0.24281906,2.0404427,0.11407909,-2.9219213,2.2297196,9.153753,2.7337296,1,1683969742.5965068
-0.7510804,0.1243975,0.009939604,2.0404427,0.11407909,-2.9219213,2.2297196,9.153753,2.7337296,1,1683969742.6067657
-0.7510804,0.1243975,0.009939604,2.0404427,0.11407909,-2.9219213,1.7791001,9.335641,2.4324353,1,1683969742.622101
-0.7510804,0.1243975,0.009939604,1.5868752,0.42531493,-2.1830797,1.7791001,9.335641,2.4324353,1,1683969742.6374485
-0.7510804,0.1243975,0.009939604,1.5868752,0.42531493,-2.1830797,1.5199631,9.42124,2.2728987,1,1683969742.6528368
-1.0395119,-0.047075916,-0.20001167,1.5868752,0.42531493,-2.1830797,1.5199631,9.42124,2.2728987,1,1683969742.657967
-1.0395119,-0.047075916,-0.20001167,1.5868752,0.42531493,-2.1830797,1.4133292,9.453348,2.2074492,1,1683969742.6681807
-1.2773306,-0.14994776,-0.3497765,1.5868752,0.42531493,-2.1830797,1.4133292,9.453348,2.2074492,1,1683969742.683434
-1.2773306,-0.14994776,-0.3497765,1.2063061,0.5519168,-1.4136949,1.4133292,9.453348,2.2074492,1,1683969742.6936798
-1.2773306,-0.14994776,-0.3497765,1.2063061,0.5519168,-1.4136949,1.2372159,9.507272,2.0777907,1,1683969742.698807
-1.2773306,-0.14994776,-0.3497765,0.47983465,0.5468771,0.28771752,1.2372159,9.507272,2.0777907,1,1683969742.703938
-1.5588714,-0.23855051,-0.53082365,0.47983465,0.5468771,0.28771752,1.2372159,9.507272,2.0777907,1,1683969742.7295294
-1.5588714,-0.23855051,-0.53082365,0.47983465,0.5468771,0.28771752,1.2761872,9.507201,2.054404,1,1683969742.734658
-1.5588714,-0.23855051,-0.53082365,-0.28725937,0.37950003,2.2982278,1.2761872,9.507201,2.054404,1,1683969742.7449248
-1.4624634,-0.24202631,-0.49637043,-0.28725937,0.37950003,2.2982278,1.2761872,9.507201,2.054404,1,1683969742.7603247
-1.4624634,-0.24202631,-0.49637043,-0.8503244,0.094531395,3.988492,1.2761872,9.507201,2.054404,1,1683969742.7858617
-1.4624634,-0.24202631,-0.49637043,-0.8503244,0.094531395,3.988492,1.5927571,9.448105,2.1053655,1,1683969742.7961097
-0.6508306,0.0035367915,-0.38044903,-0.8503244,0.094531395,3.988492,1.5927571,9.448105,2.1053655,1,1683969742.8012393
-0.6508306,0.0035367915,-0.38044903,-1.2166909,-0.11560625,4.614476,1.5927571,9.448105,2.1053655,1,1683969742.8114872
-0.6508306,0.0035367915,-0.38044903,-1.2166909,-0.11560625,4.614476,1.9492162,9.366393,2.1696498,1,1683969742.8217404
0.28093103,0.4733203,-0.30605444,-1.2166909,-0.11560625,4.614476,1.9492162,9.366393,2.1696498,1,1683969742.8319936
0.28093103,0.4733203,-0.30605444,-1.7979292,-0.16355917,4.219857,1.9492162,9.366393,2.1696498,1,1683969742.8524969
1.1231143,1.0292674,-0.16513158,-1.7979292,-0.16355917,4.219857,1.9492162,9.366393,2.1696498,1,1683969742.8576279
1.1231143,1.0292674,-0.16513158,-1.7979292,-0.16355917,4.219857,2.3530066,9.2486515,2.2719889,1,1683969742.8729322
1.8590109,1.5338091,0.13073933,-1.7979292,-0.16355917,4.219857,2.3530066,9.2486515,2.2719889,1,1683969742.878027
1.8590109,1.5338091,0.13073933,-1.7979292,-0.16355917,4.219857,2.7136643,9.112165,2.4167309,1,1683969742.883117
1.8590109,1.5338091,0.13073933,-2.2942572,-0.0720821,3.2149837,2.7136643,9.112165,2.4167309,1,1683969742.8882818
2.1467106,1.7805917,0.52496964,-2.2942572,-0.0720821,3.2149837,2.7136643,9.112165,2.4167309,1,1683969742.929281
2.1467106,1.7805917,0.52496964,-2.2942572,-0.0720821,3.2149837,2.982812,8.975772,2.6027863,1,1683969742.9395282
2.1467106,1.7805917,0.52496964,-2.6203065,0.12675454,1.9776763,2.982812,8.975772,2.6027863,1,1683969742.944659
2.1467106,1.7805917,0.52496964,-2.5644124,0.41309762,0.41386122,2.982812,8.975772,2.6027863,1,1683969742.9600477
2.1467106,1.7805917,0.52496964,-2.5644124,0.41309762,0.41386122,3.1804767,8.805463,2.9299347,1,1683969742.9651778
2.0879877,1.8249846,0.9874357,-2.5644124,0.41309762,0.41386122,3.1804767,8.805463,2.9299347,1,1683969742.9753983
2.0879877,1.8249846,0.9874357,-2.0575469,0.4642576,-0.65225136,3.1804767,8.805463,2.9299347,1,1683969742.9958842
2.0879877,1.8249846,0.9874357,-2.0575469,0.4642576,-0.65225136,3.1817877,8.733029,3.1379213,1,1683969743.0010133
1.8660845,1.7485166,1.2517194,-2.0575469,0.4642576,-0.65225136,3.1817877,8.733029,3.1379213,1,1683969743.006139
1.8660845,1.7485166,1.2517194,-2.0575469,0.4642576,-0.65225136,3.1027133,8.703813,3.294376,1,1683969743.0265396
1.8660845,1.7485166,1.2517194,-1.1395692,0.33429602,-1.5149459,3.1027133,8.703813,3.294376,1,1683969743.0316403
1.5742991,1.6112525,1.3636771,-1.1395692,0.33429602,-1.5149459,3.1027133,8.703813,3.294376,1,1683969743.0367684
1.5742991,1.6112525,1.3636771,-1.1395692,0.33429602,-1.5149459,2.9637258,8.724104,3.3678565,1,1683969743.057285
1.5742991,1.6112525,1.3636771,-0.04230242,0.08597928,-2.1833851,2.9637258,8.724104,3.3678565,1,1683969743.0624151
1.2586709,1.369714,1.2012897,-0.04230242,0.08597928,-2.1833851,2.9637258,8.724104,3.3678565,1,1683969743.0675476
0.8324875,1.1239071,1.0134737,-0.04230242,0.08597928,-2.1833851,2.9637258,8.724104,3.3678565,1,1683969743.1034758
0.8324875,1.1239071,1.0134737,1.1461359,-0.40775254,-2.7220156,2.9637258,8.724104,3.3678565,1,1683969743.108609
0.8324875,1.1239071,1.0134737,1.1461359,-0.40775254,-2.7220156,2.7858443,8.789779,3.3488789,1,1683969743.1240003
0.8324875,1.1239071,1.0134737,1.9695823,-0.61010164,-3.0335567,2.7858443,8.789779,3.3488789,1,1683969743.1393163
0.47496673,0.86913604,0.84407365,1.9695823,-0.61010164,-3.0335567,2.7858443,8.789779,3.3488789,1,1683969743.1444576
0.47496673,0.86913604,0.84407365,1.9695823,-0.61010164,-3.0335567,2.4753137,8.945099,3.1771257,1,1683969743.1495926
0.47496673,0.86913604,0.84407365,1.9695823,-0.61010164,-3.0335567,2.2401164,9.066203,3.0036564,1,1683969743.1751852
0.13775194,0.6706489,0.6857717,1.9695823,-0.61010164,-3.0335567,2.2401164,9.066203,3.0036564,1,1683969743.1854014
0.13775194,0.6706489,0.6857717,2.304031,-0.44700065,-3.1349604,2.2401164,9.066203,3.0036564,1,1683969743.1956644
-0.3093473,0.38191253,0.43600106,2.304031,-0.44700065,-3.1349604,2.2401164,9.066203,3.0036564,1,1683969743.2059333
-0.3093473,0.38191253,0.43600106,2.2707388,0.1330159,-2.9145908,2.2401164,9.066203,3.0036564,1,1683969743.2110624
-0.3093473,0.38191253,0.43600106,2.2707388,0.1330159,-2.9145908,1.9837636,9.184752,2.817998,1,1683969743.2315788
-0.3093473,0.38191253,0.43600106,1.9695823,0.6789767,-2.421317,1.9837636,9.184752,2.817998,1,1683969743.2469656
-0.6507087,0.15135029,0.14409378,1.9695823,0.6789767,-2.421317,1.9837636,9.184752,2.817998,1,1683969743.2572331
-0.6507087,0.15135029,0.14409378,1.9695823,0.6789767,-2.421317,1.718626,9.28935,2.6439433,1,1683969743.2623801
-1.0868926,-0.06384519,-0.36483836,1.9695823,0.6789767,-2.421317,1.718626,9.28935,2.6439433,1,1683969743.2880328
-1.0868926,-0.06384519,-0.36483836,1.4107933,1.0554224,-1.449125,1.718626,9.28935,2.6439433,1,1683969743.2982957
-1.0868926,-0.06384519,-0.36483836,1.4107933,1.0554224,-1.449125,1.3765454,9.4048395,2.426984,1,1683969743.3033872
-1.3795927,-0.15275282,-0.72370076,1.4107933,1.0554224,-1.449125,1.3765454,9.4048395,2.426984,1,1683969743.308518
-1.3795927,-0.15275282,-0.72370076,1.4107933,1.0554224,-1.449125,1.2956387,9.430606,2.370883,1,1683969743.3290243
-1.3795927,-0.15275282,-0.72370076,0.84620106,0.86254174,-0.39614612,1.2956387,9.430606,2.370883,1,1683969743.339241
-1.3795927,-0.15275282,-0.72370076,0.84620106,0.86254174,-0.39614612,1.2057385,9.462378,2.290352,1,1683969743.3597622
-1.5138688,-0.17824212,-0.83090216,0.84620106,0.86254174,-0.39614612,1.2057385,9.462378,2.290352,1,1683969743.3649042
-1.5138688,-0.17824212,-0.83090216,0.37904188,0.5395467,0.50426924,1.2057385,9.462378,2.290352,1,1683969743.375174
-1.5138688,-0.17824212,-0.83090216,-0.3034473,0.053145275,2.0911446,1.2057385,9.462378,2.290352,1,1683969743.3905628
-1.5138688,-0.17824212,-0.83090216,-0.3034473,0.053145275,2.0911446,1.2267514,9.467589,2.2574165,1,1683969743.400819
-1.4916114,-0.18580353,-0.6927843,-0.3034473,0.053145275,2.0911446,1.2267514,9.467589,2.2574165,1,1683969743.405951
-1.0706723,-0.07494339,-0.48630884,-0.3034473,0.053145275,2.0911446,1.2267514,9.467589,2.2574165,1,1683969743.4315503
-1.0706723,-0.07494339,-0.48630884,-0.7012733,-0.122020334,3.268129,1.2267514,9.467589,2.2574165,1,1683969743.441807
-1.0706723,-0.07494339,-0.48630884,-0.7012733,-0.122020334,3.268129,1.4732242,9.42514,2.2874565,1,1683969743.446931
-0.26343,0.22257397,-0.32892162,-0.7012733,-0.122020334,3.268129,1.4732242,9.42514,2.2874565,1,1683969743.4520714
-0.26343,0.22257397,-0.32892162,-1.0832168,-0.31230485,4.2891903,1.4732242,9.42514,2.2874565,1,1683969743.4725847
-0.26343,0.22257397,-0.32892162,-1.0832168,-0.31230485,4.2891903,1.7613819,9.362119,2.3418784,1,1683969743.4777153
-0.26343,0.22257397,-0.32892162,-1.4839444,-0.44089198,4.553542,1.7613819,9.362119,2.3418784,1,1683969743.4931228
0.64253753,0.7074803,-0.21208555,-1.4839444,-0.44089198,4.553542,1.7613819,9.362119,2.3418784,1,1683969743.503345
0.64253753,0.7074803,-0.21208555,-1.4839444,-0.44089198,4.553542,2.1278708,9.268058,2.410686,1,1683969743.5187337
1.3447126,1.156348,-0.010183521,-1.4839444,-0.44089198,4.553542,2.1278708,9.268058,2.410686,1,1683969743.528997
1.3447126,1.156348,-0.010183521,-1.8982637,-0.5328272,4.166101,2.1278708,9.268058,2.410686,1,1683969743.534129
1.3447126,1.156348,-0.010183521,-1.8982637,-0.5328272,4.166101,2.7235951,9.066221,2.57328,1,1683969743.5391943
2.0048733,1.589361,0.36050883,-1.8982637,-0.5328272,4.166101,2.7235951,9.066221,2.57328,1,1683969743.575113
2.0048733,1.589361,0.36050883,-2.2945626,-0.54183745,2.9842293,2.7235951,9.066221,2.57328,1,1683969743.585323
2.0048733,1.589361,0.36050883,-2.2945626,-0.54183745,2.9842293,3.0679398,8.91195,2.7204785,1,1683969743.5904546
2.0048733,1.589361,0.36050883,-2.3229678,-0.37323865,1.6267341,3.0679398,8.91195,2.7204785,1,1683969743.6058373
2.0048733,1.589361,0.36050883,-2.3229678,-0.37323865,1.6267341,3.3232543,8.766412,2.8882716,1,1683969743.6109314
2.532099,1.9909089,0.92901766,-2.3229678,-0.37323865,1.6267341,3.3232543,8.766412,2.8882716,1,1683969743.6160622
-1.3303825,-0.31245726,-0.2842849,-2.3229678,-0.37323865,1.6267341,3.3232543,8.766412,2.8882716,1,1683969743.6417103
-1.3303825,-0.31245726,-0.2842849,-2.3229678,-0.37323865,1.6267341,1.0716773,9.467289,2.3362515,1,1683969743.6519756
-1.3303825,-0.31245726,-0.2842849,1.7811303,0.8837693,-1.8267925,1.0716773,9.467289,2.3362515,1,1683969743.6571102
-1.7224786,-0.4265493,-0.59954715,1.7811303,0.8837693,-1.8267925,1.0716773,9.467289,2.3362515,1,1683969743.6622403
-1.7224786,-0.4265493,-0.59954715,1.2707524,0.66538495,-0.17073683,1.0716773,9.467289,2.3362515,1,1683969743.6827235
-1.7224786,-0.4265493,-0.59954715,1.2707524,0.66538495,-0.17073683,0.83099276,9.540723,2.1260688,1,1683969743.6929889
-1.7224786,-0.4265493,-0.59954715,1.2707524,0.66538495,-0.17073683,0.81205565,9.554243,2.0719843,1,1683969743.6981194
-1.7896776,-0.4353303,-0.67595404,1.2707524,0.66538495,-0.17073683,0.81205565,9.554243,2.0719843,1,1683969743.7237065
-1.7896776,-0.4353303,-0.67595404,0.7556403,0.31535918,1.3981178,0.81205565,9.554243,2.0719843,1,1683969743.7288382
-1.7896776,-0.4353303,-0.67595404,0.7556403,0.31535918,1.3981178,0.96896434,9.560675,1.972487,1,1683969743.744239
-1.7896776,-0.4353303,-0.67595404,0.14202617,0.0062613687,3.2991304,0.96896434,9.560675,1.972487,1,1683969743.7493696
-1.4458771,-0.30270058,-0.53966564,0.14202617,0.0062613687,3.2991304,0.96896434,9.560675,1.972487,1,1683969743.7647202
-1.4458771,-0.30270058,-0.53966564,0.14202617,0.0062613687,3.2991304,1.2421612,9.532499,1.9556593,1,1683969743.78526
-1.0264013,-0.18940128,-0.45234346,0.14202617,0.0062613687,3.2991304,1.2421612,9.532499,1.9556593,1,1683969743.7903926
-1.0264013,-0.18940128,-0.45234346,-0.182496,-0.094225965,4.2847614,1.2421612,9.532499,1.9556593,1,1683969743.800658
-1.0264013,-0.18940128,-0.45234346,-0.79168135,-0.012370021,5.351943,1.2421612,9.532499,1.9556593,1,1683969743.8160267
0.0807974,0.2329404,-0.3831321,-0.79168135,-0.012370021,5.351943,1.2421612,9.532499,1.9556593,1,1683969743.8262534
0.0807974,0.2329404,-0.3831321,-0.79168135,-0.012370021,5.351943,1.626177,9.472056,1.9676993,1,1683969743.8364704
1.235438,0.8993208,-0.3123353,-0.79168135,-0.012370021,5.351943,1.626177,9.472056,1.9676993,1,1683969743.8467288
1.235438,0.8993208,-0.3123353,-1.720502,0.2501493,5.3027687,1.626177,9.472056,1.9676993,1,1683969743.8518596
1.235438,0.8993208,-0.3123353,-1.720502,0.2501493,5.3027687,2.3309479,9.299722,2.077968,1,1683969743.8569994
1.235438,0.8993208,-0.3123353,-2.54517,0.5215262,4.464814,2.3309479,9.299722,2.077968,1,1683969743.8928366
1.235438,0.8993208,-0.3123353,-2.54517,0.5215262,4.464814,2.7637649,9.140381,2.2474792,1,1683969743.897968
1.235438,0.8993208,-0.3123353,-2.54517,0.5215262,4.464814,0.96866614,9.5545025,2.0023205,1,1683969743.913371
-1.5879585,-0.27525997,-0.37593657,-2.54517,0.5215262,4.464814,0.96866614,9.5545025,2.0023205,1,1683969743.9338808
-1.5879585,-0.27525997,-0.37593657,0.7257079,-0.6939429,2.3652701,0.96866614,9.5545025,2.0023205,1,1683969743.9492664
-1.4325225,-0.2476364,-0.23275748,0.7257079,-0.6939429,2.3652701,0.96866614,9.5545025,2.0023205,1,1683969743.954398
-1.4325225,-0.2476364,-0.23275748,0.7257079,-0.6939429,2.3652701,1.0788378,9.55954,1.920266,1,1683969743.959527
-0.8219382,-0.120189935,-0.10994543,0.7257079,-0.6939429,2.3652701,1.0788378,9.55954,1.920266,1,1683969743.9851742
-0.8219382,-0.120189935,-0.10994543,0.6406449,-0.85139346,3.9515345,1.0788378,9.55954,1.920266,1,1683969743.9903157
-0.8219382,-0.120189935,-0.10994543,0.6406449,-0.85139346,3.9515345,1.3111819,9.5443945,1.8497124,1,1683969743.9954681
-0.8219382,-0.120189935,-0.10994543,0.58016926,-0.8344419,4.631733,1.3111819,9.5443945,1.8497124,1,1683969744.021098
-0.8219382,-0.120189935,-0.10994543,0.58016926,-0.8344419,4.631733,1.6488053,9.505663,1.7776157,1,1683969744.0262322
-0.11421398,0.118360564,-0.11226265,0.58016926,-0.8344419,4.631733,1.6488053,9.505663,1.7776157,1,1683969744.0364525
1.1568967,0.9498116,-0.22239104,0.58016926,-0.8344419,4.631733,1.6488053,9.505663,1.7776157,1,1683969744.0518012
1.1568967,0.9498116,-0.22239104,0.58016926,-0.8344419,4.631733,2.0846472,9.432145,1.7102727,1,1683969744.0671854
1.1568967,0.9498116,-0.22239104,0.15790866,-0.63239825,4.7320676,2.0846472,9.432145,1.7102727,1,1683969744.0773795
1.1568967,0.9498116,-0.22239104,-0.80481493,-0.28405234,3.4709363,2.0846472,9.432145,1.7102727,1,1683969744.0927591
2.0002997,1.6055205,-0.1823887,-0.80481493,-0.28405234,3.4709363,2.0846472,9.432145,1.7102727,1,1683969744.097888
2.0002997,1.6055205,-0.1823887,-0.80481493,-0.28405234,3.4709363,2.681067,9.282827,1.6962095,1,1683969744.1132894
2.3010488,1.7798599,0.12976366,-0.80481493,-0.28405234,3.4709363,2.681067,9.282827,1.6962095,1,1683969744.1235225
2.3010488,1.7798599,0.12976366,-1.6525432,-0.07360926,1.8596265,2.681067,9.282827,1.6962095,1,1683969744.1389005
2.3010488,1.7798599,0.12976366,-1.6525432,-0.07360926,1.8596265,2.952864,9.184803,1.7765445,1,1683969744.1440315
2.3010488,1.7798599,0.12976366,-1.6525432,-0.07360926,1.8596265,3.1140828,9.104031,1.911866,1,1683969744.1542864
2.3010488,1.7798599,0.12976366,-1.7994562,0.06582073,0.80649483,3.1140828,9.104031,1.911866,1,1683969744.1645358
2.1263437,1.8391926,0.7803504,-1.7994562,0.06582073,0.80649483,3.1140828,9.104031,1.911866,1,1683969744.169667
1.6602188,1.6620482,1.1878132,-1.7994562,0.06582073,0.80649483,3.1140828,9.104031,1.911866,1,1683969744.1952684
1.6602188,1.6620482,1.1878132,-2.0103576,1.7012597,-1.4972308,3.1140828,9.104031,1.911866,1,1683969744.200396
1.6602188,1.6620482,1.1878132,-2.0103576,1.7012597,-1.4972308,3.3440614,8.871207,2.520922,1,1683969744.2055287
1.3097715,1.4852697,1.033231,-2.0103576,1.7012597,-1.4972308,3.3440614,8.871207,2.520922,1,1683969744.2311852
1.3097715,1.4852697,1.033231,-2.0103576,1.7012597,-1.4972308,3.1745527,8.878429,2.7077334,1,1683969744.2465677
1.3097715,1.4852697,1.033231,-0.97051215,1.4182764,-2.1560488,3.1745527,8.878429,2.7077334,1,1683969744.2568305
1.3097715,1.4852697,1.033231,-0.97051215,1.4182764,-2.1560488,2.9596078,8.923953,2.7999792,1,1683969744.28247
0.96444654,1.2719035,0.8007784,-0.97051215,1.4182764,-2.1560488,2.9596078,8.923953,2.7999792,1,1683969744.2875588
0.96444654,1.2719035,0.8007784,0.16432275,0.8523097,-2.834873,2.9596078,8.923953,2.7999792,1,1683969744.2926822
0.5438122,0.9445673,0.544544,0.16432275,0.8523097,-2.834873,2.9596078,8.923953,2.7999792,1,1683969744.2977736
0.5438122,0.9445673,0.544544,0.16432275,0.8523097,-2.834873,2.7120237,8.999892,2.807667,1,1683969744.3079536
0.5438122,0.9445673,0.544544,0.8035932,0.3904956,-3.2304082,2.7120237,8.999892,2.807667,1,1683969744.31304
0.28123593,0.7537635,0.4549046,0.8035932,0.3904956,-3.2304082,2.7120237,8.999892,2.807667,1,1683969744.338586
0.28123593,0.7537635,0.4549046,0.8035932,0.3904956,-3.2304082,2.438689,9.094574,2.752751,1,1683969744.3488355
0.28123593,0.7537635,0.4549046,1.1301007,0.14538592,-3.4274123,2.438689,9.094574,2.752751,1,1683969744.3539572
-0.17086363,0.45295325,0.32910457,1.1301007,0.14538592,-3.4274123,2.438689,9.094574,2.752751,1,1683969744.3796015
-0.17086363,0.45295325,0.32910457,1.4256067,0.022143865,-3.517973,2.438689,9.094574,2.752751,1,1683969744.3846931
-0.17086363,0.45295325,0.32910457,1.4256067,0.022143865,-3.517973,2.143971,9.195745,2.6604073,1,1683969744.394951
-0.17086363,0.45295325,0.32910457,1.5097535,0.12217305,-3.2213979,2.143971,9.195745,2.6604073,1,1683969744.4153914
-0.17086363,0.45295325,0.32910457,1.5097535,0.12217305,-3.2213979,1.8322719,9.29378,2.5503995,1,1683969744.4255917
-0.5257014,0.19208437,0.19647488,1.5097535,0.12217305,-3.2213979,1.8322719,9.29378,2.5503995,1,1683969744.43072
-0.5257014,0.19208437,0.19647488,1.5015068,0.14034629,-2.6470318,1.8322719,9.29378,2.5503995,1,1683969744.4409864
-0.5257014,0.19208437,0.19647488,1.5015068,0.14034629,-2.6470318,1.388382,9.418323,2.3672178,1,1683969744.4563358
-0.5257014,0.19208437,0.19647488,0.7141015,-0.9233228,1.1866057,1.388382,9.418323,2.3672178,1,1683969744.4717226
-0.5257014,0.19208437,0.19647488,0.7141015,-0.9233228,1.1866057,1.3321135,9.495109,2.0747285,1,1683969744.4768527
-1.4619756,-0.22635466,-0.32544583,0.7141015,-0.9233228,1.1866057,1.3321135,9.495109,2.0747285,1,1683969744.481981
-1.4619756,-0.22635466,-0.32544583,0.46303585,-0.8559749,2.8501446,1.3321135,9.495109,2.0747285,1,1683969744.502509
-1.1718976,-0.17702252,-0.17135146,0.46303585,-0.8559749,2.8501446,1.3321135,9.495109,2.0747285,1,1683969744.5127025
-1.1718976,-0.17702252,-0.17135146,0.46303585,-0.8559749,2.8501446,1.4377166,9.49573,2.0000541,1,1683969744.5229194
-1.1718976,-0.17702252,-0.17135146,0.46303585,-0.8559749,2.8501446,1.8034302,9.449599,1.9206396,1,1683969744.5383167
-1.1718976,-0.17702252,-0.17135146,0.26450464,-0.69714993,3.994906,1.8034302,9.449599,1.9206396,1,1683969744.5536485
-0.54216576,-0.021708583,-0.124580435,0.26450464,-0.69714993,3.994906,1.8034302,9.449599,1.9206396,1,1683969744.5639102
0.3463007,0.38819337,-0.22800112,0.26450464,-0.69714993,3.994906,1.8034302,9.449599,1.9206396,1,1683969744.5741813
0.3463007,0.38819337,-0.22800112,0.26450464,-0.69714993,3.994906,2.1715872,9.379798,1.8814148,1,1683969744.5844047
0.3463007,0.38819337,-0.22800112,-0.11682798,-0.4605924,4.6332603,2.1715872,9.379798,1.8814148,1,1683969744.5946767
0.3463007,0.38819337,-0.22800112,-0.9633345,-0.2855795,4.3105707,2.1715872,9.379798,1.8814148,1,1683969744.610068
0.3463007,0.38819337,-0.22800112,-0.9633345,-0.2855795,4.3105707,2.584352,9.272859,1.8897951,1,1683969744.6254182
1.3857516,1.1216508,-0.23605035,-0.9633345,-0.2855795,4.3105707,2.584352,9.272859,1.8897951,1,1683969744.635679
1.3857516,1.1216508,-0.23605035,-0.9633345,-0.2855795,4.3105707,2.956406,9.145818,1.962097,1,1683969744.6510777
1.9765178,1.5507002,0.037929043,-0.9633345,-0.2855795,4.3105707,2.956406,9.145818,1.962097,1,1683969744.6562185
1.9765178,1.5507002,0.037929043,-1.63437,-0.18524489,3.3815973,2.956406,9.145818,1.962097,1,1683969744.661348
1.9765178,1.5507002,0.037929043,-2.036472,-0.051923547,2.2026274,2.956406,9.145818,1.962097,1,1683969744.6869655
1.9765178,1.5507002,0.037929043,-2.036472,-0.051923547,2.2026274,3.243314,9.018977,2.0916703,1,1683969744.6972284
2.367943,1.8561449,0.5096029,-2.036472,-0.051923547,2.2026274,3.243314,9.018977,2.0916703,1,1683969744.7074897
2.4345324,1.9927992,0.9744471,-2.036472,-0.051923547,2.2026274,3.243314,9.018977,2.0916703,1,1683969744.728008
2.4345324,1.9927992,0.9744471,-2.036472,-0.051923547,2.2026274,3.4256463,8.91113,2.25673,1,1683969744.733132
2.4345324,1.9927992,0.9744471,-2.0599904,0.21777347,0.93859446,3.4256463,8.91113,2.25673,1,1683969744.743385
2.4345324,1.9927992,0.9744471,-1.2916746,0.26190847,3.0995302,3.4256463,8.91113,2.25673,1,1683969744.748518
2.452704,1.9743226,-0.10811607,-1.2916746,0.26190847,3.0995302,3.4256463,8.91113,2.25673,1,1683969744.7587776
2.452704,1.9743226,-0.10811607,-1.2916746,0.26190847,3.0995302,3.0402727,9.177637,1.6624787,1,1683969744.7639098
2.452704,1.9743226,-0.10811607,-1.9688187,0.6082691,1.68385,3.0402727,9.177637,1.6624787,1,1683969744.7895608
2.452704,1.9743226,-0.10811607,-1.9688187,0.6082691,1.68385,3.294551,9.067423,1.7787371,1,1683969744.7947004
2.6310072,2.2326913,0.22922069,-1.9688187,0.6082691,1.68385,3.294551,9.067423,1.7787371,1,1683969744.8100553
2.500207,2.2412283,0.503505,-1.9688187,0.6082691,1.68385,3.294551,9.067423,1.7787371,1,1683969744.8151429
2.500207,2.2412283,0.503505,-1.9688187,0.6082691,1.68385,3.424391,8.981842,1.9586167,1,1683969744.8304694
2.500207,2.2412283,0.503505,-2.2721133,0.9053023,0.43875396,3.424391,8.981842,1.9586167,1,1683969744.8458192
2.1596382,2.0757308,0.72522527,-2.2721133,0.9053023,0.43875396,3.424391,8.981842,1.9586167,1,1683969744.8663008
2.1596382,2.0757308,0.72522527,-2.1529946,1.0277808,-0.7787005,3.424391,8.981842,1.9586167,1,1683969744.871423
2.1596382,2.0757308,0.72522527,-2.1529946,1.0277808,-0.7787005,3.4257143,8.905882,2.2772508,1,1683969744.881645
2.1596382,2.0757308,0.72522527,-2.1529946,1.0277808,-0.7787005,3.3290496,8.890812,2.4712405,1,1683969744.8969398
1.791141,1.8398634,0.80651045,-2.1529946,1.0277808,-0.7787005,3.3290496,8.890812,2.4712405,1,1683969744.9122636
1.791141,1.8398634,0.80651045,-1.5402967,0.8678868,-1.7490599,3.3290496,8.890812,2.4712405,1,1683969744.9173954
1.5153323,1.6133258,0.72803026,-1.5402967,0.8678868,-1.7490599,3.3290496,8.890812,2.4712405,1,1683969744.9379098
1.5153323,1.6133258,0.72803026,-1.5402967,0.8678868,-1.7490599,3.1725116,8.90628,2.6171472,1,1683969744.9481401
1.5153323,1.6133258,0.72803026,-0.7350236,0.56123245,-2.6397014,3.1725116,8.90628,2.6171472,1,1683969744.9532876
1.5153323,1.6133258,0.72803026,-0.17027868,0.22907446,-3.3046284,3.1725116,8.90628,2.6171472,1,1683969744.9738078
1.2217176,1.3181257,0.57363105,-0.17027868,0.22907446,-3.3046284,3.1725116,8.90628,2.6171472,1,1683969744.9840686
0.7646178,0.8875518,0.4311837,-0.17027868,0.22907446,-3.3046284,3.1725116,8.90628,2.6171472,1,1683969744.9892066
0.7646178,0.8875518,0.4311837,-0.17027868,0.22907446,-3.3046284,2.5607238,9.067508,2.731141,1,1683969745.0097287
0.7646178,0.8875518,0.4311837,0.22525656,-0.112399206,-3.8033998,2.5607238,9.067508,2.731141,1,1683969745.014863
0.7646178,0.8875518,0.4311837,1.1047498,0.029321533,-3.5440874,2.5607238,9.067508,2.731141,1,1683969745.019994
-0.26117378,0.28446782,0.36343583,1.1047498,0.029321533,-3.5440874,2.5607238,9.067508,2.731141,1,1683969745.040471
-0.26117378,0.28446782,0.36343583,1.1047498,0.029321533,-3.5440874,1.5545129,9.385444,2.3943818,1,1683969745.0456
-0.5683868,0.09994486,0.2909316,1.1047498,0.029321533,-3.5440874,1.5545129,9.385444,2.3943818,1,1683969745.0711887
-0.5683868,0.09994486,0.2909316,1.0566442,0.3211624,-3.2456799,1.5545129,9.385444,2.3943818,1,1683969745.076315
-0.5683868,0.09994486,0.2909316,1.0566442,0.3211624,-3.2456799,1.233438,9.452759,2.3151946,1,1683969745.0865266
-0.9559704,-0.1765347,0.1572043,1.0566442,0.3211624,-3.2456799,1.233438,9.452759,2.3151946,1,1683969745.1018786
-0.9559704,-0.1765347,0.1572043,1.0566442,0.3211624,-3.2456799,0.9260826,9.506298,2.2380323,1,1683969745.1070077
-0.9559704,-0.1765347,0.1572043,0.9808969,0.6339254,-2.5657868,0.9260826,9.506298,2.2380323,1,1683969745.117272
-0.9559704,-0.1765347,0.1572043,0.99021256,0.6942484,-1.9254472,0.9260826,9.506298,2.2380323,1,1683969745.1275303
-0.9559704,-0.1765347,0.1572043,0.99021256,0.6942484,-1.9254472,0.6587523,9.545996,2.1624303,1,1683969745.132611
-1.2595247,-0.34349567,0.10939662,0.99021256,0.6942484,-1.9254472,0.6587523,9.545996,2.1624303,1,1683969745.153072
-1.2595247,-0.34349567,0.10939662,1.1343768,0.56413406,-0.3662137,0.6587523,9.545996,2.1624303,1,1683969745.1632926
-1.7224176,-0.50454164,-0.029879792,1.1343768,0.56413406,-0.3662137,0.6587523,9.545996,2.1624303,1,1683969745.1684244
-1.7224176,-0.50454164,-0.029879792,1.1343768,0.56413406,-0.3662137,0.40501824,9.587549,2.0374005,1,1683969745.1940584
-1.7224176,-0.50454164,-0.029879792,1.3159565,0.14874569,1.6424639,0.40501824,9.587549,2.0374005,1,1683969745.2094378
-1.7224176,-0.50454164,-0.029879792,1.3159565,0.14874569,1.6424639,0.3859519,9.609215,1.9365289,1,1683969745.224779
-1.8810244,-0.5705211,-0.084883004,1.3159565,0.14874569,1.6424639,0.3859519,9.609215,1.9365289,1,1683969745.229871
-1.6347295,-0.52112794,-0.0046344167,1.3159565,0.14874569,1.6424639,0.3859519,9.609215,1.9365289,1,1683969745.2503076
-1.6347295,-0.52112794,-0.0046344167,1.4950926,-0.07742717,3.3524284,0.3859519,9.609215,1.9365289,1,1683969745.2554326
-1.6347295,-0.52112794,-0.0046344167,1.4950926,-0.07742717,3.3524284,0.5167407,9.625504,1.821747,1,1683969745.2605646
-1.6347295,-0.52112794,-0.0046344167,1.4950926,-0.07742717,3.3524284,0.7987551,9.630264,1.6900067,1,1683969745.2759356
-1.6347295,-0.52112794,-0.0046344167,1.6297885,-0.1685988,5.145623,0.7987551,9.630264,1.6900067,1,1683969745.2861924
2.491426,1.8128496,-0.20818289,1.6297885,-0.1685988,5.145623,0.7987551,9.630264,1.6900067,1,1683969745.2964122
2.491426,1.8128496,-0.20818289,-2.5132523,1.1042917,3.7082574,0.7987551,9.630264,1.6900067,1,1683969745.3015456
2.491426,1.8128496,-0.20818289,-2.5132523,1.1042917,3.7082574,2.7127352,9.322502,1.4029003,1,1683969745.3066719
2.8053465,2.2111657,0.2903828,-2.5132523,1.1042917,3.7082574,2.7127352,9.322502,1.4029003,1,1683969745.3425617
2.8053465,2.2111657,0.2903828,-3.4807103,1.4451544,1.5053247,2.7127352,9.322502,1.4029003,1,1683969745.347653
2.8053465,2.2111657,0.2903828,-3.4807103,1.4451544,1.5053247,3.0093887,9.190927,1.6451615,1,1683969745.357918
2.666131,2.1853104,0.6930283,-3.4807103,1.4451544,1.5053247,3.0093887,9.190927,1.6451615,1,1683969745.3733108
2.666131,2.1853104,0.6930283,-3.5764632,1.4761559,0.2406809,3.0093887,9.190927,1.6451615,1,1683969745.3887033
2.666131,2.1853104,0.6930283,-3.5764632,1.4761559,0.2406809,3.1489325,9.081398,1.9617736,1,1683969745.3989553
2.666131,2.1853104,0.6930283,-2.8417451,1.0757337,-1.2670872,3.1489325,9.081398,1.9617736,1,1683969745.4040895
2.666131,2.1853104,0.6930283,-2.8417451,1.0757337,-1.2670872,3.101704,8.980394,2.4429662,1,1683969745.4246004
2.1331124,1.9008425,1.1734221,-2.8417451,1.0757337,-1.2670872,3.101704,8.980394,2.4429662,1,1683969745.4297273
2.1331124,1.9008425,1.1734221,-2.8417451,1.0757337,-1.2670872,2.9671476,8.960129,2.6736248,1,1683969745.4501452
2.1331124,1.9008425,1.1734221,-1.3040446,0.5196936,-2.081676,2.9671476,8.960129,2.6736248,1,1683969745.4603739
1.5978981,1.6165577,1.3449565,-1.3040446,0.5196936,-2.081676,2.9671476,8.960129,2.6736248,1,1683969745.4655104
1.2569027,1.4421573,1.1671413,-1.3040446,0.5196936,-2.081676,2.9671476,8.960129,2.6736248,1,1683969745.4860318
1.2569027,1.4421573,1.1671413,-0.040011674,0.19135354,-2.5560129,2.9671476,8.960129,2.6736248,1,1683969745.4963002
1.2569027,1.4421573,1.1671413,-0.040011674,0.19135354,-2.5560129,2.7907274,8.981185,2.7903903,1,1683969745.5014353
1.2569027,1.4421573,1.1671413,-0.040011674,0.19135354,-2.5560129,2.466845,9.0819435,2.7693121,1,1683969745.521948
0.8845028,1.2136074,0.7946805,-0.040011674,0.19135354,-2.5560129,2.466845,9.0819435,2.7693121,1,1683969745.532196
0.8845028,1.2136074,0.7946805,1.0557278,-0.19013181,-3.0761647,2.466845,9.0819435,2.7693121,1,1683969745.5372937
0.8845028,1.2136074,0.7946805,1.0557278,-0.19013181,-3.0761647,2.215727,9.17651,2.6680255,1,1683969745.5424292
0.8845028,1.2136074,0.7946805,1.4746287,-0.3623958,-3.396258,2.215727,9.17651,2.6680255,1,1683969745.5475602
-0.5324701,0.26160064,0.28294334,1.4746287,-0.3623958,-3.396258,2.215727,9.17651,2.6680255,1,1683969745.5732148
-0.5324701,0.26160064,0.28294334,1.4746287,-0.3623958,-3.396258,1.2290677,9.199765,3.1764526,1,1683969745.5885968
-0.5324701,0.26160064,0.28294334,0.9419542,0.54718256,-2.6936102,1.2290677,9.199765,3.1764526,1,1683969745.593723
-0.73894554,0.16116793,0.23507468,0.9419542,0.54718256,-2.6936102,1.2290677,9.199765,3.1764526,1,1683969745.6244597
-0.73894554,0.16116793,0.23507468,0.9419542,0.54718256,-2.6936102,0.96719015,9.252279,3.1138396,1,1683969745.6295927
-0.73894554,0.16116793,0.23507468,0.7153232,0.9486737,-2.2296581,0.96719015,9.252279,3.1138396,1,1683969745.6347308
-1.0003022,0.0043905,0.057747275,0.7153232,0.9486737,-2.2296581,0.96719015,9.252279,3.1138396,1,1683969745.6654382
-1.0003022,0.0043905,0.057747275,0.25870144,1.6126842,-1.0471758,0.96719015,9.252279,3.1138396,1,1683969745.670569
-1.0003022,0.0043905,0.057747275,0.25870144,1.6126842,-1.0471758,0.74220467,9.285528,3.076397,1,1683969745.6756933
-1.235438,-0.124641426,-0.22757424,0.25870144,1.6126842,-1.0471758,0.74220467,9.285528,3.076397,1,1683969745.7013214
-1.235438,-0.124641426,-0.22757424,0.25870144,1.6126842,-1.0471758,0.5170266,9.30666,3.0585768,1,1683969745.7064538
-1.235438,-0.124641426,-0.22757424,0.035430185,1.5989398,-0.06261369,0.5170266,9.30666,3.0585768,1,1683969745.711578
-1.235438,-0.124641426,-0.22757424,0.035430185,1.5989398,-0.06261369,0.47761756,9.307328,3.0629437,1,1683969745.7218356
-1.235438,-0.124641426,-0.22757424,-0.12904528,0.9821186,1.3556627,0.47761756,9.307328,3.0629437,1,1683969745.737213
-1.3363584,-0.22458628,-0.34117845,-0.12904528,0.9821186,1.3556627,0.47761756,9.307328,3.0629437,1,1683969745.7423444
-1.3363584,-0.22458628,-0.34117845,-0.12904528,0.9821186,1.3556627,0.55160356,9.299606,3.0739527,1,1683969745.7577295
-1.3363584,-0.22458628,-0.34117845,-0.08933904,0.3145956,2.5680776,0.55160356,9.299606,3.0739527,1,1683969745.767987
-1.2341573,-0.22733033,-0.24275808,-0.08933904,0.3145956,2.5680776,0.55160356,9.299606,3.0739527,1,1683969745.7731185
-0.8801733,-0.16689998,-0.13970327,-0.08933904,0.3145956,2.5680776,0.55160356,9.299606,3.0739527,1,1683969745.788426
-0.8801733,-0.16689998,-0.13970327,-0.08933904,0.3145956,2.5680776,0.88270885,9.27256,3.0784006,1,1683969745.79356
-0.8801733,-0.16689998,-0.13970327,0.04810564,-0.33307427,3.971235,0.88270885,9.27256,3.0784006,1,1683969745.8038266
-0.8801733,-0.16689998,-0.13970327,0.04810564,-0.33307427,3.971235,1.2320224,9.236665,3.0663087,1,1683969745.8344674
-0.8801733,-0.16689998,-0.13970327,0.099265605,-0.6629415,4.883104,1.2320224,9.236665,3.0663087,1,1683969745.8396034
-0.8801733,-0.16689998,-0.13970327,0.9251554,0.33200526,-1.8106046,1.2320224,9.236665,3.0663087,1,1683969745.8549783
-0.8801733,-0.16689998,-0.13970327,0.9251554,0.33200526,-1.8106046,0.7898285,9.053433,3.6942704,1,1683969745.865236
-0.8968816,-0.002561125,0.40551147,0.9251554,0.33200526,-1.8106046,0.7898285,9.053433,3.6942704,1,1683969745.870367
-1.3120277,-0.21080498,0.2859923,0.9251554,0.33200526,-1.8106046,0.7898285,9.053433,3.6942704,1,1683969745.8959923
-1.3120277,-0.21080498,0.2859923,0.91782504,0.46853364,-0.817185,0.7898285,9.053433,3.6942704,1,1683969745.9010806
-1.3120277,-0.21080498,0.2859923,0.91782504,0.46853364,-0.817185,0.52567464,9.112018,3.5959582,1,1683969745.911301
-1.3120277,-0.21080498,0.2859923,1.0274754,0.36392298,0.43692136,0.52567464,9.112018,3.5959582,1,1683969745.9318142
-1.5801532,-0.32855576,0.1975725,1.0274754,0.36392298,0.43692136,0.52567464,9.112018,3.5959582,1,1683969745.936939
-1.5801532,-0.32855576,0.1975725,1.0274754,0.36392298,0.43692136,0.47609875,9.128123,3.5618527,1,1683969745.9420755
-1.5760676,-0.4211831,0.14122775,1.0274754,0.36392298,0.43692136,0.47609875,9.128123,3.5618527,1,1683969745.9625652
-1.5760676,-0.4211831,0.14122775,1.3507757,-0.027488936,2.3229678,0.47609875,9.128123,3.5618527,1,1683969745.9728127
-1.5760676,-0.4211831,0.14122775,1.3507757,-0.027488936,2.3229678,0.49697095,9.173777,3.4396167,1,1683969745.9779465
-1.5760676,-0.4211831,0.14122775,1.3507757,-0.027488936,2.3229678,0.6794754,9.202658,3.3294902,1,1683969746.0138419
-1.5760676,-0.4211831,0.14122775,1.6042849,-0.34223726,3.8458548,0.6794754,9.202658,3.3294902,1,1683969746.0189729
-1.3042225,-0.40203565,0.037136313,1.6042849,-0.34223726,3.8458548,0.6794754,9.202658,3.3294902,1,1683969746.0241008
-1.3042225,-0.40203565,0.037136313,1.6042849,-0.34223726,3.8458548,0.9980791,9.221045,3.1956685,1,1683969746.0394738
-0.75065356,-0.30879852,-0.012683666,1.6042849,-0.34223726,3.8458548,0.9980791,9.221045,3.1956685,1,1683969746.0446057
-0.75065356,-0.30879852,-0.012683666,1.7418822,-0.6797403,5.460983,0.9980791,9.221045,3.1956685,1,1683969746.0599856
0.500578,0.14994776,-0.12336086,1.7418822,-0.6797403,5.460983,0.9980791,9.221045,3.1956685,1,1683969746.0702462
0.500578,0.14994776,-0.12336086,1.5829046,-0.66691214,6.1834836,0.9980791,9.221045,3.1956685,1,1683969746.0804741
0.500578,0.14994776,-0.12336086,1.5829046,-0.66691214,6.1834836,1.7079799,9.19329,2.966874,1,1683969746.0856242
0.500578,0.14994776,-0.12336086,1.5829046,-0.66691214,6.1834836,2.2565942,9.117761,2.8302548,1,1683969746.1163247
1.5611886,0.99298483,-0.33636108,1.5829046,-0.66691214,6.1834836,2.2565942,9.117761,2.8302548,1,1683969746.1265817
1.9413939,1.630522,0.86797744,1.5829046,-0.66691214,6.1834836,2.2565942,9.117761,2.8302548,1,1683969746.1317046
1.9413939,1.630522,0.86797744,1.5829046,-0.66691214,6.1834836,3.0268867,8.5379715,3.765251,1,1683969746.141938
1.498624,1.4234368,1.1705562,1.5829046,-0.66691214,6.1834836,3.0268867,8.5379715,3.765251,1,1683969746.1521568
1.498624,1.4234368,1.1705562,-1.9320141,0.3933972,-2.0735822,3.0268867,8.5379715,3.765251,1,1683969746.1624107
1.498624,1.4234368,1.1705562,-1.9320141,0.3933972,-2.0735822,2.9432552,8.53156,3.8452368,1,1683969746.1777802
1.498624,1.4234368,1.1705562,-1.1119275,0.50976706,-2.201253,2.9432552,8.53156,3.8452368,1,1683969746.1930778
1.2420237,1.3479445,1.2109243,-1.1119275,0.50976706,-2.201253,2.9432552,8.53156,3.8452368,1,1683969746.1982074
1.0453658,1.2451336,0.9325544,-1.1119275,0.50976706,-2.201253,2.9432552,8.53156,3.8452368,1,1683969746.2084317
1.0453658,1.2451336,0.9325544,-0.27672195,0.61682117,-2.5202773,2.9432552,8.53156,3.8452368,1,1683969746.2135653
1.0453658,1.2451336,0.9325544,-0.27672195,0.61682117,-2.5202773,2.66737,8.553469,3.9949226,1,1683969746.2238188
1.0453658,1.2451336,0.9325544,0.09758572,0.5705481,-2.8631253,2.66737,8.553469,3.9949226,1,1683969746.264797
0.87919766,1.0868926,0.69717485,0.09758572,0.5705481,-2.8631253,2.66737,8.553469,3.9949226,1,1683969746.2699225
0.87919766,1.0868926,0.69717485,0.09758572,0.5705481,-2.8631253,2.4546776,8.600065,4.031074,1,1683969746.2750487
0.87919766,1.0868926,0.69717485,0.3034473,0.44043383,-3.2383494,2.4546776,8.600065,4.031074,1,1683969746.2853117
0.87919766,1.0868926,0.69717485,0.3034473,0.44043383,-3.2383494,2.216544,8.662204,4.035997,1,1683969746.2904425
0.6411349,0.86639196,0.5443001,0.3034473,0.44043383,-3.2383494,2.216544,8.662204,4.035997,1,1683969746.295567
0.6411349,0.86639196,0.5443001,0.3034473,0.44043383,-3.2383494,1.8171074,8.763385,4.01713,1,1683969746.3211832
0.25416118,0.6121089,0.50789547,0.3034473,0.44043383,-3.2383494,1.8171074,8.763385,4.01713,1,1683969746.336564
0.25416118,0.6121089,0.50789547,0.38087448,0.3743077,-3.3791537,1.8171074,8.763385,4.01713,1,1683969746.3416986
-0.07097975,0.44002566,0.52826256,0.38087448,0.3743077,-3.3791537,1.8171074,8.763385,4.01713,1,1683969746.3621335
-0.07097975,0.44002566,0.52826256,0.38087448,0.3743077,-3.3791537,1.5318688,8.825698,3.9995675,1,1683969746.3723516
-0.07097975,0.44002566,0.52826256,0.4972443,0.44684792,-3.2666018,1.5318688,8.825698,3.9995675,1,1683969746.3774817
-0.07097975,0.44002566,0.52826256,0.625526,0.65668017,-2.9093986,1.5318688,8.825698,3.9995675,1,1683969746.4031239
-0.07097975,0.44002566,0.52826256,2.0083723,-0.2866485,0.06856962,1.5318688,8.825698,3.9995675,1,1683969746.4185045
-0.07097975,0.44002566,0.52826256,2.0083723,-0.2866485,0.06856962,0.028744329,9.02695,3.8405023,1,1683969746.428761
-1.6222289,-0.40325522,-0.059088815,2.0083723,-0.2866485,0.06856962,0.028744329,9.02695,3.8405023,1,1683969746.4389815
-1.6222289,-0.40325522,-0.059088815,1.9000963,-0.5148067,1.5537357,0.028744329,9.02695,3.8405023,1,1683969746.4594855
-1.4156314,-0.39496207,-0.063235395,1.9000963,-0.5148067,1.5537357,0.028744329,9.02695,3.8405023,1,1683969746.464618
-1.4156314,-0.39496207,-0.063235395,1.6676621,-0.606131,3.1338913,0.028744329,9.02695,3.8405023,1,1683969746.4850898
-1.4156314,-0.39496207,-0.063235395,1.6676621,-0.606131,3.1338913,0.22829841,9.118366,3.6110096,1,1683969746.4901814
-1.4156314,-0.39496207,-0.063235395,1.3125967,-0.48395798,4.8855476,0.22829841,9.118366,3.6110096,1,1683969746.515761
-0.81120586,-0.2528806,-0.022379354,1.3125967,-0.48395798,4.8855476,0.22829841,9.118366,3.6110096,1,1683969746.5208838
-0.81120586,-0.2528806,-0.022379354,1.3125967,-0.48395798,4.8855476,0.52451193,9.157021,3.4799366,1,1683969746.531144
-0.81120586,-0.2528806,-0.022379354,0.79137594,-0.08506299,5.9066086,0.52451193,9.157021,3.4799366,1,1683969746.5414157
0.32026258,0.1952553,-0.05719846,0.79137594,-0.08506299,5.9066086,0.52451193,9.157021,3.4799366,1,1683969746.5567658
0.32026258,0.1952553,-0.05719846,0.79137594,-0.08506299,5.9066086,1.1760423,9.154041,3.3251393,1,1683969746.5669734
0.32026258,0.1952553,-0.05719846,0.79137594,-0.08506299,5.9066086,1.6840374,9.094405,3.2698507,1,1683969746.582348
0.32026258,0.1952553,-0.05719846,0.077121735,0.32498032,5.732207,1.6840374,9.094405,3.2698507,1,1683969746.592612
1.3520302,0.9387743,-0.19647488,0.077121735,0.32498032,5.732207,1.6840374,9.094405,3.2698507,1,1683969746.5977418
2.3542836,1.9163922,-0.23830658,0.077121735,0.32498032,5.732207,1.6840374,9.094405,3.2698507,1,1683969746.6080017
2.3542836,1.9163922,-0.23830658,-1.20371,0.81489426,3.992768,1.6840374,9.094405,3.2698507,1,1683969746.6182625
2.3542836,1.9163922,-0.23830658,-1.20371,0.81489426,3.992768,2.1263814,8.993853,3.2901711,1,1683969746.6233544
2.3542836,1.9163922,-0.23830658,-2.1273382,0.99464136,1.9213239,2.1263814,8.993853,3.2901711,1,1683969746.6541266
2.7041821,2.2757425,-0.056161813,-2.1273382,0.99464136,1.9213239,2.1263814,8.993853,3.2901711,1,1683969746.659185
2.7041821,2.2757425,-0.056161813,-2.1273382,0.99464136,1.9213239,2.424119,8.875714,3.4031534,1,1683969746.6745791
-1.4616706,-0.4308788,0.06927233,-2.1273382,0.99464136,1.9213239,2.424119,8.875714,3.4031534,1,1683969746.6950989
-1.4616706,-0.4308788,0.06927233,1.9611828,-0.9059132,2.8038714,2.424119,8.875714,3.4031534,1,1683969746.7001982
-1.4616706,-0.4308788,0.06927233,1.9611828,-0.9059132,2.8038714,0.11579651,8.987074,3.9313083,1,1683969746.7104173
-1.0398778,-0.3295924,0.060308397,1.9611828,-0.9059132,2.8038714,0.11579651,8.987074,3.9313083,1,1683969746.7360554
-1.0398778,-0.3295924,0.060308397,1.9611828,-0.9059132,2.8038714,0.39429882,9.04718,3.7721577,1,1683969746.7463124
-1.0398778,-0.3295924,0.060308397,1.9207131,-0.9605856,4.5704937,0.39429882,9.04718,3.7721577,1,1683969746.7514374
-1.0398778,-0.3295924,0.060308397,1.6803375,-0.6621779,5.946162,0.39429882,9.04718,3.7721577,1,1683969746.7719553
-1.0398778,-0.3295924,0.060308397,1.6803375,-0.6621779,5.946162,1.0184169,9.089837,3.5459547,1,1683969746.777087
-0.13567865,-0.09671296,0.091529734,1.6803375,-0.6621779,5.946162,1.0184169,9.089837,3.5459547,1,1683969746.7822168
0.8143768,0.43130565,-0.04189269,1.6803375,-0.6621779,5.946162,1.0184169,9.089837,3.5459547,1,1683969746.8027055
0.8143768,0.43130565,-0.04189269,1.6803375,-0.6621779,5.946162,1.5635383,9.064034,3.410974,1,1683969746.807836
0.8143768,0.43130565,-0.04189269,1.2429581,-0.2133447,6.38064,1.5635383,9.064034,3.410974,1,1683969746.818099
2.0296307,1.445999,-0.15854584,1.2429581,-0.2133447,6.38064,1.5635383,9.064034,3.410974,1,1683969746.8283136
2.0296307,1.445999,-0.15854584,0.13072516,0.5323691,5.6083536,1.5635383,9.064034,3.410974,1,1683969746.8437152
2.0296307,1.445999,-0.15854584,0.13072516,0.5323691,5.6083536,2.0975087,8.988934,3.3219945,1,1683969746.8488064
2.853581,2.1736634,-0.25739306,0.13072516,0.5323691,5.6083536,2.0975087,8.988934,3.3219945,1,1683969746.864198
2.853581,2.1736634,-0.25739306,-1.1942415,1.2380711,3.8736491,2.0975087,8.988934,3.3219945,1,1683969746.8693306
2.853581,2.1736634,-0.25739306,-1.1942415,1.2380711,3.8736491,2.5369415,8.873284,3.3263881,1,1683969746.884704
3.0357258,2.4548383,-0.1413497,-1.1942415,1.2380711,3.8736491,2.5369415,8.873284,3.3263881,1,1683969746.9154463
3.0357258,2.4548383,-0.1413497,-2.4365888,1.6980526,1.6137533,2.5369415,8.873284,3.3263881,1,1683969746.920584
3.0357258,2.4548383,-0.1413497,-2.4365888,1.6980526,1.6137533,2.804188,8.743411,3.45332,1,1683969746.9257085
3.0357258,2.4548383,-0.1413497,-3.167489,1.68385,-0.8168796,2.804188,8.743411,3.45332,1,1683969746.941086
2.6069205,2.2515337,0.35398406,-3.167489,1.68385,-0.8168796,2.804188,8.743411,3.45332,1,1683969746.9564333
2.6069205,2.2515337,0.35398406,-2.424524,1.3558154,-1.711339,2.804188,8.743411,3.45332,1,1683969746.9615662
2.6069205,2.2515337,0.35398406,-1.9207131,1.2293663,-2.1068742,2.804188,8.743411,3.45332,1,1683969746.9820695
2.6069205,2.2515337,0.35398406,-1.9207131,1.2293663,-2.1068742,2.5513248,8.449806,4.2810793,1,1683969746.9872038
1.4834403,1.5859462,0.922127,-1.9207131,1.2293663,-2.1068742,2.5513248,8.449806,4.2810793,1,1683969746.9923432
1.4834403,1.5859462,0.922127,-1.1983649,0.9812023,-2.6297748,2.5513248,8.449806,4.2810793,1,1683969747.012869
1.3477615,1.4680735,0.8199259,-1.1983649,0.9812023,-2.6297748,2.5513248,8.449806,4.2810793,1,1683969747.0179994
1.3477615,1.4680735,0.8199259,-1.1983649,0.9812023,-2.6297748,2.3438315,8.428716,4.4383907,1,1683969747.0282643
1.3477615,1.4680735,0.8199259,-0.6722572,0.6262896,-3.3582318,2.3438315,8.428716,4.4383907,1,1683969747.0538733
1.2104365,1.2709888,0.64826953,-0.6722572,0.6262896,-3.3582318,2.3438315,8.428716,4.4383907,1,1683969747.059003
1.2104365,1.2709888,0.64826953,-0.6722572,0.6262896,-3.3582318,1.9822446,8.443898,4.5833845,1,1683969747.0692718
1.2104365,1.2709888,0.64826953,-0.43035457,0.31887165,-3.9605448,1.9822446,8.443898,4.5833845,1,1683969747.094894
1.2104365,1.2709888,0.64826953,-0.43035457,0.31887165,-3.9605448,1.6989216,8.477121,4.6355352,1,1683969747.100039
0.9829232,0.9969484,0.5232013,-0.43035457,0.31887165,-3.9605448,1.6989216,8.477121,4.6355352,1,1683969747.105169
0.9829232,0.9969484,0.5232013,-0.43035457,0.31887165,-3.9605448,1.384469,8.515837,4.6690345,1,1683969747.1256464
0.5611303,0.58905876,0.47149092,-0.43035457,0.31887165,-3.9605448,1.384469,8.515837,4.6690345,1,1683969747.1359093
0.5611303,0.58905876,0.47149092,-0.32055154,0.01695151,-4.4744353,1.384469,8.515837,4.6690345,1,1683969747.1410391
0.5611303,0.58905876,0.47149092,-0.30207285,-0.08277224,-4.562858,1.384469,8.515837,4.6690345,1,1683969747.1512554
0.19080381,0.26013714,0.5031391,-0.30207285,-0.08277224,-4.562858,1.384469,8.515837,4.6690345,1,1683969747.1563952
0.19080381,0.26013714,0.5031391,-0.30207285,-0.08277224,-4.562858,1.0483816,8.546937,4.699667,1,1683969747.1666517
0.19080381,0.26013714,0.5031391,-0.30207285,-0.08277224,-4.562858,0.7002421,8.560804,4.739032,1,1683969747.1871707
0.19080381,0.26013714,0.5031391,-0.21930063,-0.01450805,-4.2346706,0.7002421,8.560804,4.739032,1,1683969747.1974316
-0.33501956,-0.10134738,0.617719,-0.21930063,-0.01450805,-4.2346706,0.7002421,8.560804,4.739032,1,1683969747.2076912
-0.33501956,-0.10134738,0.617719,-0.21930063,-0.01450805,-4.2346706,0.19254181,8.559044,4.78976,1,1683969747.228178
-1.4620975,-0.42587852,0.57186264,-0.21930063,-0.01450805,-4.2346706,0.19254181,8.559044,4.78976,1,1683969747.2435248
-1.4620975,-0.42587852,0.57186264,-0.21930063,-0.01450805,-4.2346706,-0.43623826,8.640355,4.624942,1,1683969747.269176
-1.4620975,-0.42587852,0.57186264,0.9335548,0.129198,-0.060322944,-0.43623826,8.640355,4.624942,1,1683969747.274314
-1.5185642,-0.46136835,0.44526988,0.9335548,0.129198,-0.060322944,-0.43623826,8.640355,4.624942,1,1683969747.2845623
-1.5185642,-0.46136835,0.44526988,0.9335548,0.129198,-0.060322944,-0.43674433,8.676541,4.556642,1,1683969747.2998717
-1.5185642,-0.46136835,0.44526988,1.0801625,0.23777929,1.6442965,-0.43674433,8.676541,4.556642,1,1683969747.3100922
-1.3131863,-0.42685416,0.35093513,1.0801625,0.23777929,1.6442965,-0.43674433,8.676541,4.556642,1,1683969747.320295
-1.3131863,-0.42685416,0.35093513,1.0801625,0.23777929,1.6442965,-0.23501803,8.7480955,4.4330225,1,1683969747.3254256
-1.3131863,-0.42685416,0.35093513,1.2611313,0.24633141,3.4092388,-0.23501803,8.7480955,4.4330225,1,1683969747.3459315
-1.3131863,-0.42685416,0.35093513,1.317331,0.21884248,4.706564,-0.23501803,8.7480955,4.4330225,1,1683969747.371502
-1.3131863,-0.42685416,0.35093513,1.317331,0.21884248,4.706564,0.039113197,8.798337,4.338647,1,1683969747.376631
-0.86706275,-0.3312998,0.23806266,1.317331,0.21884248,4.706564,0.039113197,8.798337,4.338647,1,1683969747.3817616
-0.86706275,-0.3312998,0.23806266,1.1893547,0.1740966,5.7453403,0.039113197,8.798337,4.338647,1,1683969747.386895
-0.86706275,-0.3312998,0.23806266,1.1893547,0.1740966,5.7453403,0.41300786,8.833658,4.2464104,1,1683969747.3971605
0.105615914,0.14714272,0.03609967,1.1893547,0.1740966,5.7453403,0.41300786,8.833658,4.2464104,1,1683969747.4022934
1.0054855,0.85559875,-0.19391376,1.1893547,0.1740966,5.7453403,0.41300786,8.833658,4.2464104,1,1683969747.433033
1.0054855,0.85559875,-0.19391376,1.1893547,0.1740966,5.7453403,0.88423204,8.846929,4.1456127,1,1683969747.443261
1.0054855,0.85559875,-0.19391376,0.8564331,0.00045814895,5.668677,0.88423204,8.846929,4.1456127,1,1683969747.4535205
1.8263872,1.6007032,-0.28849244,0.8564331,0.00045814895,5.668677,0.88423204,8.846929,4.1456127,1,1683969747.4740314
1.8263872,1.6007032,-0.28849244,0.28710666,-0.28771752,4.7128253,0.88423204,8.846929,4.1456127,1,1683969747.479163
1.8263872,1.6007032,-0.28849244,0.28710666,-0.28771752,4.7128253,1.3495038,8.823198,4.0701504,1,1683969747.4842966
1.8263872,1.6007032,-0.28849244,-0.66691214,-0.4596761,2.5685356,1.3495038,8.823198,4.0701504,1,1683969747.4996758
1.8263872,1.6007032,-0.28849244,-0.66691214,-0.4596761,2.5685356,1.7405208,8.769021,4.038685,1,1683969747.5048122
2.5664303,2.2398868,-0.09653002,-0.66691214,-0.4596761,2.5685356,1.7405208,8.769021,4.038685,1,1683969747.5150685
2.5664303,2.2398868,-0.09653002,-0.66691214,-0.4596761,2.5685356,1.7306032,8.532732,4.520356,1,1683969747.5304534
1.068233,1.3888615,0.69357705,-0.66691214,-0.4596761,2.5685356,1.7306032,8.532732,4.520356,1,1683969747.5458322
1.068233,1.3888615,0.69357705,-0.61208695,0.03863723,-2.4584272,1.7306032,8.532732,4.520356,1,1683969747.5509622
0.8713923,1.1142114,0.5213109,-0.61208695,0.03863723,-2.4584272,1.7306032,8.532732,4.520356,1,1683969747.5766037
0.8713923,1.1142114,0.5213109,-0.16829337,-0.3417791,-2.992018,1.7306032,8.532732,4.520356,1,1683969747.5817182
0.8713923,1.1142114,0.5213109,-0.16829337,-0.3417791,-2.992018,1.5480838,8.544485,4.564134,1,1683969747.5868185
0.6390617,0.8582208,0.4455748,-0.16829337,-0.3417791,-2.992018,1.5480838,8.544485,4.564134,1,1683969747.6124263
0.6390617,0.8582208,0.4455748,-0.16829337,-0.3417791,-2.992018,1.2357026,8.58969,4.574536,1,1683969747.6175604
0.6390617,0.8582208,0.4455748,0.012675454,-0.6082691,-3.3582318,1.2357026,8.58969,4.574536,1,1683969747.6226845
0.27989438,0.52765274,0.4230125,0.012675454,-0.6082691,-3.3582318,1.2357026,8.58969,4.574536,1,1683969747.6329389
0.27989438,0.52765274,0.4230125,0.054825157,-0.75869465,-3.6268597,1.2357026,8.58969,4.574536,1,1683969747.6380684
0.27989438,0.52765274,0.4230125,0.054825157,-0.75869465,-3.6268597,1.0041617,8.624135,4.5664053,1,1683969747.6585732
0.27989438,0.52765274,0.4230125,0.054825157,-0.75869465,-3.6268597,0.7556565,8.65102,4.563434,1,1683969747.6637022
0.27989438,0.52765274,0.4230125,0.015118915,-0.6976081,-3.6187658,0.7556565,8.65102,4.563434,1,1683969747.673957
-0.045856334,0.28550446,0.47990605,0.015118915,-0.6976081,-3.6187658,0.7556565,8.65102,4.563434,1,1683969747.6944413
-0.045856334,0.28550446,0.47990605,0.011911872,-0.5025894,-3.3501377,0.7556565,8.65102,4.563434,1,1683969747.7047052
-0.37483895,0.07543123,0.5594229,0.011911872,-0.5025894,-3.3501377,0.7556565,8.65102,4.563434,1,1683969747.714954
-0.37483895,0.07543123,0.5594229,0.011911872,-0.5025894,-3.3501377,0.49333605,8.664862,4.573063,1,1683969747.7200887
-0.81797457,-0.18336436,0.6330857,0.011911872,-0.5025894,-3.3501377,0.49333605,8.664862,4.573063,1,1683969747.7508476
-0.81797457,-0.18336436,0.6330857,0.13164146,-0.1684461,-2.604424,0.49333605,8.664862,4.573063,1,1683969747.7610688
-0.81797457,-0.18336436,0.6330857,0.13164146,-0.1684461,-2.604424,0.11854061,8.669037,4.5901923,1,1683969747.7661989
-0.81797457,-0.18336436,0.6330857,0.3744604,0.027488936,-1.6733127,0.11854061,8.669037,4.5901923,1,1683969747.7712922
-0.81797457,-0.18336436,0.6330857,0.3744604,0.027488936,-1.6733127,-0.080692165,8.671274,4.5867867,1,1683969747.7866728
-1.1939721,-0.31300604,0.65979457,0.3744604,0.027488936,-1.6733127,-0.080692165,8.671274,4.5867867,1,1683969747.791809
1.1354932,1.5070392,0.79632694,0.3744604,0.027488936,-1.6733127,-0.080692165,8.671274,4.5867867,1,1683969747.802059
1.1354932,1.5070392,0.79632694,-0.6960809,0.7031059,-2.2473733,-0.080692165,8.671274,4.5867867,1,1683969747.807196
1.1354932,1.5070392,0.79632694,-0.6960809,0.7031059,-2.2473733,1.876333,8.492648,4.537664,1,1683969747.8123271
1.1354932,1.5070392,0.79632694,-0.6960809,0.7031059,-2.2473733,1.6826053,8.50048,4.5985627,1,1683969747.843103
0.9796913,1.26733,0.61643845,-0.6960809,0.7031059,-2.2473733,1.6826053,8.50048,4.5985627,1,1683969747.8481956
0.9796913,1.26733,0.61643845,-0.20647246,0.41034874,-2.7324002,1.6826053,8.50048,4.5985627,1,1683969747.853325
0.9796913,1.26733,0.61643845,0.06688975,0.12339478,-3.1687107,1.6826053,8.50048,4.5985627,1,1683969747.863582
0.9796913,1.26733,0.61643845,0.06688975,0.12339478,-3.1687107,1.3538914,8.543968,4.626413,1,1683969747.8840528
0.81212056,1.0229865,0.50716376,0.06688975,0.12339478,-3.1687107,1.3538914,8.543968,4.626413,1,1683969747.8891895
0.5243599,0.6831496,0.4167926,0.06688975,0.12339478,-3.1687107,1.3538914,8.543968,4.626413,1,1683969747.9045553
0.5243599,0.6831496,0.4167926,0.24022275,-0.20479257,-3.6187658,1.3538914,8.543968,4.626413,1,1683969747.9148142
0.5243599,0.6831496,0.4167926,0.24022275,-0.20479257,-3.6187658,1.1082369,8.584719,4.616332,1,1683969747.9199364
0.5243599,0.6831496,0.4167926,0.24022275,-0.20479257,-3.6187658,0.8444815,8.624388,4.598142,1,1683969747.9455402
0.5243599,0.6831496,0.4167926,0.28695396,-0.366061,-3.8336375,0.8444815,8.624388,4.598142,1,1683969747.9506705
0.22885482,0.41185328,0.4225856,0.28695396,-0.366061,-3.8336375,0.8444815,8.624388,4.598142,1,1683969747.9609308
0.22885482,0.41185328,0.4225856,0.28695396,-0.366061,-3.8336375,0.562313,8.655189,4.5834084,1,1683969747.9865623
-0.122324206,0.16671704,0.4739911,0.28695396,-0.366061,-3.8336375,0.562313,8.655189,4.5834084,1,1683969747.9917002
-0.122324206,0.16671704,0.4739911,0.3200934,-0.37690386,-3.8382192,0.562313,8.655189,4.5834084,1,1683969747.9968255
-0.5456416,-0.10714039,0.52112794,0.3200934,-0.37690386,-3.8382192,0.562313,8.655189,4.5834084,1,1683969748.0122344
-0.5456416,-0.10714039,0.52112794,0.4184427,-0.2678644,-3.472158,0.562313,8.655189,4.5834084,1,1683969748.0173662
-0.5456416,-0.10714039,0.52112794,0.4184427,-0.2678644,-3.472158,0.26593694,8.674744,4.5732045,1,1683969748.0225008
-0.904443,-0.2628812,0.53936076,0.4184427,-0.2678644,-3.472158,0.26593694,8.674744,4.5732045,1,1683969748.0481308
-0.904443,-0.2628812,0.53936076,0.61178154,-0.19639318,-2.8663325,0.26593694,8.674744,4.5732045,1,1683969748.0532641
-0.904443,-0.2628812,0.53936076,0.61178154,-0.19639318,-2.8663325,-0.15011558,8.693676,4.54242,1,1683969748.058394
-0.904443,-0.2628812,0.53936076,1.3419182,-0.3830125,1.8487836,-0.15011558,8.693676,4.54242,1,1683969748.0788815
-0.904443,-0.2628812,0.53936076,1.3419182,-0.3830125,1.8487836,-0.87386143,8.637157,4.5685887,1,1683969748.083994
-1.6485717,-0.5511297,0.25153908,1.3419182,-0.3830125,1.8487836,-0.87386143,8.637157,4.5685887,1,1683969748.0993345
-1.6485717,-0.5511297,0.25153908,1.3419182,-0.3830125,1.8487836,-0.5956807,8.742793,4.40963,1,1683969748.1198478
-1.6485717,-0.5511297,0.25153908,1.676825,-0.8242099,3.8437169,-0.5956807,8.742793,4.40963,1,1683969748.130115
-1.2794648,-0.447831,0.17690057,1.676825,-0.8242099,3.8437169,-0.5956807,8.742793,4.40963,1,1683969748.135193
-0.44398934,-0.11384811,0.23409903,1.676825,-0.8242099,3.8437169,-0.5956807,8.742793,4.40963,1,1683969748.1505728
-0.44398934,-0.11384811,0.23409903,1.7127135,-0.8507826,5.3872204,-0.5956807,8.742793,4.40963,1,1683969748.1557043
-0.44398934,-0.11384811,0.23409903,1.7127135,-0.8507826,5.3872204,-0.2420841,8.822268,4.283117,1,1683969748.171099
0.42661023,0.36575305,0.14976484,1.7127135,-0.8507826,5.3872204,-0.2420841,8.822268,4.283117,1,1683969748.1762314
0.42661023,0.36575305,0.14976484,1.7127135,-0.8507826,5.3872204,0.21821488,8.881128,4.161017,1,1683969748.201826
0.42661023,0.36575305,0.14976484,1.4178182,-0.45906523,5.9961004,0.21821488,8.881128,4.161017,1,1683969748.2069573
0.42661023,0.36575305,0.14976484,0.7680103,-0.07238753,5.735719,0.21821488,8.881128,4.161017,1,1683969748.2274652
1.3263578,1.1184798,-0.028111396,0.7680103,-0.07238753,5.735719,0.21821488,8.881128,4.161017,1,1683969748.2325966
1.3263578,1.1184798,-0.028111396,0.7680103,-0.07238753,5.735719,0.73511696,8.906362,4.046285,1,1683969748.2428567
2.3673332,2.0328016,-0.077260606,0.7680103,-0.07238753,5.735719,0.73511696,8.906362,4.046285,1,1683969748.2633352
2.3673332,2.0328016,-0.077260606,0.7680103,-0.07238753,5.735719,1.4051398,8.855294,3.980635,1,1683969748.2684677
2.3673332,2.0328016,-0.077260606,-0.61666846,0.48456886,3.7501018,1.4051398,8.855294,3.980635,1,1683969748.2786865
2.3673332,2.0328016,-0.077260606,-0.61666846,0.48456886,3.7501018,1.6899483,8.780015,4.0362763,1,1683969748.2940378
2.552222,2.2442162,0.02201348,-0.61666846,0.48456886,3.7501018,1.6899483,8.780015,4.0362763,1,1683969748.299135
2.552222,2.2442162,0.02201348,-1.3011429,0.7292204,2.403144,1.6899483,8.780015,4.0362763,1,1683969748.3093252
2.552222,2.2442162,0.02201348,-2.0132592,0.97326106,0.36056322,1.6899483,8.780015,4.0362763,1,1683969748.3349068
2.552222,2.2442162,0.02201348,-2.0132592,0.97326106,0.36056322,1.8192933,8.693846,4.164533,1,1683969748.3400393
2.2332401,2.2551925,0.42545164,-2.0132592,0.97326106,0.36056322,1.8192933,8.693846,4.164533,1,1683969748.3451693
2.2332401,2.2551925,0.42545164,0.2564107,-0.27931812,-2.3361015,1.8192933,8.693846,4.164533,1,1683969748.3503008
1.0006682,1.4123995,0.8180965,0.2564107,-0.27931812,-2.3361015,1.8192933,8.693846,4.164533,1,1683969748.3759463
1.0006682,1.4123995,0.8180965,0.2564107,-0.27931812,-2.3361015,1.4470131,8.361202,4.9226594,1,1683969748.3810751
0.88169783,1.1964113,0.6155847,0.2564107,-0.27931812,-2.3361015,1.4470131,8.361202,4.9226594,1,1683969748.396424
0.88169783,1.1964113,0.6155847,0.55680364,-0.27275133,-2.8272371,1.4470131,8.361202,4.9226594,1,1683969748.4015195
0.88169783,1.1964113,0.6155847,0.55680364,-0.27275133,-2.8272371,1.2832793,8.406681,4.890501,1,1683969748.4168177
0.88169783,1.1964113,0.6155847,0.54229563,-0.19593503,-3.227812,1.2832793,8.406681,4.890501,1,1683969748.4270382
0.88169783,1.1964113,0.6155847,0.54229563,-0.19593503,-3.227812,1.0879769,8.46102,4.8439207,1,1683969748.432166
0.6365615,0.8590135,0.39325467,0.54229563,-0.19593503,-3.227812,1.0879769,8.46102,4.8439207,1,1683969748.4526708
0.6365615,0.8590135,0.39325467,0.420428,-0.1330159,-3.526525,1.0879769,8.46102,4.8439207,1,1683969748.462927
0.6365615,0.8590135,0.39325467,0.420428,-0.1330159,-3.526525,0.8576328,8.512453,4.7998676,1,1683969748.4731941
0.33806852,0.5814974,0.29635876,0.420428,-0.1330159,-3.526525,0.8576328,8.512453,4.7998676,1,1683969748.4834058
-0.08000467,0.27434528,0.25214887,0.420428,-0.1330159,-3.526525,0.8576328,8.512453,4.7998676,1,1683969748.4987597
-0.08000467,0.27434528,0.25214887,0.420428,-0.1330159,-3.526525,0.45794284,8.567285,4.756891,1,1683969748.5038502
-0.08000467,0.27434528,0.25214887,0.2837469,-0.112399206,-3.611588,0.45794284,8.567285,4.756891,1,1683969748.5242493
-0.08000467,0.27434528,0.25214887,0.25381452,-0.1777618,-3.3382258,0.45794284,8.567285,4.756891,1,1683969748.5345173
-0.08000467,0.27434528,0.25214887,0.25381452,-0.1777618,-3.3382258,0.16785134,8.585345,4.7433968,1,1683969748.5447824
-0.480089,0.040002335,0.2552588,0.25381452,-0.1777618,-3.3382258,0.16785134,8.585345,4.7433968,1,1683969748.5499136
-0.480089,0.040002335,0.2552588,0.25381452,-0.1777618,-3.3382258,-0.22707663,8.595696,4.7221346,1,1683969748.5858335
-0.480089,0.040002335,0.2552588,0.4014912,-0.37950003,-2.4811819,-0.22707663,8.595696,4.7221346,1,1683969748.5909655
-0.94657964,-0.22635466,0.26733267,0.4014912,-0.37950003,-2.4811819,-0.22707663,8.595696,4.7221346,1,1683969748.596059
-1.1086622,-0.3003224,0.27818695,0.4014912,-0.37950003,-2.4811819,-0.22707663,8.595696,4.7221346,1,1683969748.6062796
-1.1086622,-0.3003224,0.27818695,0.4014912,-0.37950003,-2.4811819,-0.33367577,8.598268,4.7111106,1,1683969748.6164787
-1.1086622,-0.3003224,0.27818695,0.48426342,-0.46288314,-2.033876,-0.33367577,8.598268,4.7111106,1,1683969748.6215568
-1.1086622,-0.3003224,0.27818695,0.35414913,-0.05757405,-3.5553885,-0.33367577,8.598268,4.7111106,1,1683969748.626687
-0.737726,-0.0983594,0.20184104,0.35414913,-0.05757405,-3.5553885,-0.33367577,8.598268,4.7111106,1,1683969748.6420782
-0.737726,-0.0983594,0.20184104,0.35414913,-0.05757405,-3.5553885,-0.3714245,8.616532,4.6747766,1,1683969748.6523132
-0.737726,-0.0983594,0.20184104,0.47678033,-0.29046643,-3.0789135,-0.3714245,8.616532,4.6747766,1,1683969748.6625743
-1.0897588,-0.27580878,0.22983049,0.47678033,-0.29046643,-3.0789135,-0.3714245,8.616532,4.6747766,1,1683969748.667705
-1.0897588,-0.27580878,0.22983049,0.6250679,-0.43860126,-2.355191,-0.3714245,8.616532,4.6747766,1,1683969748.677925
-1.0897588,-0.27580878,0.22983049,0.6250679,-0.43860126,-2.355191,-0.6203452,8.619437,4.6429067,1,1683969748.6932693
-1.0897588,-0.27580878,0.22983049,0.6250679,-0.43860126,-2.355191,-0.86167437,8.635069,4.5748463,1,1683969748.7086563
-1.0897588,-0.27580878,0.22983049,0.82543164,-0.5884159,-0.9101892,-0.86167437,8.635069,4.5748463,1,1683969748.7137864
-1.5100272,-0.41575596,0.2394042,0.82543164,-0.5884159,-0.9101892,-0.86167437,8.635069,4.5748463,1,1683969748.7342935
-1.5100272,-0.41575596,0.2394042,0.93370754,-0.678824,0.20341812,-0.86167437,8.635069,4.5748463,1,1683969748.749632
-1.5100272,-0.41575596,0.2394042,0.93370754,-0.678824,0.20341812,-0.8929067,8.647038,4.5461593,1,1683969748.7598538
-1.6835738,-0.45844138,0.21476863,0.93370754,-0.678824,0.20341812,-0.8929067,8.647038,4.5461593,1,1683969748.7649887
-1.6718048,-0.4502092,0.20659742,0.93370754,-0.678824,0.20341812,-0.8929067,8.647038,4.5461593,1,1683969748.79052
-1.6718048,-0.4502092,0.20659742,1.0430524,-0.84864455,2.3263276,-0.8929067,8.647038,4.5461593,1,1683969748.795646
-1.6718048,-0.4502092,0.20659742,1.0430524,-0.84864455,2.3263276,-0.86210793,8.684113,4.4809694,1,1683969748.8007874
-1.1370785,-0.30928633,0.23452587,1.0430524,-0.84864455,2.3263276,-0.86210793,8.684113,4.4809694,1,1683969748.8161318
-1.1370785,-0.30928633,0.23452587,1.0430524,-0.84864455,2.3263276,-0.55543756,8.765066,4.3704953,1,1683969748.8263478
-1.1370785,-0.30928633,0.23452587,1.0899363,-0.9112582,4.3763914,-0.55543756,8.765066,4.3704953,1,1683969748.8366356
-1.1370785,-0.30928633,0.23452587,1.0899363,-0.9112582,4.3763914,-0.1870843,8.81788,4.294894,1,1683969748.8520272
-1.1370785,-0.30928633,0.23452587,0.93202764,-0.69898254,5.605452,-0.1870843,8.81788,4.294894,1,1683969748.8674197
-0.35611832,-0.039880376,0.27507702,0.93202764,-0.69898254,5.605452,-0.1870843,8.81788,4.294894,1,1683969748.8776805
-0.35611832,-0.039880376,0.27507702,0.35369098,-0.09132435,6.0822325,-0.1870843,8.81788,4.294894,1,1683969748.8930645
0.9096263,0.676198,0.2490999,0.35369098,-0.09132435,6.0822325,-0.1870843,8.81788,4.294894,1,1683969748.8981948
0.9096263,0.676198,0.2490999,0.35369098,-0.09132435,6.0822325,-0.0035355191,8.6001005,4.719575,1,1683969748.9084127
-0.79632694,-0.10165227,0.26013714,0.35369098,-0.09132435,6.0822325,-0.0035355191,8.6001005,4.719575,1,1683969748.9185853
-0.79632694,-0.10165227,0.26013714,0.34269542,-0.8206975,3.9495492,-0.0035355191,8.6001005,4.719575,1,1683969748.933898
-0.79632694,-0.10165227,0.26013714,0.34269542,-0.8206975,3.9495492,0.32589605,8.603657,4.7018075,1,1683969748.949295
-0.79632694,-0.10165227,0.26013714,0.27030787,-0.97158116,5.0222287,0.32589605,8.603657,4.7018075,1,1683969748.9544258
0.038477857,0.1765347,0.28501663,0.27030787,-0.97158116,5.0222287,0.32589605,8.603657,4.7018075,1,1683969748.9646757
0.038477857,0.1765347,0.28501663,0.27030787,-0.97158116,5.0222287,0.77425706,8.585476,4.6825466,1,1683969748.9800646
0.038477857,0.1765347,0.28501663,-0.04596761,-0.97524637,5.0289483,0.77425706,8.585476,4.6825466,1,1683969748.990281
1.5503954,1.2394626,0.41349974,-0.04596761,-0.97524637,5.0289483,0.77425706,8.585476,4.6825466,1,1683969748.9953816
2.4888036,2.1815298,0.7031508,-0.04596761,-0.97524637,5.0289483,0.77425706,8.585476,4.6825466,1,1683969749.0209203
2.4888036,2.1815298,0.7031508,-0.04596761,-0.97524637,5.0289483,1.2273434,8.538855,4.670943,1,1683969749.0311182
2.4888036,2.1815298,0.7031508,-0.4448626,-0.6067419,3.426954,1.2273434,8.538855,4.670943,1,1683969749.0362473
2.8591301,2.2906826,0.8831613,-0.4448626,-0.6067419,3.426954,1.2273434,8.538855,4.670943,1,1683969749.046502
2.8591301,2.2906826,0.8831613,-0.89843005,0.13316862,0.54901516,1.2273434,8.538855,4.670943,1,1683969749.051595
2.8591301,2.2906826,0.8831613,-0.89843005,0.13316862,0.54901516,1.6514097,8.444925,4.710859,1,1683969749.0772343
2.3456857,2.039875,1.0731114,-0.89843005,0.13316862,0.54901516,1.6514097,8.444925,4.710859,1,1683969749.087443
2.3456857,2.039875,1.0731114,-0.98364574,0.42470407,-1.3046554,1.6514097,8.444925,4.710859,1,1683969749.102827
2.3456857,2.039875,1.0731114,-0.98364574,0.42470407,-1.3046554,1.690944,8.398188,4.77988,1,1683969749.1079643
1.5276501,1.7266251,1.2023873,-0.98364574,0.42470407,-1.3046554,1.690944,8.398188,4.77988,1,1683969749.1182022
1.5276501,1.7266251,1.2023873,-0.98364574,0.42470407,-1.3046554,1.5819718,8.374903,4.8574157,1,1683969749.1386175
1.5276501,1.7266251,1.2023873,-0.6207918,0.52534413,-2.3302982,1.5819718,8.374903,4.8574157,1,1683969749.1437504
1.5276501,1.7266251,1.2023873,-0.6207918,0.52534413,-2.3302982,1.3926448,8.379237,4.90765,1,1683969749.1642365
1.5276501,1.7266251,1.2023873,0.23548855,0.37720928,-2.6552784,1.3926448,8.379237,4.90765,1,1683969749.1693676
0.8330974,1.3694701,1.0642084,0.23548855,0.37720928,-2.6552784,1.3926448,8.379237,4.90765,1,1683969749.1744964
0.8330974,1.3694701,1.0642084,0.23548855,0.37720928,-2.6552784,1.0672083,6.8861375,6.904947,1,1683969749.1950116
0.8330974,1.3694701,1.0642084,0.6733262,-0.41080686,-1.0302242,1.0672083,6.8861375,6.904947,1,1683969749.200151
0.3352025,0.69156474,0.8316339,0.6733262,-0.41080686,-1.0302242,1.0672083,6.8861375,6.904947,1,1683969749.2103705
0.3352025,0.69156474,0.8316339,0.6733262,-0.41080686,-1.0302242,1.0132455,6.9638686,6.834762,1,1683969749.2154827
0.22312276,0.63076854,0.819499,0.6733262,-0.41080686,-1.0302242,1.0132455,6.9638686,6.834762,1,1683969749.2205758
0.22312276,0.63076854,0.819499,0.81382525,-0.33964106,-1.0175488,1.0132455,6.9638686,6.834762,1,1683969749.235863
0.22312276,0.63076854,0.819499,0.81382525,-0.33964106,-1.0175488,0.9695735,7.0196714,6.783823,1,1683969749.2614505
0.22312276,0.63076854,0.819499,0.77396625,-0.13698652,-0.9236283,0.9695735,7.0196714,6.783823,1,1683969749.2665794
0.15287478,0.59113204,0.7605932,0.77396625,-0.13698652,-0.9236283,0.9695735,7.0196714,6.783823,1,1683969749.2768397
0.15287478,0.59113204,0.7605932,0.77396625,-0.13698652,-0.9236283,0.9182944,7.068668,6.739939,1,1683969749.3076224
0.15287478,0.59113204,0.7605932,0.56321776,0.1863139,-0.7031059,0.9182944,7.068668,6.739939,1,1683969749.312759
0.10598179,0.55777645,0.6940039,0.56321776,0.1863139,-0.7031059,0.9182944,7.068668,6.739939,1,1683969749.3178892
0.07701669,0.53759235,0.6218046,0.56321776,0.1863139,-0.7031059,0.9182944,7.068668,6.739939,1,1683969749.3331995
0.07701669,0.53759235,0.6218046,0.33933565,0.43844852,-0.45677447,0.9182944,7.068668,6.739939,1,1683969749.3383207
0.07701669,0.53759235,0.6218046,0.33933565,0.43844852,-0.45677447,0.8621616,7.1047773,6.7093167,1,1683969749.348529
0.08787098,0.547471,0.54631233,0.33933565,0.43844852,-0.45677447,0.8621616,7.1047773,6.7093167,1,1683969749.363919
0.08787098,0.547471,0.54631233,0.33933565,0.43844852,-0.45677447,0.80745476,7.1257014,6.6939163,1,1683969749.384392
0.08787098,0.547471,0.54631233,0.107359566,0.56779927,-0.19394971,0.80745476,7.1257014,6.6939163,1,1683969749.3895273
0.08787098,0.547471,0.54631233,-0.11866058,0.5180137,0.06612616,0.80745476,7.1257014,6.6939163,1,1683969749.410045
0.08787098,0.547471,0.54631233,-0.11866058,0.5180137,0.06612616,0.7468604,7.130708,6.6956177,1,1683969749.4151604
0.12384869,0.5803387,0.50478554,-0.11866058,0.5180137,0.06612616,0.7468604,7.130708,6.6956177,1,1683969749.420289
0.15842387,0.59351027,0.5112493,-0.11866058,0.5180137,0.06612616,0.7468604,7.130708,6.6956177,1,1683969749.4406555
0.15842387,0.59351027,0.5112493,-0.20219639,0.35094208,0.20799962,0.7468604,7.130708,6.6956177,1,1683969749.4509106
0.15842387,0.59351027,0.5112493,-0.20219639,0.35094208,0.20799962,0.68189,7.160104,6.6711354,1,1683969749.4611683
