acc_x,acc_y,acc_z,gyr_x,gyr_y,gyr_z,grav_x,grav_y,grav_z,label,timestamp
-1.2433252,-0.7059523,-1.6647432,-11.230164,11.359272,9.321041,-3.8516068,8.524944,-2.9429324,1,1683807289.6635277
-0.886027,-1.0517855,-0.61383724,-13.914604,11.905746,9.914379,-3.8516068,8.524944,-2.9429324,1,1683807289.6791534
-0.6524637,-1.2970566,0.21742724,-15.426254,12.175312,10.171127,-1.5829204,9.624979,-1.0121837,1,1683807289.6947782
-0.548004,-1.4261752,0.4495195,-15.933208,12.29147,10.208378,0.2386126,9.576551,2.0983589,1,1683807289.7260282
-0.09308561,-0.5712375,3.4907255,-14.984055,12.946491,7.5175285,0.6316507,7.038372,6.7994647,1,1683807289.741744
1.4478922,0.45453924,3.1290293,-8.344383,8.900604,5.120678,-0.2162182,5.2604256,8.273546,1,1683807289.757278
2.5463872,1.2176956,3.0121186,-8.344383,8.900604,5.120678,-0.4580626,4.82796,8.523578,1,1683807289.8197782
2.904186,0.43793306,3.196637,9.180317,-13.178005,-7.5378227,0.19417867,5.300699,8.248349,1,1683807289.8354027
2.904186,0.43793306,3.196637,9.180317,-13.178005,-7.5378227,1.5600629,7.11723,6.5636606,1,1683807289.8510277
3.4474432,1.2123271,2.7556252,13.281612,-19.55679,-12.146206,-0.33451638,4.836601,8.524423,1,1683807289.866653
3.4474432,1.2123271,2.7556252,14.164677,-19.769878,-13.745174,-0.33451638,4.836601,8.524423,1,1683807289.882278
3.4474432,1.2123271,2.7556252,14.164677,-19.769878,-13.745174,-5.8581533,7.577684,-2.1050227,1,1683807289.8979032
-4.727484,-1.1494056,-1.3364867,6.6311264,0.5755806,-4.2131805,-5.8581533,7.577684,-2.1050227,1,1683807289.8979032
-4.885887,-0.84189546,-2.958979,3.272438,3.9673805,-0.13324738,-5.9364924,7.341014,-2.6529167,1,1683807289.913528
-3.9938548,-0.52193457,-3.6396503,-1.0813332,6.47398,3.8934135,-5.609423,7.436611,-3.066198,1,1683807289.929153
-2.6747327,-0.38819033,-3.1759512,-1.0813332,6.47398,3.8934135,-5.609423,7.436611,-3.066198,1,1683807289.9447777
-1.5916002,-1.3480731,-0.6775322,-5.5085373,7.9877663,6.9220543,-5.609423,7.436611,-3.066198,1,1683807289.960403
-0.65050733,-2.361399,1.4474676,-18.48774,14.787388,11.51762,0.3175114,9.563875,2.1451943,1,1683807289.976028
-0.19070569,-1.8020209,3.1817443,-18.604965,14.1630745,11.077557,0.9061558,8.895398,4.02755,1,1683807289.9916527
-0.19070569,-1.8020209,3.1817443,-3.3855247,5.574894,3.008213,0.116059326,4.376061,8.775364,1,1683807290.038528
2.0912263,0.5192048,4.145767,-3.3855247,5.574894,3.008213,0.116059326,4.376061,8.775364,1,1683807290.038528
4.4590707,1.9352343,2.9803925,2.7493286,-1.5538406,-2.0741463,0.14505051,4.4801393,8.722253,1,1683807290.054153
4.4590707,1.9352343,2.9803925,2.7493286,-1.5538406,-2.0741463,1.5226625,6.1732774,7.4660916,1,1683807290.0697784
3.829886,0.95339197,2.5540307,12.828865,-19.236221,-11.936321,1.5226625,6.1732774,7.4660916,1,1683807290.0697784
2.0975654,-0.9646599,4.828395,14.389515,-22.334957,-14.161739,2.1298835,7.321544,6.1667624,1,1683807290.085403
1.2023634,-1.5506382,3.9890928,10.96674,-8.932915,-14.86269,1.5266302,9.151189,3.1773446,1,1683807290.1166532
0.6935014,-1.7278315,3.0782704,10.96674,-8.932915,-14.86269,-0.8579495,9.720906,0.9686512,1,1683807290.132278
-3.4093325,-1.5889614,0.33506572,9.489269,-4.6718025,-9.585266,-4.5159698,8.605741,-1.310589,1,1683807290.1479027
-3.4093325,-1.5889614,0.33506572,5.3250885,-0.052871704,-3.6476135,-4.920156,7.9656672,-2.9172938,1,1683807290.1947782
-3.5989766,-0.88655776,-2.853306,5.3250885,-0.052871704,-3.6476135,-4.920156,7.9656672,-2.9172938,1,1683807290.1947782
-2.5756414,-1.4178797,-1.8141078,-11.040573,9.638939,9.440269,-2.8667588,9.218866,-1.721792,1,1683807290.2104027
-2.5756414,-1.4178797,-1.8141078,-14.375896,11.179295,11.049919,-2.8667588,9.218866,-1.721792,1,1683807290.226028
-1.7172915,-1.8332617,-0.43298912,-14.375896,11.179295,11.049919,-2.8667588,9.218866,-1.721792,1,1683807290.226028
-0.70420825,-2.551028,2.0500522,-15.568981,11.766224,11.5271,-2.8667588,9.218866,-1.721792,1,1683807290.272903
2.904186,0.5226322,4.732246,-9.882603,9.35976,7.936096,1.1331108,5.436988,8.082426,1,1683807290.288528
4.9449873,2.0238159,4.822541,-4.828949,5.6005287,3.7177086,0.917657,4.852078,8.47264,1,1683807290.3041532
5.741826,2.6349385,4.338824,2.7801704,-2.0885658,-2.7399826,0.9510551,4.9256873,8.426357,1,1683807290.319778
2.0162938,-1.781032,4.962382,12.468777,-16.35992,-12.037525,2.1462274,7.9613533,5.3085737,1,1683807290.335403
0.039187554,-2.5629935,3.765281,11.693325,-10.566998,-16.42641,-0.66493815,9.683184,1.4014957,1,1683807290.3666532
-3.5879817,-2.6205919,1.3793746,11.270351,-4.1158485,-11.82457,-3.5133862,9.148617,-0.35963392,1,1683807290.429153
-5.0879674,-1.1938252,-2.5040605,5.2516556,4.4958305,-2.0069885,-5.59763,7.6075873,-2.6384735,1,1683807290.4447782
-5.0879674,-1.1938252,-2.5040605,8.970432,-0.11041641,-6.4502144,-4.1078396,8.871369,-0.771264,1,1683807290.4604032
-2.9793158,-2.795571,2.0012345,8.970432,-0.11041641,-6.4502144,-4.1078396,8.871369,-0.771264,1,1683807290.4760282
-4.3487115,-0.80748504,-3.3406785,8.970432,-0.11041641,-6.4502144,-5.521473,7.539834,-2.972309,1,1683807290.4916532
-0.5209185,-0.80651444,1.7486385,-14.331169,9.980869,5.6500626,1.0166125,8.81096,4.1837645,1,1683807290.5072777
0.5558597,-0.20003244,2.57185,-12.246342,8.131561,5.0034523,1.0484442,8.111427,5.410721,1,1683807290.5229027
3.7181165,2.0291843,5.170573,-0.78840256,-3.4628296,-0.5560875,1.4575332,7.3831224,6.287725,1,1683807290.538528
3.6263502,1.5769503,4.5648193,-0.78840256,-3.4628296,-0.5560875,1.4575332,7.3831224,6.287725,1,1683807290.5541527
2.5485864,0.47869784,3.3037808,7.095623,-10.563793,-5.07288,1.3429466,9.2345495,3.0149574,1,1683807290.5854032
-0.6927432,-1.0146908,2.1344934,9.592609,-9.122505,-11.70948,-1.480331,9.692837,0.16712223,1,1683807290.6010284
-2.0799584,-1.2826645,1.279313,9.54895,-5.593319,-10.041218,-3.1055195,9.256948,-0.9138102,1,1683807290.6166532
-3.8825707,-0.80577135,-2.3271098,6.408558,-0.36289215,-4.066181,-4.7373466,8.303799,-2.1851451,1,1683807290.6479032
-3.838879,-0.5185223,-3.5093336,-2.48003,5.676098,3.8263893,-5.204489,7.534776,-3.5086784,1,1683807290.6635282
-3.456679,-0.5046156,-3.2960162,-4.5807457,6.60923,5.3316307,-4.3255625,8.058892,-3.5375361,1,1683807290.6791532
-0.4057216,-1.3578397,0.35361308,-14.467487,10.068188,10.2285385,-1.7962718,9.468855,-1.8123392,1,1683807290.7260282
0.22344792,-1.311221,1.0008447,-15.097008,9.930801,9.838676,0.68141675,9.640566,1.6629909,1,1683807290.741653
0.706938,-0.45408428,2.9484236,-15.097008,9.930801,9.838676,1.7572305,8.034047,5.341968,1,1683807290.7885282
0.40820876,-0.6359182,2.5620835,-4.9759483,1.9764137,1.5444946,1.5418178,8.834067,3.9689348,1,1683807290.8041532
0.40820876,-0.6359182,2.5620835,-4.9759483,1.9764137,1.5444946,1.7739,7.206564,6.4100785,1,1683807290.819778
5.138028,2.2703152,5.125168,3.4609604,-5.975704,-3.8862038,1.9790992,6.780193,6.8031273,1,1683807290.8354027
2.9298005,-0.602721,3.4921813,13.264523,-16.540031,-13.096428,2.14356,8.347977,4.6783376,1,1683807290.851028
2.9298005,-0.602721,3.4921813,13.264523,-16.540031,-13.096428,1.5976841,9.111897,3.2544014,1,1683807290.8822782
-4.0917177,-1.3656499,-0.9176773,8.40807,1.6036415,-5.921898,-5.2035203,8.050836,-2.0682871,1,1683807290.8979032
-3.5911663,-0.74451804,-3.5554516,-5.4969215,12.592945,6.93367,-5.0807176,7.2923326,-4.1447062,1,1683807290.929153
-1.916687,-0.11557599,-3.4383137,-5.4969215,12.592945,6.93367,-4.1204553,7.7115526,-4.4411902,1,1683807290.944778
-0.48261052,0.110177085,-2.5016189,-14.330101,10.824547,5.806675,0.13577206,9.741047,-1.12425,1,1683807290.976028
-0.014740829,-0.53023005,0.49418175,-14.177761,8.929443,4.6167946,1.1702604,9.41022,2.4997268,1,1683807290.9916532
0.69644356,-0.17611651,1.7022625,-12.275181,7.3069763,2.9230309,1.2417837,8.646218,4.45772,1,1683807291.0072777
3.0328043,1.3531536,4.903813,4.603977,-9.240799,-5.0025177,1.4283243,7.979287,5.5191717,1,1683807291.038528
3.0328043,1.3531536,4.903813,9.839745,-12.984142,-8.051319,1.4283243,7.979287,5.5191717,1,1683807291.0541532
0.28373063,-1.2321483,2.2738488,12.007618,-11.418152,-11.899071,-0.32333174,9.736479,1.1255391,1,1683807291.0697782
-0.5009152,-1.3058525,2.065915,11.326828,-9.351616,-11.779709,-1.422507,9.701774,0.14980945,1,1683807291.0854032
-2.6940079,-1.3668631,0.70675606,10.916672,-7.502308,-11.130962,-4.1065316,8.720124,-1.8072708,1,1683807291.1167183
-2.6940079,-1.3668631,0.70675606,5.790653,1.6270065,-2.7025986,-5.465823,7.3138156,-3.5781634,1,1683807291.1322782
-3.7437005,-0.69644356,-1.9856746,5.790653,1.6270065,-2.7025986,-5.465823,7.3138156,-3.5781634,1,1683807291.1322782
-2.8419015,-0.35036767,-3.2286663,-1.5128517,6.9970894,3.7378693,-4.9862647,7.3435006,-4.1689997,1,1683807291.147903
-2.1905146,-0.23444289,-3.1515348,-9.23172,9.444008,7.5164604,-4.2353067,7.7466125,-4.2687883,1,1683807291.1635287
-0.7039656,-0.23420024,-2.369088,-9.23172,9.444008,7.5164604,-4.2353067,7.7466125,-4.2687883,1,1683807291.179153
-0.57875955,-1.1379405,-0.18307747,-14.016876,9.108353,7.5802803,-0.48664486,9.7497,-0.93643904,1,1683807291.1947782
-0.57875955,-1.1379405,-0.18307747,-14.537716,7.3794746,7.716732,1.4757192,8.601747,4.472426,1,1683807291.226028
-0.50773966,-1.3695474,2.486423,-14.537716,7.3794746,7.716732,1.4757192,8.601747,4.472426,1,1683807291.226028
-0.10456587,-1.0088369,3.0711882,-13.718605,7.1419525,7.621937,1.6222472,8.191969,5.1410446,1,1683807291.241653
4.4583426,1.2403983,3.8287332,8.9492035,-11.478901,-7.8095245,2.4727504,7.0537,6.3483233,1,1683807291.2729032
3.766191,0.4459859,3.5039043,10.876217,-13.748913,-9.963512,2.563618,7.4788957,5.802101,1,1683807291.2885292
1.27217,-1.3817556,3.3843095,12.373981,-15.565243,-13.283882,2.4529161,8.358237,4.5048265,1,1683807291.3041527
1.27217,-1.3817556,3.3843095,12.373981,-15.565243,-13.283882,-4.7232785,7.870031,-3.4530647,1,1683807291.3822782
-4.367259,-0.70425373,-3.7653418,2.1868324,4.5681953,-0.1566124,-4.7232785,7.870031,-3.4530647,1,1683807291.3822782
-2.7957833,-0.19928934,-3.7126265,-4.8353577,8.238106,4.924679,-4.009154,8.134771,-3.731294,1,1683807291.3979032
-0.9121419,-1.3202446,0.55666345,-14.249058,8.623695,8.078823,0.13675296,9.766109,0.880226,1,1683807291.444778
-0.6265914,-1.4137244,1.1306914,-14.017944,8.139038,8.284435,0.78370714,9.498477,2.3097918,1,1683807291.4604027
0.3962432,-0.42163017,2.9001067,-12.177181,7.7278137,7.6399612,1.6623148,8.300202,4.9511347,1,1683807291.476028
0.84189546,-0.068472065,3.2273772,-11.398392,7.976017,7.105236,1.7489893,7.9229193,5.508065,1,1683807291.4916553
2.7553067,0.98975873,4.0413074,-7.303505,6.720047,3.8817978,1.6898972,6.8965683,6.7640214,1,1683807291.5229044
3.1116345,0.33006114,2.8046703,2.0643997,-1.2992287,-2.2776222,1.6898972,6.8965683,6.7640214,1,1683807291.5385294
3.1116345,0.33006114,2.8046703,10.93483,-12.984142,-8.956814,1.8721349,7.6263185,5.874076,1,1683807291.5541532
1.4442222,-0.8872857,3.410667,12.3633,-15.562038,-10.587692,1.4717506,9.162809,3.1697404,1,1683807291.5697782
0.64177203,-1.1921115,3.1880834,12.282391,-14.700336,-13.158245,0.6457337,9.600296,1.8941332,1,1683807291.5854042
0.64177203,-1.1921115,3.1880834,12.282391,-14.700336,-13.158245,-1.004406,9.743659,0.47187737,1,1683807291.6010292
-1.0153732,-1.2128578,2.2294292,9.234657,-2.1131325,-8.364544,-1.004406,9.743659,0.47187737,1,1683807291.6010292
-2.837261,-0.8277461,-0.9137798,8.417683,-1.3876152,-6.3885307,-4.257154,8.557031,-2.1964166,1,1683807291.6166546
-3.1572218,-0.10508149,-3.6523438,2.1431732,1.7133904,-0.3632927,-4.9725513,7.7322083,-3.4142468,1,1683807291.6322784
-2.7733233,-0.15414175,-3.2413597,-4.141884,4.6310806,3.336258,-4.5958657,7.907902,-3.5374422,1,1683807291.6479037
-2.7733233,-0.15414175,-3.2413597,-8.045044,6.6018867,5.247383,-4.5958657,7.907902,-3.5374422,1,1683807291.6791408
-2.7733233,-0.15414175,-3.2413597,-13.254108,9.275646,7.792301,-4.3461456,8.088249,-3.4440718,1,1683807291.6947787
-2.1814911,-0.5685532,-1.857299,-9.675922,7.464657,6.0133553,-3.696412,8.562217,-3.032388,1,1683807291.710404
-1.697273,-1.5725977,0.27696684,-14.470692,9.795551,8.845863,-2.0391717,9.506119,-1.2829207,1,1683807291.7260282
-1.697273,-1.5725977,0.27696684,-14.470692,9.795551,8.845863,-0.7140193,9.75743,0.673155,1,1683807291.741653
0.3974716,-0.93293375,2.934517,-14.53558,8.734512,9.904766,0.44903544,9.372639,2.8499804,1,1683807291.7572787
1.4007883,-0.036745917,3.511214,-13.050632,8.191242,9.246407,1.2541983,8.410842,4.8841696,1,1683807291.7729032
1.4007883,-0.036745917,3.511214,-8.655338,7.52861,5.7086754,1.2541983,8.410842,4.8841696,1,1683807291.7885282
2.6789184,0.84209263,3.830447,-8.655338,7.52861,5.7086754,1.2541983,8.410842,4.8841696,1,1683807291.8041542
1.3204871,-0.5978377,3.257162,8.327026,-9.177914,-6.793213,1.4249367,6.3648367,7.323168,1,1683807291.819778
-0.6204949,-0.90851736,1.2615087,10.850716,-7.618332,-11.328163,-2.6302114,9.412973,-0.80517477,1,1683807291.851029
-1.865913,-0.90706146,-0.03175648,9.535065,-3.480854,-8.721428,-2.6302114,9.412973,-0.80517477,1,1683807291.8666532
-1.865913,-0.90706146,-0.03175648,9.535065,-3.480854,-8.721428,-3.9652965,8.758519,-1.9326534,1,1683807291.8822794
-1.865913,-0.90706146,-0.03175648,6.880398,-1.5016365,-5.6651497,-4.9419327,7.995525,-2.7962968,1,1683807291.8979032
-3.461077,-0.58393097,-2.264886,5.8961296,-0.86357117,-4.6212006,-5.1662836,7.7673373,-3.0246272,1,1683807291.913528
-3.461077,-0.58393097,-2.264886,1.8363571,1.4981651,-0.68078995,-5.1662836,7.7673373,-3.0246272,1,1683807291.929153
-3.461077,-0.58393097,-2.264886,1.8363571,1.4981651,-0.68078995,-5.456257,7.3479986,-3.5222955,1,1683807291.944778
-3.461077,-0.58393097,-2.264886,-1.8558502,3.4912682,2.1645355,-5.456257,7.3479986,-3.5222955,1,1683807291.960401
-3.8437624,-0.42310125,-2.9919333,-1.8558502,3.4912682,2.1645355,-5.456257,7.3479986,-3.5222955,1,1683807291.9916406
-3.68683,-0.42310125,-3.1308036,-1.8558502,3.4912682,2.1645355,-5.456257,7.3479986,-3.5222955,1,1683807292.007265
-3.68683,-0.42310125,-3.1308036,-1.8558502,3.4912682,2.1645355,-4.1944447,8.219131,-3.3200731,1,1683807292.0697644
-2.5585501,-0.7411058,-1.7579805,-10.958462,8.055859,8.104458,-4.1944447,8.219131,-3.3200731,1,1683807292.0697644
-1.8046597,-1.4347134,0.023642955,-12.492409,8.979511,9.348679,-2.3844485,9.319427,-1.9060637,1,1683807292.0853894
-1.1093384,-1.5430707,0.4683095,-12.492409,8.979511,9.348679,-1.3375185,9.6794195,-0.83083665,1,1683807292.101014
-1.1093384,-1.5430707,0.4683095,-13.176403,9.20742,10.289288,-1.3375185,9.6794195,-0.83083665,1,1683807292.1166387
0.17341706,-1.6399628,0.9979178,-13.490562,9.369373,8.884182,1.924147,8.430118,4.62614,1,1683807292.1322787
0.8404244,-1.248982,1.5363069,-13.79631,9.262829,10.269127,1.924147,8.430118,4.62614,1,1683807292.147903
1.8815789,-0.26958126,2.3595185,-13.79631,9.262829,10.269127,1.924147,8.430118,4.62614,1,1683807292.1635287
1.8815789,-0.26958126,2.3595185,-11.802139,8.276424,5.9887886,1.924147,8.430118,4.62614,1,1683807292.1791532
3.203143,1.1086105,3.7286716,-9.854832,6.822319,3.9201164,2.0772707,7.604511,5.8332458,1,1683807292.1947782
4.6015954,1.9513401,4.929928,0.82551956,-1.8808174,-3.852024,1.9060953,6.919305,6.6828437,1,1683807292.210389
2.12685,-0.63468975,3.3098774,12.9257965,-16.348171,-12.952633,1.5324807,8.936799,3.7357092,1,1683807292.2260156
1.3282974,-1.0996174,3.4340978,12.9257965,-16.348171,-12.952633,1.5324807,8.936799,3.7357092,1,1683807292.2416425
1.3282974,-1.0996174,3.4340978,12.9257965,-16.348171,-12.952633,-0.19815199,9.703923,1.4017822,1,1683807292.2572646
1.3282974,-1.0996174,3.4340978,11.1042595,-11.272221,-12.947292,-0.19815199,9.703923,1.4017822,1,1683807292.2572646
1.3282974,-1.0996174,3.4340978,9.785404,-7.289219,-12.237797,-1.3423579,9.699067,0.5445783,1,1683807292.2728891
-0.61976695,-1.3204871,2.3058176,9.785404,-7.289219,-12.237797,-1.3423579,9.699067,0.5445783,1,1683807292.2728891
-3.8108077,-0.21222548,-3.5527675,0.27584076,4.6619225,1.9813538,-4.814237,7.908942,-3.2314296,1,1683807292.2885144
-2.604198,-0.29179865,-2.8384135,-4.022522,6.452751,4.813862,-3.9954383,8.340346,-3.2627416,1,1683807292.3041396
-2.604198,-0.29179865,-2.8384135,-6.11042,7.298565,5.916424,-3.9954383,8.340346,-3.2627416,1,1683807292.3353896
-2.604198,-0.29179865,-2.8384135,-6.11042,7.298565,5.916424,0.22899035,9.736336,1.1496587,1,1683807292.382267
0.28104636,-1.3858958,1.6017154,-14.846668,10.324936,9.847221,0.22899035,9.736336,1.1496587,1,1683807292.382267
0.28104636,-1.3858958,1.6017154,-14.298058,10.258846,8.650932,0.62574875,9.599477,1.904965,1,1683807292.413515
1.2980423,0.05306395,3.1290293,-12.989883,10.348301,7.020054,1.5966773,7.95623,5.506307,1,1683807292.4291394
2.3340557,0.79304755,4.028872,-12.989883,10.348301,7.020054,1.5966773,7.95623,5.506307,1,1683807292.444765
2.3340557,0.79304755,4.028872,-12.989883,10.348301,7.020054,1.3374847,6.714009,7.021653,1,1683807292.4603899
2.3340557,0.79304755,4.028872,-4.2110443,3.8267899,1.0321999,1.3374847,6.714009,7.021653,1,1683807292.4603899
2.3340557,0.79304755,4.028872,-4.2110443,3.8267899,1.0321999,1.3570708,6.807114,6.9276223,1,1683807292.4760153
2.6354692,0.5143215,3.140737,9.2367935,-10.433884,-7.305641,1.5428667,7.3865757,6.263262,1,1683807292.5072649
3.5328703,1.5545053,3.8965836,-0.48051834,0.4978752,-1.1026955,1.5428667,7.3865757,6.263262,1,1683807292.5228908
3.5328703,1.5545053,3.8965836,-0.48051834,0.4978752,-1.1026955,0.83784723,9.402793,2.656292,1,1683807292.5385149
0.554146,-0.9163276,2.8046703,12.807636,-13.420868,-11.495323,0.83784723,9.402793,2.656292,1,1683807292.5385149
-0.6995676,-0.8374975,2.1620793,12.330322,-12.053146,-11.332302,-0.92348695,9.747453,0.5520119,1,1683807292.5697649
-0.6995676,-0.8374975,2.1620793,10.7164,-6.8024254,-10.019989,-0.92348695,9.747453,0.5520119,1,1683807292.5853925
-1.8790917,-0.793821,0.35581207,9.627724,-1.4472961,-5.9602165,-3.3165317,8.985827,-2.1037855,1,1683807292.6010146
-2.3181622,-0.70351064,-0.67680424,9.627724,-1.4472961,-5.9602165,-3.3165317,8.985827,-2.1037855,1,1683807292.616644
-2.3181622,-0.70351064,-0.67680424,8.5507965,-1.1766624,-4.218521,-3.3165317,8.985827,-2.1037855,1,1683807292.647894
-2.9031699,-0.5077852,-1.8065403,10.265789,-3.7493515,-8.874836,-3.3165317,8.985827,-2.1037855,1,1683807292.663517
-2.9031699,-0.5077852,-1.8065403,10.265789,-3.7493515,-8.874836,-4.126338,8.185535,-3.484356,1,1683807292.67914
-2.9031699,-0.5077852,-1.8065403,6.423378,-0.6750488,-2.0048523,-4.126338,8.185535,-3.484356,1,1683807292.6947675
-3.3492923,-0.23420024,-3.1988964,6.423378,-0.6750488,-2.0048523,-4.126338,8.185535,-3.484356,1,1683807292.7103941
-2.7599018,-0.009175105,-3.7362998,6.423378,-0.6750488,-2.0048523,-4.126338,8.185535,-3.484356,1,1683807292.7416399
-2.7599018,-0.009175105,-3.7362998,6.423378,-0.6750488,-2.0048523,-4.1208053,7.974015,-3.9502425,1,1683807292.757268
-2.7599018,-0.009175105,-3.7362998,-1.599102,2.0148659,2.8526688,-4.1208053,7.974015,-3.9502425,1,1683807292.7728918
-2.2405455,-0.26958126,-2.8823478,-5.881443,4.0345383,4.7190666,-3.5440352,8.336354,-3.7570462,1,1683807292.7885175
-2.0672648,-0.50582886,-2.313203,-5.881443,4.0345383,4.7190666,-3.5440352,8.336354,-3.7570462,1,1683807292.8197691
-1.7360815,-1.0693623,-0.7065741,-11.828842,7.652111,7.2607803,-3.5440352,8.336354,-3.7570462,1,1683807292.8353934
-1.3402175,-1.2055482,0.018274382,-13.564129,8.4905815,8.648796,1.0511347,9.392151,2.6178231,1,1683807292.882269
-0.33568752,-1.1928546,1.3095832,-13.078403,7.8258133,8.497524,1.0511347,9.392151,2.6178231,1,1683807292.8978899
1.4998794,0.054034542,3.0638633,-10.50251,5.8337784,7.124462,1.9691784,8.205014,4.997045,1,1683807292.9135191
3.1235847,1.2343018,4.482577,-1.427536,0.20494461,0.83192825,2.2164247,7.603147,5.783598,1,1683807292.929144
4.4505324,2.206135,5.4641614,-1.427536,0.20494461,0.83192825,2.4283016,7.5942526,5.709735,1,1683807292.9447684
3.353736,0.55240196,2.5825872,10.4001045,-10.170727,-8.394318,2.3825297,8.224772,4.7798586,1,1683807292.9760153
2.2457168,-0.3166852,2.377823,12.1886635,-13.215256,-11.058598,1.7637115,9.212056,2.8631701,1,1683807292.9916406
1.7576013,-0.6173708,2.41419,5.7341766,-4.9041176,-4.1034317,1.7637115,9.212056,2.8631701,1,1683807293.0072694
-0.40475103,-0.9658731,2.492277,11.273556,-11.738853,-12.096138,0.43667457,9.74017,1.0529956,1,1683807293.02289
-0.40475103,-0.9658731,2.492277,11.273556,-11.738853,-12.096138,-0.65341866,9.784274,0.1067639,1,1683807293.0385163
-0.40475103,-0.9658731,2.492277,10.172062,-8.537712,-11.481571,-0.65341866,9.784274,0.1067639,1,1683807293.0385163
-0.40475103,-0.9658731,2.492277,9.680996,-5.035095,-10.337353,-0.65341866,9.784274,0.1067639,1,1683807293.0697656
-1.3255827,-0.9868621,1.9145942,9.680996,-5.035095,-10.337353,-1.73554,9.624922,-0.72053754,1,1683807293.08539
-1.3255827,-0.9868621,1.9145942,9.680996,-5.035095,-10.337353,-2.6905007,9.305562,-1.5290852,1,1683807293.1010196
-2.315478,-1.0000409,0.35117146,9.507427,-2.5423813,-8.766155,-2.6905007,9.305562,-1.5290852,1,1683807293.1166418
-2.5690446,-0.0020928339,-3.7284896,0.5846596,0.89948654,1.2356758,-4.405779,7.613019,-4.3360634,1,1683807293.1322691
-2.5690446,-0.0020928339,-3.7284896,-1.3263321,1.5631866,2.1133995,-4.3083777,7.6606774,-4.3499746,1,1683807293.1635168
-2.1929562,-0.3842928,-2.4620824,-1.3263321,1.5631866,2.1133995,-3.7102664,8.134185,-4.029807,1,1683807293.1947644
-2.4343297,-0.055793736,-3.5288515,-6.902027,4.474468,4.437752,-3.7102664,8.134185,-4.029807,1,1683807293.21039
-2.4343297,-0.055793736,-3.5288515,-9.865513,6.398411,5.775833,-3.7102664,8.134185,-4.029807,1,1683807293.2260165
-2.1517062,-0.78746665,-1.4804828,-12.794952,8.298855,8.057594,-3.7102664,8.134185,-4.029807,1,1683807293.2572665
-1.5220362,-1.3197592,0.43902498,-12.794952,8.298855,8.057594,-3.7102664,8.134185,-4.029807,1,1683807293.2728944
-1.5220362,-1.3197592,0.43902498,-12.94836,8.25613,8.497524,-3.7102664,8.134185,-4.029807,1,1683807293.2885156
-2.0638525,-1.0678912,-0.5515982,-12.94836,8.25613,8.497524,-1.4463128,9.552187,-1.6835334,1,1683807293.3041387
-0.34519625,-1.2706989,1.1841345,-12.611771,7.5615883,9.32518,-1.000146,9.692639,-1.1058185,1,1683807293.3510156
-0.34519625,-1.2706989,1.1841345,-12.611771,7.5615883,9.32518,0.3262269,9.771652,0.7607629,1,1683807293.3666408
-0.34519625,-1.2706989,1.1841345,-12.123909,7.5562477,9.145203,0.3262269,9.771652,0.7607629,1,1683807293.3822649
-0.34519625,-1.2706989,1.1841345,-12.123909,7.5562477,9.145203,0.74264115,9.677163,1.4040532,1,1683807293.3978906
-0.34519625,-1.2706989,1.1841345,-12.123909,7.5562477,9.145203,2.032706,8.163778,5.0389695,1,1683807293.4291403
2.1439414,0.6324453,2.7670903,-10.048695,9.058285,5.0354958,2.032706,8.163778,5.0389695,1,1683807293.4291403
2.1439414,0.6324453,2.7670903,-2.970028,2.816887,-0.52524567,2.011744,8.472036,4.5108614,1,1683807293.444765
2.1439414,0.6324453,2.7670903,-10.908394,9.37685,6.391468,2.011744,8.472036,4.5108614,1,1683807293.522895
2.678433,0.9375289,3.1102393,-10.908394,9.37685,6.391468,2.011744,8.472036,4.5108614,1,1683807293.5385163
3.9167688,1.7251017,4.408615,-10.908394,9.37685,6.391468,2.011744,8.472036,4.5108614,1,1683807293.5541403
3.3444545,1.3128892,3.70744,4.5475006,-4.97221,-4.7831535,1.8234098,7.745633,5.731556,1,1683807293.5697646
0.39892748,-0.61761343,2.3021626,11.199055,-10.127068,-10.420532,0.35229808,9.703307,1.3755308,1,1683807293.5853906
0.39892748,-0.61761343,2.3021626,11.199055,-10.127068,-10.420532,-0.55946964,9.780649,0.4430203,1,1683807293.6010153
-0.2951654,-0.7184031,1.9931816,9.870586,-6.5563583,-9.852695,-0.55946964,9.780649,0.4430203,1,1683807293.616642
-0.2951654,-0.7184031,1.9931816,9.870586,-6.5563583,-9.852695,-1.4673446,9.688364,-0.39101666,1,1683807293.6322653
-1.0068351,-0.6974141,1.425508,9.2783165,-3.5193062,-8.803406,-1.4673446,9.688364,-0.39101666,1,1683807293.6322653
-1.0068351,-0.6974141,1.425508,9.2783165,-3.5193062,-8.803406,-2.2740388,9.461794,-1.2139176,1,1683807293.6635144
-1.7700067,-0.7013268,0.08245462,9.173908,-1.3578415,-6.8422127,-2.6266963,9.307473,-1.6253586,1,1683807293.6791396
-3.2050688,-0.46849146,-2.6639197,3.4130287,0.94314575,-0.00333786,-3.9176686,8.115152,-3.8686662,1,1683807293.6947637
-3.2050688,-0.46849146,-2.6639197,3.4130287,0.94314575,-0.00333786,-3.3174305,8.368318,-3.8905377,1,1683807293.7103903
-2.3940654,-0.011374097,-3.8363616,3.4130287,0.94314575,-0.00333786,-3.3174305,8.368318,-3.8905377,1,1683807293.7103903
-1.7614684,-0.6676443,-2.2953837,3.4130287,0.94314575,-0.00333786,-3.3174305,8.368318,-3.8905377,1,1683807293.726014
-3.254857,-0.17123324,-3.7377708,-3.0564117,3.0438614,3.474846,-3.7345119,8.117362,-4.0413165,1,1683807293.7416391
-4.1510296,-0.6664159,-2.5975254,-1.7354202,3.062954,1.5605164,-3.8530958,8.828327,-1.8397498,1,1683807293.7572637
-3.5281994,-0.63785934,-2.170193,-5.031357,4.7600555,4.376068,-5.0628967,7.885015,-2.8920588,1,1683807293.7728913
-2.8797393,-0.8802186,-1.3892019,-5.031357,4.7600555,4.376068,-5.0628967,7.885015,-2.8920588,1,1683807293.7885172
1.2106589,-0.13438116,2.7888072,-12.7960205,10.388889,8.839455,1.5686549,8.508891,4.616112,1,1683807293.8041403
-3.922835,-0.42919776,-3.280153,4.243889,0.13458252,-1.9068527,-5.7354484,7.242132,-3.290372,1,1683807293.819764
-3.922835,-0.42919776,-3.280153,0.30454636,2.0435715,0.9479523,-5.710248,7.141736,-3.5438776,1,1683807293.8353891
-2.091666,-0.5492779,-1.8314419,-3.9607048,3.8385391,3.3811188,-4.93787,7.764056,-3.392235,1,1683807293.8510144
-1.804417,-0.8746074,-0.62653077,-3.9607048,3.8385391,3.3811188,-4.93787,7.764056,-3.392235,1,1683807293.8666408
-1.4422355,-1.1032873,0.1642268,-11.477299,6.500683,7.6399612,-3.6217191,8.810592,-2.3295958,1,1683807293.8822644
0.940744,-0.40284017,1.4745682,-10.963802,5.465145,8.662682,-3.6217191,8.810592,-2.3295958,1,1683807293.8978896
0.940744,-0.40284017,1.4745682,-10.963802,5.465145,8.662682,-2.8668277,9.254228,-1.5201825,1,1683807293.9135146
-1.1742618,-1.1152378,0.38630983,-10.051899,5.1647377,8.110867,-2.0729048,9.567244,-0.5842097,1,1683807293.9291387
-1.1742618,-1.1152378,0.38630983,-10.051899,5.1647377,8.110867,0.25681385,9.501296,2.4144979,1,1683807293.9447663
1.5013353,0.19314733,2.034189,-10.051899,5.1647377,8.110867,0.9636519,8.9451,3.902173,1,1683807293.96039
1.5013353,0.19314733,2.034189,-9.850559,6.1821175,6.8793297,0.9636519,8.9451,3.902173,1,1683807293.9916453
1.5013353,0.19314733,2.034189,-9.850559,6.1821175,6.8793297,1.0591433,8.717775,4.364517,1,1683807294.0072653
2.0070276,0.8865123,2.9025483,-9.850559,6.1821175,6.8793297,1.0591433,8.717775,4.364517,1,1683807294.0228922
2.945421,0.9719393,3.5531921,8.982182,-10.841904,-8.377361,0.71361184,8.187037,5.351035,1,1683807294.0385144
2.2525413,0.048180673,3.3999298,8.982182,-10.841904,-8.377361,0.71361184,8.187037,5.351035,1,1683807294.0541396
2.2525413,0.048180673,3.3999298,8.982182,-10.841904,-8.377361,0.3297603,9.061413,3.7352996,1,1683807294.1010168
1.7517474,-0.2908129,3.732827,8.982182,-10.841904,-8.377361,0.3297603,9.061413,3.7352996,1,1683807294.132267
1.7517474,-0.2908129,3.732827,11.44619,-13.651047,-10.137081,0.3297603,9.061413,3.7352996,1,1683807294.1478915
1.7517474,-0.2908129,3.732827,12.151413,-12.802963,-11.037235,0.3297603,9.061413,3.7352996,1,1683807294.163515
1.2470256,-0.49753332,3.3401325,12.151413,-12.802963,-11.037235,-0.5983203,9.540028,2.1909535,1,1683807294.1791413
1.2470256,-0.49753332,3.3401325,12.151413,-12.802963,-11.037235,0.5937907,8.594791,4.6848016,1,1683807294.1947649
1.2470256,-0.49753332,3.3401325,12.151413,-12.802963,-11.037235,-1.0371124,9.597757,1.7256404,1,1683807294.210389
0.50094557,-0.87118,2.5789173,11.253395,-9.928932,-11.290779,-1.0371124,9.597757,1.7256404,1,1683807294.2416391
-1.4759179,-0.93878764,1.191702,8.901272,-0.9956169,-8.380566,-3.383163,9.202746,-0.18456928,1,1683807294.2572644
-0.5785169,-1.8103164,0.9979178,-13.362789,9.235191,8.578434,-0.08417456,9.694115,1.4790066,1,1683807294.2737303
-0.5785169,-1.8103164,0.9979178,-13.362789,9.235191,8.578434,0.3127721,9.558149,2.171252,1,1683807294.291282
-0.17607102,-1.7375829,1.3928113,-13.998718,9.191532,9.34227,-0.9556564,9.759121,0.12909216,1,1683807294.3140607
0.9895464,-0.74671704,3.0316517,-12.242069,8.119812,8.392048,1.6444224,7.9749866,5.464966,1,1683807294.3296967
2.1041625,0.74838525,4.3585844,1.496563,0.39987564,-3.2000732,1.3167713,6.6655164,7.071591,1,1683807294.3453186
2.273773,-0.44090548,3.1073122,4.8117256,-3.864441,-5.600128,1.3021836,6.85438,6.8914566,1,1683807294.360943
2.273773,-0.44090548,3.1073122,9.553223,-12.241669,-9.516106,1.3021836,6.85438,6.8914566,1,1683807294.376568
1.9269692,-0.5807614,3.7264879,11.879711,-16.965008,-11.70948,1.4206926,7.490513,6.1680007,1,1683807294.3921936
1.9269692,-0.5807614,3.7264879,11.879711,-16.965008,-11.70948,1.4797966,8.245127,5.098869,1,1683807294.4078195
0.3035064,-1.0251852,2.6716692,10.713196,-9.648819,-12.211227,-0.3566856,9.659863,1.6523334,1,1683807294.4234436
-0.98755974,-1.0054095,0.9747298,9.683132,-5.7328415,-11.597595,0.9442425,9.206622,3.242976,1,1683807294.439068
-0.98755974,-1.0054095,0.9747298,9.520111,-3.7195778,-10.766735,-1.4171659,9.669767,0.81093997,1,1683807294.454693
-1.8014901,-0.8880288,-0.14768128,9.385929,-3.235855,-9.70356,-4.328949,8.678567,-1.4536412,1,1683807294.470318
-1.8014901,-0.8880288,-0.14768128,9.385929,-3.235855,-9.70356,-5.0640755,8.153669,-2.0107684,1,1683807294.4859445
-3.5286846,-0.6903319,-1.8670655,4.940567,-1.3758659,-4.1908836,-5.0640755,8.153669,-2.0107684,1,1683807294.4859445
-3.5286846,-0.6903319,-1.8670655,4.940567,-1.3758659,-4.1908836,-5.6323133,7.6521535,-2.4273407,1,1683807294.501288
1.9679766,0.21096675,3.4755905,-12.809906,9.025307,12.071438,1.540311,8.790058,4.0660443,1,1683807294.5239465
2.762389,0.9494793,3.6171448,-10.307579,12.217903,5.93338,1.6462467,7.711214,5.830733,1,1683807294.5395749
3.23634,1.2281902,3.854363,-10.307579,12.217903,5.93338,1.6462467,7.711214,5.830733,1,1683807294.555197
4.499335,1.8254061,4.462316,-5.7642174,8.441582,1.8619919,1.1998332,7.4238815,6.2941847,1,1683807294.5708213
4.499335,1.8254061,4.462316,6.6578293,-6.0875893,-5.693989,1.1998332,7.4238815,6.2941847,1,1683807294.586447
3.822561,1.3985438,3.0841243,6.6578293,-6.0875893,-5.693989,1.1998332,7.4238815,6.2941847,1,1683807294.6020725
2.562493,0.22731511,3.322328,11.713486,-14.28484,-9.554424,1.3189967,8.115853,5.344489,1,1683807294.6176965
0.36768663,-1.0493438,2.2040572,12.505093,-12.910576,-12.283592,1.1865118,8.838144,4.080414,1,1683807294.6333249
0.36768663,-1.0493438,2.2040572,13.337021,-14.660816,-12.193069,0.22398208,9.556043,2.1914117,1,1683807294.64895
4.093234,2.1099708,4.2416887,7.291622,-7.9219437,-8.02475,1.7757636,7.9239454,5.4980125,1,1683807294.6645718
2.0343559,-0.23664188,3.4711924,1.8226051,-2.344246,-4.573269,1.2937204,8.849549,4.022705,1,1683807294.6801963
-1.9840368,-0.71963155,-0.50814915,8.456001,0.036582947,-6.686802,-4.6815715,8.095667,-2.9518573,1,1683807294.6958213
-1.3707303,-0.80919874,0.9268979,-2.2616005,2.3343658,2.914486,-4.924201,7.4858723,-3.985518,1,1683807294.711446
-3.007372,-0.17391752,-3.3362956,7.0147133,0.37210464,-4.3847466,-4.924201,7.4858723,-3.985518,1,1683807294.7270713
-3.007372,-0.17391752,-3.3362956,-0.48906326,1.6376877,1.9312859,-4.788289,7.574325,-3.984002,1,1683807294.7426963
-3.007372,-0.17391752,-3.3362956,-0.48906326,1.6376877,1.9312859,-2.9411058,8.952096,-2.7166634,1,1683807294.7583215
-2.4311602,-1.1750352,-1.5761465,-12.919655,8.396854,8.527298,-2.9411058,8.952096,-2.7166634,1,1683807294.7583215
3.5724068,0.75813663,2.334617,-5.6054688,9.467373,2.40633,1.4546821,7.0927835,6.614129,1,1683807294.7739463
-0.45649558,-1.338064,1.996609,11.327896,-9.795818,-13.167858,1.5609996,8.918016,3.768639,1,1683807294.7895713
-2.2842371,-1.4144523,0.37728637,11.327896,-9.795818,-13.167858,-3.647237,9.014215,-1.2696327,1,1683807294.8051968
0.3857487,-1.3273268,2.8710647,9.8716545,-3.3201027,-9.984741,-2.5982478,9.444395,-0.4721314,1,1683807294.8208363
0.3857487,-1.3273268,2.8710647,9.8716545,-3.3201027,-9.984741,-3.647237,9.014215,-1.2696327,1,1683807294.8364484
-2.5736852,-1.3383065,-0.0019866757,9.8716545,-3.3201027,-9.984741,-5.1920524,7.91775,-2.5538614,1,1683807294.8520722
-2.5736852,-1.3383065,-0.0019866757,5.7118797,-0.49707413,-3.6485481,-5.1920524,7.91775,-2.5538614,1,1683807294.867703
-3.7683444,-0.5868579,-2.6761127,4.409046,0.27090073,-2.1945763,-5.6195264,7.2011423,-3.5685933,1,1683807294.8833227
-3.7683444,-0.5868579,-2.6761127,-4.0374756,4.693966,4.8192024,-4.568031,7.9698644,-3.4328914,1,1683807294.8989468
-3.7683444,-0.5868579,-2.6761127,11.146851,-10.422134,-13.240223,-2.1463654,9.561596,-0.37335327,1,1683807294.9145746
-0.9575321,-1.4486202,2.073968,11.146851,-10.422134,-13.240223,-2.1463654,9.561596,-0.37335327,1,1683807294.9145746
-1.9545096,-1.4066422,1.0967662,9.334793,-4.3852806,-11.610413,-2.1463654,9.561596,-0.37335327,1,1683807294.945822
-1.9545096,-1.4066422,1.0967662,9.334793,-4.3852806,-11.610413,-0.9101903,9.754795,0.43117455,1,1683807294.9614472
-1.9545096,-1.4066422,1.0967662,9.708767,-6.1738396,-12.306023,-0.9101903,9.754795,0.43117455,1,1683807294.9926963
-1.9545096,-1.4066422,1.0967662,9.708767,-6.1738396,-12.306023,-2.7323372,9.388898,-0.7438514,1,1683807295.0083222
-3.5389366,-1.1952963,-0.83763397,8.452797,-1.2065697,-8.85561,-2.7323372,9.388898,-0.7438514,1,1683807295.0239475
-2.7991955,-1.330739,0.122734085,7.4567795,0.048332214,-6.4534187,-4.881958,8.141655,-2.4597416,1,1683807295.039573
-4.323825,-1.0327529,-2.191182,7.4567795,0.048332214,-6.4534187,-5.269648,7.6929574,-3.0363781,1,1683807295.0551994
-4.323825,-1.0327529,-2.191182,1.4336777,2.4642754,1.5115166,-5.269648,7.6929574,-3.0363781,1,1683807295.0864463
-2.652758,-0.4106504,-2.6612353,1.4336777,2.4642754,1.5115166,-5.269648,7.6929574,-3.0363781,1,1683807295.1020772
-2.652758,-0.4106504,-2.6612353,5.7831764,1.2169838,-3.4217072,-5.269648,7.6929574,-3.0363781,1,1683807295.1176996
-4.1742177,-0.55513173,-3.2132885,5.7831764,1.2169838,-3.4217072,-5.2682395,7.43409,-3.626339,1,1683807295.1333222
-3.417643,-0.30667597,-3.2537954,-3.827591,3.9652443,5.009861,-4.6984196,7.762298,-3.7204812,1,1683807295.1489468
-2.1021607,-0.7137625,-1.8136225,-9.261494,6.4686394,7.790165,-4.066693,8.215633,-3.48364,1,1683807295.195822
-2.869002,-0.08092291,-2.903094,-2.9008675,3.007679,2.882576,-3.8543897,8.189734,-3.7738998,1,1683807295.2114503
-2.4880154,-0.3891761,-2.2441397,-2.9008675,3.007679,2.882576,-3.8543897,8.189734,-3.7738998,1,1683807295.227073
-2.4880154,-0.3891761,-2.2441397,-2.9008675,3.007679,2.882576,-2.777969,8.896684,-3.0499659,1,1683807295.2583227
-2.111927,-0.76916194,-1.3713825,-2.9008675,3.007679,2.882576,-2.777969,8.896684,-3.0499659,1,1683807295.2739527
-2.111927,-0.76916194,-1.3713825,-8.407135,5.645256,6.1986732,-2.777969,8.896684,-3.0499659,1,1683807295.289573
-2.111927,-0.76916194,-1.3713825,-8.407135,5.645256,6.1986732,-2.4051862,9.108844,-2.7229471,1,1683807295.3051999
-1.8473656,-0.8670398,-0.9730919,-8.407135,5.645256,6.1986732,-2.4051862,9.108844,-2.7229471,1,1683807295.3364553
-1.8473656,-0.8670398,-0.9730919,-9.368038,6.249275,6.848488,-2.4051862,9.108844,-2.7229471,1,1683807295.3520758
-0.9494793,-0.8465361,-0.08202998,-9.368038,6.249275,6.848488,-2.4051862,9.108844,-2.7229471,1,1683807295.3833246
-0.9494793,-0.8465361,-0.08202998,-10.889301,7.1056366,8.106594,-1.1434249,9.632484,-1.441597,1,1683807295.3989494
-0.9494793,-0.8465361,-0.08202998,-5.905876,4.2645836,4.681816,-1.1434249,9.632484,-1.441597,1,1683807295.4301975
-0.9494793,-0.8465361,-0.08202998,-5.905876,4.2645836,4.681816,-3.4073238,8.490553,-3.5314355,1,1683807295.4614477
-0.105779104,-0.7516003,0.46905258,-11.057529,7.148361,8.281231,-0.7085256,9.735965,-0.9377423,1,1683807295.5239518
-0.105779104,-0.7516003,0.46905258,-11.057529,7.148361,8.281231,0.51206,9.768102,0.70169574,1,1683807295.5395765
0.42651346,-0.67496926,0.6613658,-11.19812,6.8458176,7.921276,1.2070915,9.552508,1.8608872,1,1683807295.5551975
4.4344115,2.2942464,4.4422975,-6.3885307,0.7621002,1.2739944,2.1466396,8.664644,4.060326,1,1683807295.5708222
4.4344115,2.2942464,4.4422975,-6.3885307,0.7621002,1.2739944,2.342173,8.242427,4.7693825,1,1683807295.5864494
4.887874,2.2761843,5.2289,-0.15247345,-3.4979439,-3.7210464,2.342173,8.242427,4.7693825,1,1683807295.6020749
4.887874,2.2761843,5.2289,-0.15247345,-3.4979439,-3.7210464,2.3333006,8.167282,4.901182,1,1683807295.6176968
3.7395906,0.76277727,4.1596894,-0.15247345,-3.4979439,-3.7210464,2.3333006,8.167282,4.901182,1,1683807295.6489482
3.7395906,0.76277727,4.1596894,-0.15247345,-3.4979439,-3.7210464,2.1254787,8.480861,4.4415913,1,1683807295.6801968
3.7395906,0.76277727,4.1596894,5.7427216,-7.680149,-8.228226,2.1254787,8.480861,4.4415913,1,1683807295.6958237
3.7395906,0.76277727,4.1596894,7.681484,-9.26096,-9.753628,1.9358189,8.717065,4.0541034,1,1683807295.711448
1.3468447,-0.9675868,3.056053,10.323334,-11.381969,-11.936321,0.9904978,9.405237,2.594379,1,1683807295.7270734
1.3468447,-0.9675868,3.056053,10.46072,-11.061268,-12.023773,0.9904978,9.405237,2.594379,1,1683807295.7426984
1.3468447,-0.9675868,3.056053,10.46072,-11.061268,-12.023773,-1.9240572,9.616031,-0.018157165,1,1683807295.820822
1.3468447,-0.9675868,3.056053,9.297543,-4.753914,-10.255375,-4.881942,7.990972,-2.9122832,1,1683807295.836447
-0.92287904,-0.7674634,1.5704746,9.297543,-4.753914,-10.255375,-4.881942,7.990972,-2.9122832,1,1683807295.836447
-1.6079485,-0.73793626,0.06293667,9.297543,-4.753914,-10.255375,-4.881942,7.990972,-2.9122832,1,1683807295.8520772
-1.9171723,-0.6437284,-0.76295924,9.297543,-4.753914,-10.255375,-4.881942,7.990972,-2.9122832,1,1683807295.883322
-1.9171723,-0.6437284,-0.76295924,9.297543,-4.753914,-10.255375,-4.3613224,8.482014,-2.2813842,1,1683807295.8989499
-2.8179855,-0.40284017,-2.3712869,5.524292,0.30080795,-3.5868645,-4.3613224,8.482014,-2.2813842,1,1683807295.9145722
-3.3068292,-0.1875816,-3.235248,0.028705597,1.6366196,0.82551956,-5.369089,7.17382,-3.9849174,1,1683807295.9301991
-3.3068292,-0.1875816,-3.235248,0.028705597,1.6366196,0.82551956,-5.1314564,7.3437743,-3.9884257,1,1683807295.9458246
-3.2655942,-0.34524176,-2.9099185,-6.559963,4.5170593,5.265541,-5.1314564,7.3437743,-3.9884257,1,1683807295.9614494
-3.0178664,-0.61906934,-2.2172968,-6.559963,4.5170593,5.265541,-5.1314564,7.3437743,-3.9884257,1,1683807295.9770744
-3.0178664,-0.61906934,-2.2172968,-6.559963,4.5170593,5.265541,-4.668204,7.7441626,-3.7955508,1,1683807295.9927008
-3.0178664,-0.61906934,-2.2172968,-6.559963,4.5170593,5.265541,-3.9747424,8.305098,-3.3759687,1,1683807296.0239503
-1.162554,-2.2396204,0.9898649,-14.4503975,10.538025,11.402531,-0.8230617,9.760363,-0.47778213,1,1683807296.070822
-1.162554,-2.2396204,0.9898649,-14.4503975,10.538025,11.402531,0.2889037,9.754315,0.9696626,1,1683807296.0864515
-1.162554,-2.2396204,0.9898649,-14.4503975,10.538025,11.402531,1.2429072,9.397819,2.511289,1,1683807296.1020741
-1.162554,-2.2396204,0.9898649,-14.537716,10.4325485,11.696529,1.2429072,9.397819,2.511289,1,1683807296.1333241
0.18733896,-1.9911646,2.0554206,-14.537716,10.4325485,11.696529,1.2429072,9.397819,2.511289,1,1683807296.1489472
0.45555532,-1.6836544,2.4093068,-14.537716,10.4325485,11.696529,1.2429072,9.397819,2.511289,1,1683807296.1645749
0.45555532,-1.6836544,2.4093068,-12.116432,9.729462,9.525452,1.2429072,9.397819,2.511289,1,1683807296.195824
-0.41914305,-2.275972,1.5182447,-14.244785,10.3302765,11.416416,2.4228928,7.0657043,6.3541965,1,1683807296.2739475
3.9196959,1.7477893,4.701976,-14.244785,10.3302765,11.416416,2.4228928,7.0657043,6.3541965,1,1683807296.2895749
4.3721876,2.0372524,3.442393,8.109798,-7.871876,-6.5098953,2.1910357,6.752841,6.76527,1,1683807296.3051994
4.3721876,2.0372524,3.442393,12.762775,-19.367199,-12.412567,2.4289606,7.9000206,5.2782774,1,1683807296.3208227
2.1593192,-0.5238909,3.539528,12.762775,-19.367199,-12.412567,2.4289606,7.9000206,5.2782774,1,1683807296.336449
1.6189737,-0.6507955,3.943445,12.762775,-19.367199,-12.412567,2.4289606,7.9000206,5.2782774,1,1683807296.352074
1.6189737,-0.6507955,3.943445,4.5123863,-1.5037727,-3.4323883,-5.251327,7.5798264,-3.3376882,1,1683807296.3676975
-2.3818572,-0.8204212,-0.81811607,4.5123863,-1.5037727,-3.4323883,-5.251327,7.5798264,-3.3376882,1,1683807296.3676975
-3.553814,-0.4472598,-2.7839847,2.089901,-1.117115,-0.9758568,-5.4680686,7.339188,-3.5223467,1,1683807296.3833234
-3.430822,-0.4416486,-2.7051544,2.089901,-1.117115,-0.9758568,-5.4680686,7.339188,-3.5223467,1,1683807296.3989472
-3.430822,-0.4416486,-2.7051544,2.089901,-1.117115,-0.9758568,0.2445711,9.767734,0.83783394,1,1683807296.4145722
1.4517897,-0.85703063,3.9373484,10.66206,-12.225647,-13.272266,0.2445711,9.767734,0.83783394,1,1683807296.4145722
1.4517897,-0.85703063,3.9373484,8.019276,-3.3711052,-11.793594,-0.9765317,9.757896,0.014996549,1,1683807296.4301965
-1.0105051,-1.2440987,1.4826211,8.019276,-3.3711052,-11.793594,-2.1783612,9.538248,-0.66855323,1,1683807296.4458218
-1.0105051,-1.2440987,1.4826211,8.019276,-3.3711052,-11.793594,-2.735721,9.363617,-1.0044426,1,1683807296.4614463
-1.4837282,-1.3243998,0.9644779,8.019276,-3.3711052,-11.793594,-2.735721,9.363617,-1.0044426,1,1683807296.4614463
-2.5885775,-1.0263985,-0.6333552,8.019276,-3.3711052,-11.793594,-4.120693,8.674471,-1.985907,1,1683807296.4770734
-2.5885775,-1.0263985,-0.6333552,6.9635773,-0.31282425,-7.6764107,-4.120693,8.674471,-1.985907,1,1683807296.4926977
-2.5885775,-1.0263985,-0.6333552,7.316189,-0.47050476,-8.577633,-5.275528,7.6836553,-3.049694,1,1683807296.508325
-3.2943933,-0.76867664,-2.3112469,4.0127754,0.15808105,-2.8240967,-5.574964,7.30328,-3.4281602,1,1683807296.5239475
-3.2016416,-0.7393921,-2.1052694,-2.3127365,0.5618286,3.518505,-5.52955,7.226831,-3.656143,1,1683807296.5551977
-3.146242,-1.0117638,-1.6357013,-4.7426987,2.285366,5.6425858,-5.52955,7.226831,-3.656143,1,1683807296.5864475
-3.146242,-1.0117638,-1.6357013,-4.7426987,2.285366,5.6425858,-5.1460323,7.5896726,-3.4764378,1,1683807296.6020732
-1.5025182,-1.7205065,0.041705023,-10.337486,7.128067,11.148987,-5.1460323,7.5896726,-3.4764378,1,1683807296.6020732
-1.5025182,-1.7205065,0.041705023,-7.129936,4.4329453,7.7742767,-5.1460323,7.5896726,-3.4764378,1,1683807296.6176987
-1.5025182,-1.7205065,0.041705023,-7.129936,4.4329453,7.7742767,-4.102479,8.401607,-2.958555,1,1683807296.6333234
-1.5025182,-1.7205065,0.041705023,-11.131096,7.6404953,12.094936,1.6805639,9.478934,1.8697321,1,1683807296.6489477
0.022839187,-2.0094693,1.06137,-11.131096,7.6404953,12.094936,1.6805639,9.478934,1.8697321,1,1683807296.6489477
0.022839187,-2.0094693,1.06137,-11.131096,7.6404953,12.094936,-1.3333595,9.6507225,-1.120759,1,1683807296.6645725
0.84726405,0.21682061,2.2516465,6.688671,-8.705006,-5.0718117,2.3743968,8.421786,4.4278827,1,1683807296.6801965
1.7053714,0.36253038,1.9363263,4.6071815,-5.120411,-3.5558891,2.1486123,6.959546,6.5664735,1,1683807296.6958225
1.7053714,0.36253038,1.9363263,7.401371,-8.177624,-6.076374,1.7616832,9.148331,3.0618486,1,1683807296.7114472
-0.73984706,-0.10875153,-0.19185826,6.770649,-7.017517,-8.138638,-2.0385294,9.565438,-0.71914,1,1683807296.727072
-2.421636,-0.30205053,-0.35488698,5.380497,-6.6522217,-6.344738,-2.0385294,9.565438,-0.71914,1,1683807296.7426965
-3.2956066,-0.4758164,-0.7253641,3.4353256,-4.3767357,-4.3154526,-2.0385294,9.565438,-0.71914,1,1683807296.7583268
0.9800377,-1.29463,1.9926963,-11.241779,10.002098,10.796375,0.99323726,9.146613,3.3946047,1,1683807296.7739482
0.9800377,-1.29463,1.9926963,-11.241779,10.002098,10.796375,1.5785335,7.945059,5.5276256,1,1683807296.789572
3.4010825,1.1993909,4.5291805,-8.290043,10.425072,6.453285,1.5785335,7.945059,5.5276256,1,1683807296.789572
4.13594,2.015035,2.3719692,5.0055885,-3.1293106,-2.582302,1.5293342,7.78503,5.7640977,1,1683807296.805197
4.13594,2.015035,2.3719692,5.0055885,-3.1293106,-2.582302,-1.9748925,9.605737,0.0040028044,1,1683807296.8208218
-2.3838136,-1.2165279,1.0838301,5.96756,-3.4735107,-7.6976395,-1.9748925,9.605737,0.0040028044,1,1683807296.8208218
-4.530045,-0.8384833,-0.95991313,5.96756,-3.4735107,-7.6976395,-1.9748925,9.605737,0.0040028044,1,1683807296.8364465
4.8925147,1.3443727,4.410329,-9.892216,12.6428795,12.364502,1.9342057,8.73043,4.0260205,1,1683807296.8520715
4.8925147,1.3443727,4.410329,-7.59964,12.131653,9.305019,0.035645634,9.672373,1.6168845,1,1683807296.8676975
2.31795,-0.16098139,2.868623,10.75592,-18.100548,-13.233814,1.2979838,9.590418,1.5841372,1,1683807296.8833215
0.31375825,-1.374916,2.882287,8.54866,-12.530327,-13.653584,0.1736988,9.786766,0.5995153,1,1683807296.9145718
-1.5503501,-1.708541,2.492277,6.962509,-5.511341,-11.58905,-1.1183625,9.742324,-0.08231715,1,1683807296.9302108
-2.3572133,-1.6785285,2.080565,6.806965,-2.948265,-9.113426,-3.3851964,9.136473,-1.1116229,1,1683807296.9461193
-1.7033848,-1.5347751,0.8771097,-7.986431,5.9871864,8.316479,-1.5129176,9.650995,-0.8600885,1,1683807296.961895
-0.3088295,-1.6565537,2.0034335,-7.986431,5.9871864,8.316479,0.20701681,9.7877,0.5731284,1,1683807296.977085
-0.3088295,-1.6565537,2.0034335,-7.986431,5.9871864,8.316479,3.0376532,8.501153,3.8305917,1,1683807296.99271
3.4003544,1.0253824,2.0625029,-6.740074,10.703049,6.195469,3.0376532,8.501153,3.8305917,1,1683807296.99271
3.4003544,1.0253824,2.0625029,4.8031807,-4.4875526,-6.3511467,3.0408564,7.58481,5.421646,1,1683807297.0239604
3.4003544,1.0253824,2.0625029,-8.458271,10.858593,10.10931,3.0408564,7.58481,5.421646,1,1683807297.0395856
3.4003544,1.0253824,2.0625029,-3.1628227,7.608452,1.0897446,2.6714756,7.8791747,5.1915517,1,1683807297.0552104
1.6360652,-0.14096297,3.3218277,9.689541,-13.877888,-10.244694,1.5888045,9.422095,2.206859,1,1683807297.08646
1.1894273,-0.20564367,3.2788792,9.973927,-12.422714,-10.631485,2.1772969,8.977377,3.2918775,1,1683807297.1020854
1.1894273,-0.20564367,3.2788792,9.973927,-12.422714,-10.631485,1.1970094,9.583311,1.7022698,1,1683807297.11771
-0.18241018,-0.6720271,1.7523085,8.747864,-5.613613,-10.041218,-0.17816673,9.796985,0.39716753,1,1683807297.1333356
-1.5762223,-0.6161424,0.1503049,8.347321,-3.397808,-9.166698,-1.9778106,9.540091,-1.1159416,1,1683807297.1489606
-1.9672031,-0.5314585,-0.43957093,8.11821,-2.5115395,-8.011932,-1.9778106,9.540091,-1.1159416,1,1683807297.1645892
-1.9672031,-0.5314585,-0.43957093,7.240486,-1.82127,-6.0603523,-3.0416968,9.079668,-2.1161516,1,1683807297.1802104
-3.0256765,-0.38673446,-2.44305,7.240486,-1.82127,-6.0603523,-3.0416968,9.079668,-2.1161516,1,1683807297.1958354
-3.0256765,-0.38673446,-2.44305,-1.070652,1.6334152,1.0544968,-3.0416968,9.079668,-2.1161516,1,1683807297.21146
-2.8563087,-0.3166852,-2.6617208,-2.6963234,2.3056602,2.0601273,-3.0416968,9.079668,-2.1161516,1,1683807297.2427104
-1.3697445,-1.1472065,0.5564208,-9.552288,6.2950706,8.975773,-3.7479792,8.5878,-2.8935668,1,1683807297.2583356
-1.3697445,-1.1472065,0.5564208,-9.552288,6.2950706,8.975773,-3.4642015,8.67011,-2.9998143,1,1683807297.27396
-2.4018757,-0.8599576,-0.69656485,-5.737648,3.6979485,3.9498901,-3.4642015,8.67011,-2.9998143,1,1683807297.2895854
-2.4018757,-0.8599576,-0.69656485,-5.737648,3.6979485,3.9498901,-2.6110325,9.19098,-2.2087972,1,1683807297.30521
-2.4018757,-0.8599576,-0.69656485,-8.766155,5.6142807,6.3616943,-2.6110325,9.19098,-2.2087972,1,1683807297.30521
-2.4018757,-0.8599576,-0.69656485,7.932892,-0.52698135,-8.710747,-3.5053828,9.077415,-1.2178725,1,1683807297.320835
-1.8759222,-1.0110359,0.7816886,7.932892,-0.52698135,-8.710747,-3.5053828,9.077415,-1.2178725,1,1683807297.320835
-2.1526918,-0.868981,-0.26848936,7.932892,-0.52698135,-8.710747,-3.5053828,9.077415,-1.2178725,1,1683807297.3364604
-2.1526918,-0.868981,-0.26848936,7.2670555,1.0240555,-6.148739,-4.486204,8.422638,-2.2590978,1,1683807297.3520873
-2.9800436,-0.33010662,-3.4461238,5.7917213,1.385212,-3.6880684,-5.162495,7.6034408,-3.4215078,1,1683807297.3677104
-2.5644038,-0.59051275,-2.0408316,5.7917213,1.385212,-3.6880684,-3.883402,8.867075,-1.9183582,1,1683807297.3833354
-2.5644038,-0.59051275,-2.0408316,5.7917213,1.385212,-3.6880684,-5.2830167,7.271663,-3.9221232,1,1683807297.3989606
-0.9541199,-0.6978994,0.0024113085,7.6506424,-1.0520935,-9.272175,-2.9959152,9.178983,-1.7149812,1,1683807297.4145868
-3.2392366,-1.1638128,-1.5871415,-6.698551,3.1120872,5.907879,-5.220123,7.516145,-3.5253751,1,1683807297.5395854
-3.2392366,-1.1638128,-1.5871415,-6.698551,3.1120872,5.907879,-2.6815562,9.262983,-1.7823588,1,1683807297.5552099
-1.1400939,-1.7771193,0.13250065,-6.698551,3.1120872,5.907879,-2.6815562,9.262983,-1.7823588,1,1683807297.5552099
2.5363781,0.7783977,4.0603557,-11.2813,9.404488,7.4780083,2.109823,8.237312,4.8852544,1,1683807297.570835
3.3639877,1.3272812,4.0530305,11.183033,-10.461521,-7.917137,1.9322853,8.662843,4.1703496,1,1683807297.6333356
3.425241,1.3612064,4.855496,4.8532486,-3.3402634,-3.1341171,1.9941895,7.766699,5.645529,1,1683807297.6489604
3.425241,1.3612064,4.855496,10.266857,-9.907703,-6.8496895,1.9940395,7.910518,5.442233,1,1683807297.664588
3.425241,1.3612064,4.855496,9.033318,-5.9054756,-8.388977,0.07973933,9.791717,0.53507656,1,1683807297.68021
0.5253468,0.11871524,0.98449636,9.033318,-5.9054756,-8.388977,0.07973933,9.791717,0.53507656,1,1683807297.68021
-0.04549639,0.0022899848,0.25159502,9.033318,-5.9054756,-8.388977,0.07973933,9.791717,0.53507656,1,1683807297.6958349
-0.04549639,0.0022899848,0.25159502,8.182163,-3.9027596,-8.439045,-1.1509727,9.717391,-0.64648783,1,1683807297.7114604
-0.50554067,-0.17635916,-0.21870114,8.182163,-3.9027596,-8.439045,-1.1509727,9.717391,-0.64648783,1,1683807297.7270854
-1.7495029,-0.5570881,-0.91305184,7.4163246,-3.4350586,-7.974682,-3.619407,8.759166,-2.5193834,1,1683807297.743053
-2.8758266,-0.45971066,-1.8853703,1.3591766,-3.6173058,-1.0556984,-4.887906,7.881039,-3.1887267,1,1683807297.8364606
-2.7262194,-0.54952055,-0.99480885,-1.9665337,-1.233139,1.5498352,-5.3854103,7.756326,-2.6471024,1,1683807297.8680575
-1.0656619,-0.38721976,-0.583567,3.3405304,-4.2510986,-2.8433228,-4.3595934,8.560502,-1.9703133,1,1683807297.8835788
-2.52097,-0.63079226,-0.5660054,3.3405304,-4.2510986,-2.8433228,-4.3595934,8.560502,-1.9703133,1,1683807297.8992445
-2.9063396,-0.41381997,-1.8036133,3.3405304,-4.2510986,-2.8433228,-5.611884,7.3540206,-3.2550755,1,1683807297.914585
-0.76766056,-0.6481112,0.56203204,-7.7350235,6.484661,8.528366,-5.7054863,7.3845696,-3.0142908,1,1683807297.9302104
1.0332382,0.16264959,1.8753004,-7.7350235,6.484661,8.528366,-1.1034992,9.739532,0.30689195,1,1683807297.96146
1.0332382,0.16264959,1.8753004,-6.679325,3.980198,8.168411,-3.625742,8.981648,-1.5344012,1,1683807297.9770854
0.76867664,-0.1255852,1.4430847,-6.679325,3.980198,8.168411,-3.625742,8.981648,-1.5344012,1,1683807297.9927099
0.5295021,0.30957258,1.6546733,-6.330986,9.675121,5.287838,0.61701316,9.201358,3.3353715,1,1683807298.008335
0.57099485,0.6085293,1.0828444,-6.330986,9.675121,5.287838,0.61701316,9.201358,3.3353715,1,1683807298.0239604
0.5805036,0.95339197,0.7636265,-3.0968666,3.675518,2.085762,0.72874343,7.6152687,6.1357145,1,1683807298.039585
0.10338296,0.8530724,0.47197953,-0.14820099,1.3522339,0.16929626,0.0744872,7.1832485,6.6757603,1,1683807298.0552104
-0.027434321,0.757894,0.6330519,-0.40174484,0.95703125,0.11922836,-0.07399122,7.1241145,6.738836,1,1683807298.070835
-0.027434321,0.757894,0.6330519,-0.37290573,0.89200974,0.13418198,-0.07399122,7.1241145,6.738836,1,1683807298.11771
0.043828186,0.77694184,0.62768334,-0.2280426,0.73753357,0.23324966,-0.07399122,7.1241145,6.738836,1,1683807298.1333354
-0.030361256,0.7473995,0.6496581,-0.11829376,0.49467087,0.11922836,-0.20927678,7.0697527,6.793025,1,1683807298.1489606
0.108266234,0.7962171,0.6381778,-0.1640892,0.6245804,0.2150917,-0.20927678,7.0697527,6.793025,1,1683807298.1645856
-0.038656764,0.7110327,0.6672197,0.07343292,0.02483368,0.20868301,-0.22698113,7.107271,6.7531896,1,1683807298.1802104
-0.14360176,0.69248533,0.69284934,0.17677307,-0.1530075,0.013751984,-0.22698113,7.107271,6.7531896,1,1683807298.195835
-0.14360176,0.69248533,0.69284934,-0.18331528,0.35835266,0.3077507,-0.21643285,7.0966554,6.76469,1,1683807298.21146
0.044313483,0.740575,0.70261586,-0.18331528,0.35835266,0.3077507,-0.21643285,7.0966554,6.76469,1,1683807298.2270856
0.07799597,0.75276804,0.72092056,-0.24620056,0.47758102,0.23752213,-0.22610392,7.0814238,6.780318,1,1683807298.2427104
-0.27857438,0.68053496,0.30162588,0.020160675,0.29333115,-0.0639534,-0.3441614,7.0812573,6.775525,1,1683807298.258336
-0.27857438,0.68053496,0.30162588,0.020160675,0.29333115,-0.0639534,-0.31530568,7.056621,6.8025775,1,1683807298.27396
-0.32250872,0.6287904,0.23280501,0.19266129,0.08771896,0.026569366,-0.35002446,7.090077,6.765994,1,1683807298.3208356
-0.32250872,0.6287904,0.23280501,-0.30694962,-0.36502838,0.43352127,-0.35002446,7.090077,6.765994,1,1683807298.3364604
