acc_x,acc_y,acc_z,gyr_x,gyr_y,gyr_z,grav_x,grav_y,grav_z,label,timestamp
0.47179583,0.75254387,0.2689791,-3.8511999,6.3152776,1.8897116,4.663747,7.312946,4.583274,1,1683969672.3992488
0.47179583,0.75254387,0.2689791,-2.580142,3.694971,1.450805,4.663747,7.312946,4.583274,1,1683969672.422555
0.68022263,0.80687636,-0.06841862,-2.580142,3.694971,1.450805,4.663747,7.312946,4.583274,1,1683969672.4278216
0.68022263,0.80687636,-0.06841862,-2.580142,3.694971,1.450805,4.4649334,6.9717207,5.2626586,1,1683969672.4330418
0.72424954,0.7369942,0.5557031,4.7789516,-9.7480345,-5.286733,4.380412,8.668562,1.3799002,1,1683969672.4389944
0.4751497,0.67808837,0.7408359,4.7789516,-9.7480345,-5.286733,4.380412,8.668562,1.3799002,1,1683969672.5400221
0.4751497,0.67808837,0.7408359,4.895627,-9.188482,-4.9521317,4.380412,8.668562,1.3799002,1,1683969672.5451515
0.4751497,0.67808837,0.7408359,4.895627,-9.188482,-4.9521317,4.055513,8.909729,0.6369308,1,1683969672.5502787
0.045002624,0.5618011,0.8727948,4.895627,-9.188482,-4.9521317,4.055513,8.909729,0.6369308,1,1683969672.5604997
0.045002624,0.5618011,0.8727948,4.689154,-7.8664174,-4.2814016,4.055513,8.909729,0.6369308,1,1683969672.5656097
0.045002624,0.5618011,0.8727948,4.689154,-7.8664174,-4.2814016,3.6797688,9.093501,-0.060405247,1,1683969672.591187
0.045002624,0.5618011,0.8727948,3.4235942,-4.970305,-2.7030787,3.6797688,9.093501,-0.060405247,1,1683969672.5963185
0.045002624,0.5618011,0.8727948,3.4235942,-4.970305,-2.7030787,3.1332915,9.251412,-0.91100854,1,1683969672.611721
-0.59107107,0.30928633,0.6126577,3.4235942,-4.970305,-2.7030787,3.1332915,9.251412,-0.91100854,1,1683969672.6219325
-0.59107107,0.30928633,0.6126577,3.4235942,-4.970305,-2.7030787,2.8977563,9.291296,-1.2292023,1,1683969672.6372201
-1.0024366,0.15988737,0.55253226,3.4235942,-4.970305,-2.7030787,2.8977563,9.291296,-1.2292023,1,1683969672.647461
-1.0024366,0.15988737,0.55253226,0.6377433,-0.5448918,-0.43569964,2.8977563,9.291296,-1.2292023,1,1683969672.6525893
-1.0024366,0.15988737,0.55253226,0.6377433,-0.5448918,-0.43569964,2.8512487,9.301377,-1.2613118,1,1683969672.6731098
-0.8594404,0.16494864,0.28026026,0.6377433,-0.5448918,-0.43569964,2.8512487,9.301377,-1.2613118,1,1683969672.6782396
-0.8594404,0.16494864,0.28026026,-1.4268285,3.370907,1.349096,2.8512487,9.301377,-1.2613118,1,1683969672.6935961
-0.8594404,0.16494864,0.28026026,-3.6354117,6.65782,3.037222,2.8512487,9.301377,-1.2613118,1,1683969672.7191894
-0.8594404,0.16494864,0.28026026,-3.6354117,6.65782,3.037222,2.9888463,9.286983,-1.0270611,1,1683969672.724289
-0.4564291,0.31325,-0.16037522,-3.6354117,6.65782,3.037222,2.9888463,9.286983,-1.0270611,1,1683969672.7293842
-0.4564291,0.31325,-0.16037522,-4.842787,7.6176424,3.7821722,2.9888463,9.286983,-1.0270611,1,1683969672.7446778
-0.4564291,0.31325,-0.16037522,-4.842787,7.6176424,3.7821722,3.4056218,9.195566,-0.28184927,1,1683969672.7498121
-0.083602436,0.5043587,-0.17135146,-4.842787,7.6176424,3.7821722,3.4056218,9.195566,-0.28184927,1,1683969672.754945
-0.083602436,0.5043587,-0.17135146,-4.842787,7.6176424,3.7821722,3.7193568,9.069383,0.38577533,1,1683969672.7856688
0.1583629,0.62381685,0.11592139,-4.842787,7.6176424,3.7821722,3.7193568,9.069383,0.38577533,1,1683969672.7908008
0.1583629,0.62381685,0.11592139,-5.405241,7.6498656,4.0668354,3.7193568,9.069383,0.38577533,1,1683969672.806187
0.1583629,0.62381685,0.11592139,-5.405241,7.6498656,4.0668354,4.0001435,8.889659,1.0995216,1,1683969672.816365
0.31392074,0.69973594,0.46527106,-5.405241,7.6498656,4.0668354,4.0001435,8.889659,1.0995216,1,1683969672.8316362
0.31392074,0.69973594,0.46527106,-5.292231,7.163464,4.086841,4.0001435,8.889659,1.0995216,1,1683969672.8418903
0.31392074,0.69973594,0.46527106,-5.292231,7.163464,4.086841,4.2316937,8.666511,1.7945672,1,1683969672.8572798
0.40416992,0.6976017,0.59412,-5.292231,7.163464,4.086841,4.2316937,8.666511,1.7945672,1,1683969672.8624132
0.40416992,0.6976017,0.59412,-4.7245846,6.618725,3.9840631,4.2316937,8.666511,1.7945672,1,1683969672.872669
0.44417223,0.6483915,0.6036937,-4.7245846,6.618725,3.9840631,4.2316937,8.666511,1.7945672,1,1683969672.8880587
0.44417223,0.6483915,0.6036937,-4.7245846,6.618725,3.9840631,4.414982,8.4183235,2.424026,1,1683969672.8931944
0.44417223,0.6483915,0.6036937,-3.9774964,6.0054164,3.8631117,4.414982,8.4183235,2.424026,1,1683969672.9034176
0.44417223,0.6483915,0.6036937,-3.248734,5.240613,3.6879463,4.414982,8.4183235,2.424026,1,1683969672.9290562
0.44417223,0.6483915,0.6036937,-3.248734,5.240613,3.6879463,4.561311,8.162282,2.9677784,1,1683969672.9341848
0.6061939,0.6895524,0.26946694,-3.248734,5.240613,3.6879463,4.561311,8.162282,2.9677784,1,1683969672.949546
0.6061939,0.6895524,0.26946694,-2.5631905,3.1328225,2.983466,4.561311,8.162282,2.9677784,1,1683969672.9598055
1.0298772,0.9181023,-0.32093337,-2.5631905,3.1328225,2.983466,4.561311,8.162282,2.9677784,1,1683969672.9649374
1.0298772,0.9181023,-0.32093337,-2.5631905,3.1328225,2.983466,4.744393,7.8011484,3.5873296,1,1683969672.9751718
1.0298772,0.9181023,-0.32093337,-2.5631905,3.1328225,2.983466,4.8619733,7.608169,3.835766,1,1683969673.0007844
1.0298772,0.9181023,-0.32093337,-1.6630806,-0.28878653,1.5068518,4.8619733,7.608169,3.835766,1,1683969673.0059159
1.5577738,1.2373892,-0.44167212,-1.6630806,-0.28878653,1.5068518,4.8619733,7.608169,3.835766,1,1683969673.0110486
1.9570043,1.449109,-0.06079623,-1.6630806,-0.28878653,1.5068518,4.8619733,7.608169,3.835766,1,1683969673.036646
1.9570043,1.449109,-0.06079623,-0.20219639,-4.0515637,-0.44318274,4.8619733,7.608169,3.835766,1,1683969673.046912
1.9570043,1.449109,-0.06079623,-0.20219639,-4.0515637,-0.44318274,4.985895,7.4929223,3.9029565,1,1683969673.0571346
2.183786,1.5494196,0.4051456,-0.20219639,-4.0515637,-0.44318274,4.985895,7.4929223,3.9029565,1,1683969673.0622528
2.183786,1.5494196,0.4051456,1.2125676,-6.527248,-2.1397083,4.985895,7.4929223,3.9029565,1,1683969673.0673542
2.183786,1.5494196,0.4051456,1.2125676,-6.527248,-2.1397083,5.155617,7.528445,3.6025333,1,1683969673.0929203
2.183786,1.5494196,0.4051456,2.5810583,-7.9824815,-3.694971,5.155617,7.528445,3.6025333,1,1683969673.1031983
2.119819,1.521857,0.9224928,2.5810583,-7.9824815,-3.694971,5.155617,7.528445,3.6025333,1,1683969673.1134183
2.119819,1.521857,0.9224928,2.5810583,-7.9824815,-3.694971,5.195191,7.7021914,3.1499777,1,1683969673.1236825
1.9511505,1.3655065,1.0284137,2.5810583,-7.9824815,-3.694971,5.195191,7.7021914,3.1499777,1,1683969673.139065
1.9511505,1.3655065,1.0284137,3.6357172,-8.340143,-4.9328895,5.195191,7.7021914,3.1499777,1,1683969673.1493003
1.9511505,1.3655065,1.0284137,3.6357172,-8.340143,-4.9328895,5.119025,7.967127,2.5605829,1,1683969673.159513
1.9511505,1.3655065,1.0284137,4.371046,-8.467967,-6.094297,5.119025,7.967127,2.5605829,1,1683969673.1749015
1.9511505,1.3655065,1.0284137,4.371046,-8.467967,-6.094297,4.907019,8.27986,1.8976865,1,1683969673.1799908
1.6814395,1.2193395,0.84565914,4.371046,-8.467967,-6.094297,4.907019,8.27986,1.8976865,1,1683969673.1902502
1.3359926,1.0430486,0.7923023,4.371046,-8.467967,-6.094297,4.907019,8.27986,1.8976865,1,1683969673.2210004
1.3359926,1.0430486,0.7923023,4.371046,-8.467967,-6.094297,4.563337,8.60028,1.2030249,1,1683969673.231188
1.3359926,1.0430486,0.7923023,4.679228,-8.418639,-6.674772,4.563337,8.60028,1.2030249,1,1683969673.236316
1.3359926,1.0430486,0.7923023,4.7940702,-7.911621,-6.8642926,4.563337,8.60028,1.2030249,1,1683969673.2516687
1.3359926,1.0430486,0.7923023,4.7940702,-7.911621,-6.8642926,3.843109,9.024185,0.17522235,1,1683969673.2619255
0.80876666,0.7490681,0.7212616,4.7940702,-7.911621,-6.8642926,3.843109,9.024185,0.17522235,1,1683969673.267056
0.80876666,0.7490681,0.7212616,4.6691484,-7.2349353,-6.5840583,3.843109,9.024185,0.17522235,1,1683969673.287572
0.80876666,0.7490681,0.7212616,4.6691484,-7.2349353,-6.5840583,3.5647511,9.1382475,-0.14528929,1,1683969673.2978284
0.3100181,0.556313,0.77406955,4.6691484,-7.2349353,-6.5840583,3.5647511,9.1382475,-0.14528929,1,1683969673.3029656
-0.7943756,0.17324181,0.8335852,4.6691484,-7.2349353,-6.5840583,3.5647511,9.1382475,-0.14528929,1,1683969673.3131838
-0.7943756,0.17324181,0.8335852,4.0065126,-4.8892126,-5.0546045,3.5647511,9.1382475,-0.14528929,1,1683969673.3285613
-0.7943756,0.17324181,0.8335852,4.0065126,-4.8892126,-5.0546045,2.7189307,9.375777,-0.96868485,1,1683969673.3336906
-1.5547248,-0.16141187,0.33178765,4.0065126,-4.8892126,-5.0546045,2.7189307,9.375777,-0.96868485,1,1683969673.3643985
-1.5547248,-0.16141187,0.33178765,4.0065126,-4.8892126,-5.0546045,2.2802498,9.444858,-1.3532288,1,1683969673.3695304
-1.5547248,-0.16141187,0.33178765,1.873371,-1.4530957,-2.4749205,2.2802498,9.444858,-1.3532288,1,1683969673.3797562
-1.5547248,-0.16141187,0.33178765,-0.29871312,1.9958495,-0.23839016,2.2802498,9.444858,-1.3532288,1,1683969673.3951457
-1.56314,0.030123709,0.3109328,-0.29871312,1.9958495,-0.23839016,2.2802498,9.444858,-1.3532288,1,1683969673.4002795
-1.56314,0.030123709,0.3109328,-0.29871312,1.9958495,-0.23839016,2.0471709,9.473931,-1.5132163,1,1683969673.4105484
-1.56314,0.030123709,0.3109328,-2.4959953,5.833763,2.2656991,2.0471709,9.473931,-1.5132163,1,1683969673.4310858
-1.56314,0.030123709,0.3109328,-2.4959953,5.833763,2.2656991,2.1289456,9.486857,-1.3050898,1,1683969673.4464483
-1.320382,0.08537084,-0.049515083,-2.4959953,5.833763,2.2656991,2.1289456,9.486857,-1.3050898,1,1683969673.4515834
-0.88834447,0.14635001,-0.3289826,-2.4959953,5.833763,2.2656991,2.1289456,9.486857,-1.3050898,1,1683969673.4618409
-0.88834447,0.14635001,-0.3289826,-2.4959953,5.833763,2.2656991,2.414106,9.463927,-0.9177556,1,1683969673.4669793
-0.88834447,0.14635001,-0.3289826,-4.004069,7.4157515,3.872122,2.414106,9.463927,-0.9177556,1,1683969673.4874735
-0.88834447,0.14635001,-0.3289826,-5.291162,7.961865,5.07965,2.414106,9.463927,-0.9177556,1,1683969673.508016
-0.4434405,0.2918463,-0.193182,-5.291162,7.961865,5.07965,2.414106,9.463927,-0.9177556,1,1683969673.518234
-0.4434405,0.2918463,-0.193182,-5.291162,7.961865,5.07965,2.8002152,9.394615,-0.36893594,1,1683969673.5233338
-0.0030489585,0.4358791,0.18330337,-5.291162,7.961865,5.07965,2.8002152,9.394615,-0.36893594,1,1683969673.538699
-0.0030489585,0.4358791,0.18330337,-5.291162,7.961865,5.07965,3.2172978,9.262604,0.29877928,1,1683969673.5438495
-0.0030489585,0.4358791,0.18330337,-5.7603064,7.9476624,5.5370355,3.2172978,9.262604,0.29877928,1,1683969673.5541217
-0.0030489585,0.4358791,0.18330337,-5.8137574,7.6729255,5.6831846,3.2172978,9.262604,0.29877928,1,1683969673.5797045
-0.0030489585,0.4358791,0.18330337,-5.8137574,7.6729255,5.6831846,3.6280448,9.055407,1.0358688,1,1683969673.584848
0.29330978,0.51576185,0.34264195,-5.8137574,7.6729255,5.6831846,3.6280448,9.055407,1.0358688,1,1683969673.5899842
0.55930096,0.61131614,0.3430078,-5.8137574,7.6729255,5.6831846,3.6280448,9.055407,1.0358688,1,1683969673.6156008
0.55930096,0.61131614,0.3430078,-5.8137574,7.6729255,5.6831846,3.9944046,8.782138,1.7762076,1,1683969673.625869
0.55930096,0.61131614,0.3430078,-5.6340103,7.218442,5.5961366,3.9944046,8.782138,1.7762076,1,1683969673.631004
1.2104365,0.90621144,0.20117027,-5.6340103,7.218442,5.5961366,3.9944046,8.782138,1.7762076,1,1683969673.6361423
1.2104365,0.90621144,0.20117027,-4.739398,5.2219815,4.714047,3.9944046,8.782138,1.7762076,1,1683969673.641279
1.2104365,0.90621144,0.20117027,-4.739398,5.2219815,4.714047,4.2973156,8.4686,2.4600787,1,1683969673.646413
1.2104365,0.90621144,0.20117027,-2.8506026,1.9214766,3.0230193,4.2973156,8.4686,2.4600787,1,1683969673.6823046
1.7780305,1.2773306,0.2833702,-2.8506026,1.9214766,3.0230193,4.2973156,8.4686,2.4600787,1,1683969673.697644
1.7780305,1.2773306,0.2833702,-2.8506026,1.9214766,3.0230193,4.6271296,8.038811,3.1942627,1,1683969673.702744
2.178054,1.6378394,0.25763696,-2.8506026,1.9214766,3.0230193,4.6271296,8.038811,3.1942627,1,1683969673.7180948
2.178054,1.6378394,0.25763696,-2.8506026,1.9214766,3.0230193,4.7855434,7.8670454,3.3829396,1,1683969673.7231922
0.0017683958,0.48234522,0.18080322,-2.8506026,1.9214766,3.0230193,4.7855434,7.8670454,3.3829396,1,1683969673.7334673
0.0017683958,0.48234522,0.18080322,-2.8506026,1.9214766,3.0230193,3.2052631,9.23772,-0.7918019,1,1683969673.738601
0.0017683958,0.48234522,0.18080322,3.455512,-6.532135,-4.99871,3.2052631,9.23772,-0.7918019,1,1683969673.7437375
-0.37538776,0.38782752,0.38996178,3.455512,-6.532135,-4.99871,3.2052631,9.23772,-0.7918019,1,1683969673.7591314
-0.37538776,0.38782752,0.38996178,2.8759537,-5.3859987,-4.29255,3.2052631,9.23772,-0.7918019,1,1683969673.764226
-0.37538776,0.38782752,0.38996178,2.8759537,-5.3859987,-4.29255,2.7060082,9.344815,-1.2602013,1,1683969673.7795491
-0.37538776,0.38782752,0.38996178,2.8759537,-5.3859987,-4.29255,2.1002905,9.428415,-1.7116824,1,1683969673.80522
-0.37538776,0.38782752,0.38996178,1.4344643,-2.0990858,-2.2840252,2.1002905,9.428415,-1.7116824,1,1683969673.8103628
-1.1732391,0.09866429,0.61082834,1.4344643,-2.0990858,-2.2840252,2.1002905,9.428415,-1.7116824,1,1683969673.8257678
-1.4933798,-0.037136313,0.50423676,1.4344643,-2.0990858,-2.2840252,2.1002905,9.428415,-1.7116824,1,1683969673.8462772
-1.4933798,-0.037136313,0.50423676,1.4344643,-2.0990858,-2.2840252,1.930387,9.4500675,-1.7905192,1,1683969673.8513799
-1.4933798,-0.037136313,0.50423676,-0.7799222,2.4517076,0.47769663,1.930387,9.4500675,-1.7905192,1,1683969673.861576
-1.288063,0.023050126,0.06658925,-0.7799222,2.4517076,0.47769663,1.930387,9.4500675,-1.7905192,1,1683969673.8820589
-1.288063,0.023050126,0.06658925,-2.4075727,5.5338283,2.6213756,1.930387,9.4500675,-1.7905192,1,1683969673.8871884
-1.288063,0.023050126,0.06658925,-2.4075727,5.5338283,2.6213756,2.00701,9.458356,-1.6575658,1,1683969673.8923278
-1.288063,0.023050126,0.06658925,-4.0682096,7.3757396,4.729471,2.00701,9.458356,-1.6575658,1,1683969673.9025698
-1.288063,0.023050126,0.06658925,-4.0682096,7.3757396,4.729471,2.4995055,9.421391,-1.1072475,1,1683969673.9179215
-0.7940707,0.12750745,-0.269345,-4.0682096,7.3757396,4.729471,2.4995055,9.421391,-1.1072475,1,1683969673.923059
-0.7940707,0.12750745,-0.269345,-5.033224,7.7505054,5.78245,2.4995055,9.421391,-1.1072475,1,1683969673.9435997
-0.31562817,0.23690407,-0.11238461,-5.033224,7.7505054,5.78245,2.4995055,9.421391,-1.1072475,1,1683969673.9589348
-0.31562817,0.23690407,-0.11238461,-5.033224,7.7505054,5.78245,2.9688947,9.333626,-0.5524514,1,1683969673.969155
-0.31562817,0.23690407,-0.11238461,-5.575825,7.8748164,6.287483,2.9688947,9.333626,-0.5524514,1,1683969673.9896348
-0.31562817,0.23690407,-0.11238461,-4.600579,7.179194,6.0449696,2.9688947,9.333626,-0.5524514,1,1683969674.0050404
-0.31562817,0.23690407,-0.11238461,-4.600579,7.179194,6.0449696,3.7737463,8.978612,1.1745256,1,1683969674.0101748
0.7882167,0.67430764,0.567838,-4.600579,7.179194,6.0449696,3.7737463,8.978612,1.1745256,1,1683969674.030688
0.7882167,0.67430764,0.567838,-4.600579,7.179194,6.0449696,4.168147,8.69434,1.8086327,1,1683969674.05115
0.7882167,0.67430764,0.567838,-4.245819,6.83772,5.9131756,4.168147,8.69434,1.8086327,1,1683969674.0562966
1.1309197,0.8232798,0.55393475,-4.245819,6.83772,5.9131756,4.168147,8.69434,1.8086327,1,1683969674.0665147
1.1309197,0.8232798,0.55393475,-4.245819,6.83772,5.9131756,4.5012703,8.377978,2.40503,1,1683969674.0767455
1.1309197,0.8232798,0.55393475,-3.6685512,5.8946967,5.344002,4.5012703,8.377978,2.40503,1,1683969674.0818846
1.4420353,0.9862771,0.57131386,-3.6685512,5.8946967,5.344002,4.5012703,8.377978,2.40503,1,1683969674.107561
1.4420353,0.9862771,0.57131386,-3.6685512,5.8946967,5.344002,4.762899,8.065005,2.91661,1,1683969674.1127088
1.4420353,0.9862771,0.57131386,-2.7296515,4.555222,4.426177,4.762899,8.065005,2.91661,1,1683969674.1229472
1.4420353,0.9862771,0.57131386,-1.8402315,3.3173037,3.4794884,4.762899,8.065005,2.91661,1,1683969674.128087
1.4420353,0.9862771,0.57131386,-1.8402315,3.3173037,3.4794884,4.957624,7.7959065,3.2987735,1,1683969674.1537516
1.6946112,1.1617141,0.46819806,-1.8402315,3.3173037,3.4794884,4.957624,7.7959065,3.2987735,1,1683969674.1588898
2.1509793,1.5029535,0.2001946,-1.8402315,3.3173037,3.4794884,4.957624,7.7959065,3.2987735,1,1683969674.1640255
2.1509793,1.5029535,0.2001946,0.2507602,-0.27565295,0.7502952,4.957624,7.7959065,3.2987735,1,1683969674.1794322
2.1509793,1.5029535,0.2001946,0.2507602,-0.27565295,0.7502952,5.0913496,7.615581,3.5095885,1,1683969674.1845381
2.1509793,1.5029535,0.2001946,1.8299996,-3.1031954,-1.502423,5.0913496,7.615581,3.5095885,1,1683969674.2153056
2.4539237,1.7485776,0.1853157,1.8299996,-3.1031954,-1.502423,5.0913496,7.615581,3.5095885,1,1683969674.2204497
2.4539237,1.7485776,0.1853157,1.8299996,-3.1031954,-1.502423,5.169102,7.56389,3.5077162,1,1683969674.2255917
2.4539237,1.7485776,0.1853157,3.345098,-5.5272613,-3.6987891,5.169102,7.56389,3.5077162,1,1683969674.246142
2.3443441,1.6860131,0.3339829,3.345098,-5.5272613,-3.6987891,5.169102,7.56389,3.5077162,1,1683969674.2512424
2.3443441,1.6860131,0.3339829,3.345098,-5.5272613,-3.6987891,5.152067,7.7669234,3.06059,1,1683969674.2563827
2.0438998,1.4031307,0.2361723,3.345098,-5.5272613,-3.6987891,5.152067,7.7669234,3.06059,1,1683969674.2769392
2.0438998,1.4031307,0.2361723,3.345098,-5.5272613,-3.6987891,4.6335773,7.5081053,4.288875,1,1683969674.282072
2.0438998,1.4031307,0.2361723,-1.096045,-0.4476115,0.8874345,4.6335773,7.5081053,4.288875,1,1683969674.2974334
2.0805483,1.5569202,0.87950253,-1.096045,-0.4476115,0.8874345,4.6335773,7.5081053,4.288875,1,1683969674.3025737
2.0805483,1.5569202,0.87950253,-1.096045,-0.4476115,0.8874345,4.756188,7.4694343,4.2216535,1,1683969674.3077087
2.0805483,1.5569202,0.87950253,1.5560265,-3.9968913,-1.5483906,4.756188,7.4694343,4.2216535,1,1683969674.3230824
2.0805483,1.5569202,0.87950253,3.5358407,-5.3688946,-3.444669,4.756188,7.4694343,4.2216535,1,1683969674.3436239
1.6898546,1.270318,1.1084794,3.5358407,-5.3688946,-3.444669,4.756188,7.4694343,4.2216535,1,1683969674.3590343
1.6898546,1.270318,1.1084794,3.5358407,-5.3688946,-3.444669,4.783167,7.636129,3.8790443,1,1683969674.3641763
1.1724465,0.9096263,0.8178526,3.5358407,-5.3688946,-3.444669,4.783167,7.636129,3.8790443,1,1683969674.3744602
1.1724465,0.9096263,0.8178526,3.5358407,-5.3688946,-3.444669,4.652255,8.048261,3.133392,1,1683969674.3847377
1.1724465,0.9096263,0.8178526,4.36845,-5.4238725,-4.408309,4.652255,8.048261,3.133392,1,1683969674.3898764
1.1724465,0.9096263,0.8178526,4.36845,-5.4238725,-4.408309,4.4631186,8.344277,2.5864534,1,1683969674.4155638
0.8294386,0.77492326,0.4133778,4.36845,-5.4238725,-4.408309,4.4631186,8.344277,2.5864534,1,1683969674.4258184
0.8294386,0.77492326,0.4133778,4.4440446,-5.2633677,-4.6331077,4.4631186,8.344277,2.5864534,1,1683969674.4360538
0.57155776,0.73394525,-0.08293167,4.4440446,-5.2633677,-4.6331077,4.4631186,8.344277,2.5864534,1,1683969674.45143
0.57155776,0.73394525,-0.08293167,4.4440446,-5.2633677,-4.6331077,4.2231083,8.616132,2.040524,1,1683969674.461712
0.57155776,0.73394525,-0.08293167,4.097684,-5.3863044,-4.601648,4.2231083,8.616132,2.040524,1,1683969674.466825
0.570704,0.7438239,-0.26550332,4.097684,-5.3863044,-4.601648,4.2231083,8.616132,2.040524,1,1683969674.4821846
0.570704,0.7438239,-0.26550332,3.6838229,-5.8102446,-4.498259,4.2231083,8.616132,2.040524,1,1683969674.4923997
0.570704,0.7438239,-0.26550332,3.6838229,-5.8102446,-4.498259,3.9519758,8.851216,1.5079683,1,1683969674.5026755
0.570704,0.7438239,-0.26550332,3.6838229,-5.8102446,-4.498259,3.6601572,9.0464525,1.0005364,1,1683969674.5231967
0.53289694,0.813706,-0.08579769,3.6838229,-5.8102446,-4.498259,3.6601572,9.0464525,1.0005364,1,1683969674.5334692
0.53289694,0.813706,-0.08579769,3.350596,-6.17936,-4.3763914,3.6601572,9.0464525,1.0005364,1,1683969674.5386145
0.53289694,0.813706,-0.08579769,6.2905374,-9.317986,-6.3148193,3.6601572,9.0464525,1.0005364,1,1683969674.5488977
0.53289694,0.813706,-0.08579769,6.2905374,-9.317986,-6.3148193,4.9115458,7.573277,3.8416564,1,1683969674.554037
1.247268,0.87931955,0.81059605,6.2905374,-9.317986,-6.3148193,4.9115458,7.573277,3.8416564,1,1683969674.5746229
1.247268,0.87931955,0.81059605,6.0891047,-9.237504,-6.6384254,4.9115458,7.573277,3.8416564,1,1683969674.5849116
0.8216333,0.6721124,0.6033889,6.0891047,-9.237504,-6.6384254,4.9115458,7.573277,3.8416564,1,1683969674.5952146
0.8216333,0.6721124,0.6033889,6.0891047,-9.237504,-6.6384254,4.7495303,8.04524,2.9920244,1,1683969674.6003528
0.34447134,0.45380697,0.5411291,6.0891047,-9.237504,-6.6384254,4.7495303,8.04524,2.9920244,1,1683969674.6312106
0.34447134,0.45380697,0.5411291,6.0891047,-9.237504,-6.6384254,4.3072796,8.636137,1.7608569,1,1683969674.6414795
0.34447134,0.45380697,0.5411291,5.617364,-8.926421,-6.242432,4.3072796,8.636137,1.7608569,1,1683969674.6466274
-0.00030489583,0.38953492,0.556313,5.617364,-8.926421,-6.242432,4.3072796,8.636137,1.7608569,1,1683969674.6671743
-0.00030489583,0.38953492,0.556313,5.617364,-8.926421,-6.242432,3.9368865,8.9279375,1.0143973,1,1683969674.6774607
-0.00030489583,0.38953492,0.556313,5.1686835,-8.309142,-5.4195967,3.9368865,8.9279375,1.0143973,1,1683969674.6826031
-0.29861498,0.46417344,0.5359459,5.1686835,-8.309142,-5.4195967,3.9368865,8.9279375,1.0143973,1,1683969674.6878016
-0.29861498,0.46417344,0.5359459,5.1686835,-8.309142,-5.4195967,3.5598764,9.134485,0.35292917,1,1683969674.7083485
-0.29861498,0.46417344,0.5359459,4.459011,-6.897585,-4.088521,3.5598764,9.134485,0.35292917,1,1683969674.7134838
-0.47746688,0.48014995,0.43081784,4.459011,-6.897585,-4.088521,3.5598764,9.134485,0.35292917,1,1683969674.7237623
-0.47746688,0.48014995,0.43081784,3.7100902,-5.275738,-2.9098566,3.5598764,9.134485,0.35292917,1,1683969674.7443025
-0.47746688,0.48014995,0.43081784,3.7100902,-5.275738,-2.9098566,3.21602,9.265621,-0.20391932,1,1683969674.749451
-0.47746688,0.48014995,0.43081784,2.7302623,-3.3139439,-1.6132951,3.21602,9.265621,-0.20391932,1,1683969674.7597342
-0.47746688,0.48014995,0.43081784,2.7302623,-3.3139439,-1.6132951,2.9407275,9.337007,-0.6391732,1,1683969674.7803044
-0.60966974,0.45075798,0.31196943,2.7302623,-3.3139439,-1.6132951,2.9407275,9.337007,-0.6391732,1,1683969674.785452
-0.60966974,0.45075798,0.31196943,1.528843,-1.0687088,-0.22067507,2.9407275,9.337007,-0.6391732,1,1683969674.8008482
-0.60966974,0.45075798,0.31196943,1.528843,-1.0687088,-0.22067507,2.7698429,9.364491,-0.9329537,1,1683969674.8110917
-0.60966974,0.45075798,0.31196943,1.528843,-1.0687088,-0.22067507,1.9330528,9.448333,-1.7967781,1,1683969674.8265202
-0.60966974,0.45075798,0.31196943,0.9236283,1.401783,0.44959682,1.9330528,9.448333,-1.7967781,1,1683969674.8470876
-1.2075095,0.07884607,0.28666306,0.9236283,1.401783,0.44959682,1.9330528,9.448333,-1.7967781,1,1683969674.852236
-1.2075095,0.07884607,0.28666306,0.9236283,1.401783,0.44959682,1.9889704,9.430649,-1.828387,1,1683969674.8778982
-1.2075095,0.07884607,0.28666306,-1.0419834,4.6783113,2.7198775,1.9889704,9.430649,-1.828387,1,1683969674.8830025
-1.0000583,0.14330104,0.055795938,-1.0419834,4.6783113,2.7198775,1.9889704,9.430649,-1.828387,1,1683969674.8881426
-0.49185795,0.29489526,-0.24190436,-1.0419834,4.6783113,2.7198775,1.9889704,9.430649,-1.828387,1,1683969674.8932898
-0.49185795,0.29489526,-0.24190436,-1.0419834,4.6783113,2.7198775,2.4229686,9.379983,-1.5431364,1,1683969674.9087105
-0.49185795,0.29489526,-0.24190436,-2.3254113,6.5322876,4.074929,2.4229686,9.379983,-1.5431364,1,1683969674.9241312
-0.49185795,0.29489526,-0.24190436,-3.4822373,7.6035924,5.0013065,2.4229686,9.379983,-1.5431364,1,1683969674.92923
-0.098725274,0.3561793,-0.3100181,-3.4822373,7.6035924,5.0013065,2.4229686,9.379983,-1.5431364,1,1683969674.9549348
-0.098725274,0.3561793,-0.3100181,-3.4822373,7.6035924,5.0013065,2.8654423,9.310426,-1.1581615,1,1683969674.9600742
-0.098725274,0.3561793,-0.3100181,-3.4822373,7.6035924,5.0013065,3.365171,9.193474,-0.62593335,1,1683969674.9754546
-0.098725274,0.3561793,-0.3100181,-4.7241263,8.345336,5.619044,3.365171,9.193474,-0.62593335,1,1683969674.9857373
0.33148277,0.46368557,-0.22062263,-4.7241263,8.345336,5.619044,3.365171,9.193474,-0.62593335,1,1683969674.9908788
0.597169,0.54240966,-0.073540874,-4.7241263,8.345336,5.619044,3.365171,9.193474,-0.62593335,1,1683969675.0011477
0.597169,0.54240966,-0.073540874,-4.7241263,8.345336,5.619044,3.8602467,9.018488,0.038837794,1,1683969675.0062873
0.597169,0.54240966,-0.073540874,-5.4922895,8.62328,5.7060924,3.8602467,9.018488,0.038837794,1,1683969675.0216756
0.597169,0.54240966,-0.073540874,-5.4922895,8.62328,5.7060924,4.48267,8.640812,1.2157975,1,1683969675.0319595
0.8185843,0.7191273,0.15196009,-5.4922895,8.62328,5.7060924,4.48267,8.640812,1.2157975,1,1683969675.0370972
0.8185843,0.7191273,0.15196009,-6.146068,8.658862,5.4533467,4.48267,8.640812,1.2157975,1,1683969675.0524385
0.8185843,0.7191273,0.15196009,-6.2398357,8.286845,5.011691,4.48267,8.640812,1.2157975,1,1683969675.0678444
0.9109068,0.822609,0.29940772,-6.2398357,8.286845,5.011691,4.48267,8.640812,1.2157975,1,1683969675.0832076
0.9109068,0.822609,0.29940772,-6.2398357,8.286845,5.011691,4.772366,8.320943,2.0548854,1,1683969675.0883534
-0.84242725,0.33447072,0.6503428,-6.2398357,8.286845,5.011691,4.772366,8.320943,2.0548854,1,1683969675.0986364
-0.84242725,0.33447072,0.6503428,2.4927883,-3.17879,-2.0532708,4.772366,8.320943,2.0548854,1,1683969675.1089191
-0.84242725,0.33447072,0.6503428,2.4927883,-3.17879,-2.0532708,2.2365673,9.4351635,-1.4871377,1,1683969675.1243353
-1.1514696,0.09890821,0.52472574,2.4927883,-3.17879,-2.0532708,2.2365673,9.4351635,-1.4871377,1,1683969675.129479
-1.1514696,0.09890821,0.52472574,0.5233588,0.87017757,0.3022256,2.2365673,9.4351635,-1.4871377,1,1683969675.1397622
-1.1514696,0.09890821,0.52472574,0.5233588,0.87017757,0.3022256,2.0124967,9.444112,-1.7305403,1,1683969675.1500356
-0.9581657,0.16250949,0.34556895,0.5233588,0.87017757,0.3022256,2.0124967,9.444112,-1.7305403,1,1683969675.1654627
-0.9581657,0.16250949,0.34556895,0.5233588,0.87017757,0.3022256,2.0683224,9.43288,-1.7259555,1,1683969675.186017
-0.9581657,0.16250949,0.34556895,-1.3045027,4.4113636,2.17804,2.0683224,9.43288,-1.7259555,1,1683969675.1963084
-0.49124816,0.32770205,-0.035672814,-1.3045027,4.4113636,2.17804,2.0683224,9.43288,-1.7259555,1,1683969675.206563
-0.49124816,0.32770205,-0.035672814,-1.3045027,4.4113636,2.17804,2.3521876,9.411902,-1.4558234,1,1683969675.2219906
-0.49124816,0.32770205,-0.035672814,-3.1178563,7.5480037,3.8922806,2.3521876,9.411902,-1.4558234,1,1683969675.2271369
-0.21446373,0.32678735,-0.1958041,-3.1178563,7.5480037,3.8922806,2.3521876,9.411902,-1.4558234,1,1683969675.2425516
-0.21446373,0.32678735,-0.1958041,-3.1178563,7.5480037,3.8922806,2.7539485,9.361467,-1.0073748,1,1683969675.2528272
-0.21446373,0.32678735,-0.1958041,-4.3595924,8.61656,4.8878384,2.7539485,9.361467,-1.0073748,1,1683969675.2682512
0.09726177,0.34154433,-0.10738432,-4.3595924,8.61656,4.8878384,2.7539485,9.361467,-1.0073748,1,1683969675.2836306
0.09726177,0.34154433,-0.10738432,-5.31071,9.00339,5.5491,2.7539485,9.361467,-1.0073748,1,1683969675.293873
0.09726177,0.34154433,-0.10738432,-5.31071,9.00339,5.5491,3.214062,9.259551,-0.40823624,1,1683969675.299016
0.09726177,0.34154433,-0.10738432,-5.31071,9.00339,5.5491,4.9620433,7.595641,3.7310154,1,1683969675.3452578
1.5595422,1.0648183,0.40758476,-5.31071,9.00339,5.5491,4.9620433,7.595641,3.7310154,1,1683969675.3504016
1.5595422,1.0648183,0.40758476,-3.8983893,4.299117,3.4631479,4.9620433,7.595641,3.7310154,1,1683969675.3555396
1.1511648,0.7578491,0.99005777,-3.8983893,4.299117,3.4631479,4.9620433,7.595641,3.7310154,1,1683969675.3812182
1.1511648,0.7578491,0.99005777,-4.946634,8.3126545,5.266575,4.9620433,7.595641,3.7310154,1,1683969675.386362
1.1511648,0.7578491,0.99005777,-4.946634,8.3126545,5.266575,4.8622828,6.949924,4.9287786,1,1683969675.3915036
1.1511648,0.7578491,0.99005777,-4.946634,8.3126545,5.266575,4.743363,6.285491,5.850576,1,1683969675.4274757
1.1511648,0.7578491,0.99005777,-3.4370334,6.3033657,3.9562688,4.743363,6.285491,5.850576,1,1683969675.4377577
1.4853915,0.98036206,0.7483363,-3.4370334,6.3033657,3.9562688,4.743363,6.285491,5.850576,1,1683969675.4429026
1.4853915,0.98036206,0.7483363,-1.8936822,3.7210855,2.3353379,4.743363,6.285491,5.850576,1,1683969675.4582999
1.8024222,1.1499451,0.4804549,-1.8936822,3.7210855,2.3353379,4.743363,6.285491,5.850576,1,1683969675.4685752
1.8024222,1.1499451,0.4804549,-1.8936822,3.7210855,2.3353379,4.6436954,5.977784,6.2400565,1,1683969675.4737217
1.9893234,1.3420295,0.117384896,-1.8936822,3.7210855,2.3353379,4.6436954,5.977784,6.2400565,1,1683969675.489143
1.9893234,1.3420295,0.117384896,-1.8936822,3.7210855,2.3353379,4.597843,5.8374114,6.404731,1,1683969675.5045562
1.9893234,1.3420295,0.117384896,0.5876524,-0.6554584,-0.047494773,4.597843,5.8374114,6.404731,1,1683969675.5148387
2.0078,1.3803245,0.0069516255,0.5876524,-0.6554584,-0.047494773,4.597843,5.8374114,6.404731,1,1683969675.5251122
2.0078,1.3803245,0.0069516255,0.5876524,-0.6554584,-0.047494773,4.657662,5.895035,6.308,1,1683969675.5507786
2.0078,1.3803245,0.0069516255,2.5954137,-4.5341473,-1.953547,4.657662,5.895035,6.308,1,1683969675.555912
1.8710238,1.2924535,0.25678328,2.5954137,-4.5341473,-1.953547,4.657662,5.895035,6.308,1,1683969675.5661747
1.8710238,1.2924535,0.25678328,2.5954137,-4.5341473,-1.953547,4.823568,6.1396356,5.9392066,1,1683969675.581548
1.8710238,1.2924535,0.25678328,4.457331,-8.338158,-3.9095376,4.823568,6.1396356,5.9392066,1,1683969675.586651
1.8710238,1.2924535,0.25678328,4.457331,-8.338158,-3.9095376,5.1117334,6.742928,4.96379,1,1683969675.612291
1.7306497,1.182386,0.5293601,4.457331,-8.338158,-3.9095376,5.1117334,6.742928,4.96379,1,1683969675.6174362
1.7306497,1.182386,0.5293601,5.292231,-9.881661,-5.012455,5.1117334,6.742928,4.96379,1,1683969675.6225781
1.5538712,1.0767092,0.6080233,5.292231,-9.881661,-5.012455,5.1117334,6.742928,4.96379,1,1683969675.6328528
1.5538712,1.0767092,0.6080233,5.292231,-9.881661,-5.012455,5.202453,7.2128496,4.1406994,1,1683969675.643132
1.5538712,1.0767092,0.6080233,5.675549,-10.615616,-6.003431,5.202453,7.2128496,4.1406994,1,1683969675.6482744
1.5538712,1.0767092,0.6080233,5.675549,-10.615616,-6.003431,4.6629987,6.130396,6.0754247,1,1683969675.6636913
1.6365589,1.2025701,0.67888105,5.675549,-10.615616,-6.003431,4.6629987,6.130396,6.0754247,1,1683969675.6841948
1.6365589,1.2025701,0.67888105,5.675549,-10.615616,-6.003431,4.8148036,6.402503,5.6623073,1,1683969675.6944737
1.6365589,1.2025701,0.67888105,3.829056,-8.701928,-4.6335654,4.8148036,6.402503,5.6623073,1,1683969675.6996093
1.6365589,1.2025701,0.67888105,3.829056,-8.701928,-4.6335654,5.0174994,7.0242586,4.660537,1,1683969675.70989
1.6365589,1.2025701,0.67888105,5.151427,-10.116081,-5.6392026,5.0174994,7.0242586,4.660537,1,1683969675.7252939
1.3636771,0.94401854,0.94042075,5.151427,-10.116081,-5.6392026,5.0174994,7.0242586,4.660537,1,1683969675.730429
1.3636771,0.94401854,0.94042075,5.6900573,-10.216874,-6.1236186,5.0174994,7.0242586,4.660537,1,1683969675.7561104
1.3636771,0.94401854,0.94042075,5.6900573,-10.216874,-6.1236186,5.034504,7.4903235,3.845121,1,1683969675.7663882
1.1381761,0.8437687,0.95340925,5.6900573,-10.216874,-6.1236186,5.034504,7.4903235,3.845121,1,1683969675.7715287
1.1381761,0.8437687,0.95340925,5.6900573,-10.216874,-6.1236186,4.9258766,7.938311,2.9925022,1,1683969675.7818167
0.8356585,0.6968699,0.72784734,5.6900573,-10.216874,-6.1236186,4.9258766,7.938311,2.9925022,1,1683969675.7920942
0.8356585,0.6968699,0.72784734,5.7060924,-9.898003,-6.217692,4.9258766,7.938311,2.9925022,1,1683969675.7972298
0.8356585,0.6968699,0.72784734,5.7060924,-9.898003,-6.217692,4.702793,8.336874,2.1485822,1,1683969675.8126457
0.8356585,0.6968699,0.72784734,5.4492235,-9.545838,-6.0538273,4.702793,8.336874,2.1485822,1,1683969675.81779
0.6279634,0.5762531,0.4843575,5.4492235,-9.545838,-6.0538273,4.702793,8.336874,2.1485822,1,1683969675.822893
0.3945962,0.4997243,0.37813184,5.4492235,-9.545838,-6.0538273,4.702793,8.336874,2.1485822,1,1683969675.8537157
0.3945962,0.4997243,0.37813184,5.4492235,-9.545838,-6.0538273,4.394821,8.666539,1.3463858,1,1683969675.874268
0.3945962,0.4997243,0.37813184,4.8878384,-9.032253,-5.490915,4.394821,8.666539,1.3463858,1,1683969675.8793771
0.17208321,0.49515083,0.474235,4.8878384,-9.032253,-5.490915,4.394821,8.666539,1.3463858,1,1683969675.8947585
0.17208321,0.49515083,0.474235,4.8878384,-9.032253,-5.490915,3.8430693,9.0215645,0.2798735,1,1683969675.8999002
0.17208321,0.49515083,0.474235,4.2197046,-7.9374304,-4.542241,3.8430693,9.0215645,0.2798735,1,1683969675.9101346
0.17208321,0.49515083,0.474235,3.604563,-6.2890105,-3.406948,3.8430693,9.0215645,0.2798735,1,1683969675.9254777
0.17208321,0.49515083,0.474235,4.9933653,-10.289872,-5.825822,3.8430693,9.0215645,0.2798735,1,1683969675.9357543
1.071404,0.8968206,0.47203976,4.9933653,-10.289872,-5.825822,3.8430693,9.0215645,0.2798735,1,1683969675.9460416
1.071404,0.8968206,0.47203976,5.0454416,-10.148457,-6.1738625,3.8430693,9.0215645,0.2798735,1,1683969675.951209
1.071404,0.8968206,0.47203976,5.0454416,-10.148457,-6.1738625,5.367777,7.767049,2.6638384,1,1683969675.9563484
1.071404,0.8968206,0.47203976,5.0454416,-10.148457,-6.1738625,5.2642508,7.9694943,2.2385137,1,1683969675.9820626
1.071404,0.8968206,0.47203976,4.871956,-9.986731,-6.2037945,5.2642508,7.9694943,2.2385137,1,1683969675.99233
0.9473114,0.8133401,0.38294917,4.871956,-9.986731,-6.2037945,5.2642508,7.9694943,2.2385137,1,1683969676.0025363
0.9473114,0.8133401,0.38294917,4.871956,-9.986731,-6.2037945,4.800851,8.494251,1.0176705,1,1683969676.0229702
0.6133285,0.5815583,0.25477096,4.871956,-9.986731,-6.2037945,4.800851,8.494251,1.0176705,1,1683969676.0332463
0.6133285,0.5815583,0.25477096,4.2471933,-9.457263,-5.8340683,4.800851,8.494251,1.0176705,1,1683969676.0435143
0.6133285,0.5815583,0.25477096,3.9022071,-8.979719,-5.4710617,4.800851,8.494251,1.0176705,1,1683969676.0640702
0.4063652,0.5270429,0.31038398,3.9022071,-8.979719,-5.4710617,4.800851,8.494251,1.0176705,1,1683969676.0743213
0.4063652,0.5270429,0.31038398,3.9022071,-8.979719,-5.4710617,4.400914,8.762729,0.2875088,1,1683969676.0794544
0.15256988,0.49777296,0.41789025,3.9022071,-8.979719,-5.4710617,4.400914,8.762729,0.2875088,1,1683969676.0948794
0.15256988,0.49777296,0.41789025,3.9022071,-8.979719,-5.4710617,3.7455716,9.044889,-0.6298861,1,1683969676.0999863
0.15256988,0.49777296,0.41789025,3.391371,-7.8215184,-4.6207376,3.7455716,9.044889,-0.6298861,1,1683969676.1050904
-0.18982814,0.46179524,0.6010107,3.391371,-7.8215184,-4.6207376,3.7455716,9.044889,-0.6298861,1,1683969676.1307123
-0.18982814,0.46179524,0.6010107,2.9487994,-6.0692515,-3.3800702,3.7455716,9.044889,-0.6298861,1,1683969676.146093
-0.18982814,0.46179524,0.6010107,2.9487994,-6.0692515,-3.3800702,3.3243868,9.161589,-1.1179842,1,1683969676.151192
-0.18982814,0.46179524,0.6010107,2.505311,-3.9555051,-1.9787452,3.3243868,9.161589,-1.1179842,1,1683969676.1666114
-0.18982814,0.46179524,0.6010107,2.505311,-3.9555051,-1.9787452,2.9713118,9.226824,-1.5076947,1,1683969676.1717548
-0.5783264,0.386425,0.7660203,2.505311,-3.9555051,-1.9787452,2.9713118,9.226824,-1.5076947,1,1683969676.1768947
-0.8294386,0.23178181,0.7485193,2.505311,-3.9555051,-1.9787452,2.9713118,9.226824,-1.5076947,1,1683969676.2076871
-0.8294386,0.23178181,0.7485193,5.576131,-11.023979,-6.6193357,2.9713118,9.226824,-1.5076947,1,1683969676.2281532
-0.8294386,0.23178181,0.7485193,5.576131,-11.023979,-6.6193357,5.049678,8.192585,1.9022192,1,1683969676.2332993
0.95615333,0.70717543,0.5633865,5.576131,-11.023979,-6.6193357,5.049678,8.192585,1.9022192,1,1683969676.2435696
0.6561358,0.52710396,0.39801103,5.576131,-11.023979,-6.6193357,5.049678,8.192585,1.9022192,1,1683969676.2641284
0.6561358,0.52710396,0.39801103,5.576131,-11.023979,-6.6193357,4.7015204,8.549898,1.0154152,1,1683969676.2744079
0.6561358,0.52710396,0.39801103,4.886311,-10.421514,-6.301533,4.7015204,8.549898,1.0154152,1,1683969676.279554
0.4147193,0.4494165,0.49167505,4.886311,-10.421514,-6.301533,4.7015204,8.549898,1.0154152,1,1683969676.294991
0.4147193,0.4494165,0.49167505,4.225202,-9.577451,-5.744577,4.7015204,8.549898,1.0154152,1,1683969676.3052645
0.4147193,0.4494165,0.49167505,4.225202,-9.577451,-5.744577,4.2735147,8.827396,0.22423372,1,1683969676.3154585
-0.14165461,0.39380345,0.8595624,4.225202,-9.577451,-5.744577,4.2735147,8.827396,0.22423372,1,1683969676.3308012
-0.14165461,0.39380345,0.8595624,4.225202,-9.577451,-5.744577,3.807154,9.030361,-0.4407801,1,1683969676.335938
-0.14165461,0.39380345,0.8595624,3.470631,-7.4803505,-4.5060472,3.807154,9.030361,-0.4407801,1,1683969676.3410816
-0.14165461,0.39380345,0.8595624,2.7478247,-4.6324964,-2.8866436,3.807154,9.030361,-0.4407801,1,1683969676.361594
-0.14165461,0.39380345,0.8595624,2.7478247,-4.6324964,-2.8866436,3.1783192,9.206822,-1.1699654,1,1683969676.3667364
-0.6975407,0.24733151,1.0271941,2.7478247,-4.6324964,-2.8866436,3.1783192,9.206822,-1.1699654,1,1683969676.3821263
-1.1431764,-0.00079272914,0.87803906,2.7478247,-4.6324964,-2.8866436,3.1783192,9.206822,-1.1699654,1,1683969676.3923247
-1.1431764,-0.00079272914,0.87803906,2.7478247,-4.6324964,-2.8866436,2.9367442,9.248014,-1.4442576,1,1683969676.4128454
-1.1431764,-0.00079272914,0.87803906,1.0477866,-0.0022907446,-0.30298916,2.9367442,9.248014,-1.4442576,1,1683969676.417973
-1.0439633,-0.052259143,0.7683375,1.0477866,-0.0022907446,-0.30298916,2.9367442,9.248014,-1.4442576,1,1683969676.4436088
-1.0439633,-0.052259143,0.7683375,1.0477866,-0.0022907446,-0.30298916,2.9140413,9.247779,-1.4910061,1,1683969676.4538858
-1.0439633,-0.052259143,0.7683375,-0.88025683,4.113261,1.7463111,2.9140413,9.247779,-1.4910061,1,1683969676.4590256
-0.59741294,0.17226616,0.4739911,-0.88025683,4.113261,1.7463111,2.9140413,9.247779,-1.4910061,1,1683969676.4795349
-0.59741294,0.17226616,0.4739911,-0.88025683,4.113261,1.7463111,3.1098988,9.217073,-1.2689301,1,1683969676.4846735
-0.59741294,0.17226616,0.4739911,-2.5022569,7.6946115,3.425427,3.1098988,9.217073,-1.2689301,1,1683969676.489777
-0.25653934,0.27062553,0.16872935,-2.5022569,7.6946115,3.425427,3.1098988,9.217073,-1.2689301,1,1683969676.5102942
-0.25653934,0.27062553,0.16872935,-2.5022569,7.6946115,3.425427,3.9337204,8.950704,-0.80426,1,1683969676.5154579
-0.25653934,0.27062553,0.16872935,-2.1528418,7.269449,3.563635,3.9337204,8.950704,-0.80426,1,1683969676.5205877
-0.25653934,0.27062553,0.16872935,-2.1528418,7.269449,3.563635,4.2543807,8.832985,-0.3387766,1,1683969676.536018
-0.25653934,0.27062553,0.16872935,-3.4515414,8.955895,4.4765735,4.2543807,8.832985,-0.3387766,1,1683969676.5565627
0.16135088,0.41929275,0.037075333,-3.4515414,8.955895,4.4765735,4.2543807,8.832985,-0.3387766,1,1683969676.561675
0.16135088,0.41929275,0.037075333,-3.4515414,8.955895,4.4765735,4.61752,8.649818,0.30865523,1,1683969676.5770197
0.4481359,0.43472052,0.07646788,-3.4515414,8.955895,4.4765735,4.61752,8.649818,0.30865523,1,1683969676.5872655
0.4481359,0.43472052,0.07646788,-4.4987173,9.899224,5.1150804,4.61752,8.649818,0.30865523,1,1683969676.5924077
0.4481359,0.43472052,0.07646788,-4.4987173,9.899224,5.1150804,4.9606986,8.392032,1.0960858,1,1683969676.602691
0.7938878,0.50307816,0.22598879,-4.4987173,9.899224,5.1150804,4.9606986,8.392032,1.0960858,1,1683969676.6078315
0.7938878,0.50307816,0.22598879,-5.341253,10.357067,5.4948854,4.9606986,8.392032,1.0960858,1,1683969676.6129744
0.7938878,0.50307816,0.22598879,-5.678909,10.147694,5.404936,4.9606986,8.392032,1.0960858,1,1683969676.6539783
1.0428658,0.62339,0.37770495,-5.678909,10.147694,5.404936,4.9606986,8.392032,1.0960858,1,1683969676.66427
1.0428658,0.62339,0.37770495,-5.678909,10.147694,5.404936,5.335345,7.8691225,2.418087,1,1683969676.6694095
1.2548294,0.7888265,0.57363105,-5.678909,10.147694,5.404936,5.335345,7.8691225,2.418087,1,1683969676.6848269
1.2548294,0.7888265,0.57363105,-5.678909,10.147694,5.404936,5.4543753,7.452694,3.308059,1,1683969676.7002058
1.2548294,0.7888265,0.57363105,-5.591555,9.55882,5.0153565,5.4543753,7.452694,3.308059,1,1683969676.7053528
1.2548294,0.7888265,0.57363105,-5.591555,9.55882,5.0153565,5.4390836,6.7967834,4.522855,1,1683969676.7310379
1.352518,0.8834662,0.679125,-5.591555,9.55882,5.0153565,5.4390836,6.7967834,4.522855,1,1683969676.7361784
1.352518,0.8834662,0.679125,-4.961753,8.3096,4.2186356,5.4390836,6.7967834,4.522855,1,1683969676.741318
1.352518,0.8834662,0.679125,-4.961753,8.3096,4.2186356,5.393618,6.5888996,4.871486,1,1683969676.7516017
1.352518,0.8834662,0.679125,-4.085925,6.900792,3.2775974,5.393618,6.5888996,4.871486,1,1683969676.756739
1.4810619,0.94042075,0.5822901,-4.085925,6.900792,3.2775974,5.393618,6.5888996,4.871486,1,1683969676.7670145
1.4810619,0.94042075,0.5822901,-4.085925,6.900792,3.2775974,5.29301,6.4768867,5.125437,1,1683969676.7875478
1.4810619,0.94042075,0.5822901,-2.3341162,5.114622,2.6311493,5.29301,6.4768867,5.125437,1,1683969676.7978253
1.1834837,0.83815867,0.7382138,-2.3341162,5.114622,2.6311493,5.29301,6.4768867,5.125437,1,1683969676.8029635
1.3853247,1.0253648,0.23092812,-2.3341162,5.114622,2.6311493,5.29301,6.4768867,5.125437,1,1683969676.8286076
1.3853247,1.0253648,0.23092812,-2.3341162,5.114622,2.6311493,5.2083735,6.2468534,5.485052,1,1683969676.8337529
1.3853247,1.0253648,0.23092812,-0.84238315,2.4727826,1.2481505,5.2083735,6.2468534,5.485052,1,1683969676.8388917
1.5803971,1.1498232,-0.10384752,-0.84238315,2.4727826,1.2481505,5.2083735,6.2468534,5.485052,1,1683969676.8594084
1.5803971,1.1498232,-0.10384752,-0.84238315,2.4727826,1.2481505,5.149787,6.1185637,5.6814613,1,1683969676.8696868
1.5803971,1.1498232,-0.10384752,0.39767328,-0.49357912,-0.32986724,5.149787,6.1185637,5.6814613,1,1683969676.874828
1.7229054,1.2447678,-0.28532153,0.39767328,-0.49357912,-0.32986724,5.149787,6.1185637,5.6814613,1,1683969676.8799286
1.7229054,1.2447678,-0.28532153,0.39767328,-0.49357912,-0.32986724,5.194656,6.210251,5.539353,1,1683969676.8850331
1.7229054,1.2447678,-0.28532153,1.8214475,-4.028809,-2.0774,5.194656,6.210251,5.539353,1,1683969676.900415
1.7229054,1.2447678,-0.28532153,3.5804338,-8.309752,-3.992768,5.194656,6.210251,5.539353,1,1683969676.9363291
1.7229054,1.2447678,-0.28532153,3.5804338,-8.309752,-3.992768,5.308935,6.4514513,5.1410203,1,1683969676.94147
1.7030262,1.2521462,-0.12714157,3.5804338,-8.309752,-3.992768,5.308935,6.4514513,5.1410203,1,1683969676.946572
1.5697258,1.1110405,0.23757485,3.5804338,-8.309752,-3.992768,5.308935,6.4514513,5.1410203,1,1683969676.9722717
1.5697258,1.1110405,0.23757485,4.544074,-10.556821,-5.0659056,5.308935,6.4514513,5.1410203,1,1683969676.9774117
1.5697258,1.1110405,0.23757485,4.544074,-10.556821,-5.0659056,5.4439497,6.8109026,4.49568,1,1683969676.982552
1.5697258,1.1110405,0.23757485,4.544074,-10.556821,-5.0659056,5.5134053,7.450354,3.214142,1,1683969676.9979644
1.5697258,1.1110405,0.23757485,5.140889,-11.655156,-5.829487,5.5134053,7.450354,3.214142,1,1683969677.0031168
1.4027038,0.97591066,0.54301953,5.140889,-11.655156,-5.829487,5.5134053,7.450354,3.214142,1,1683969677.0185332
1.217571,0.88669807,0.626439,5.140889,-11.655156,-5.829487,5.5134053,7.450354,3.214142,1,1683969677.0339534
1.217571,0.88669807,0.626439,5.140889,-11.655156,-5.829487,5.3973145,7.869354,2.2756042,1,1683969677.0442498
1.217571,0.88669807,0.626439,5.140889,-11.655156,-5.829487,5.27332,6.774193,4.7474732,1,1683969677.049391
1.217571,0.88669807,0.626439,1.9315559,-4.7616944,-2.2928827,5.27332,6.774193,4.7474732,1,1683969677.054536
1.595642,1.2454995,0.43008605,1.9315559,-4.7616944,-2.2928827,5.27332,6.774193,4.7474732,1,1683969677.0647988
1.595642,1.2454995,0.43008605,1.9315559,-4.7616944,-2.2928827,5.3373704,6.97647,4.367776,1,1683969677.0750003
1.595642,1.2454995,0.43008605,3.885103,-7.595346,-3.6833646,5.3373704,6.97647,4.367776,1,1683969677.090312
1.595642,1.2454995,0.43008605,5.1256175,-9.161299,-4.769178,5.3373704,6.97647,4.367776,1,1683969677.0954452
1.595642,1.2454995,0.43008605,5.1256175,-9.161299,-4.769178,5.383197,7.3026743,3.7320576,1,1683969677.1057122
1.3589817,1.039024,0.5082004,5.1256175,-9.161299,-4.769178,5.383197,7.3026743,3.7320576,1,1683969677.1211226
1.0095711,0.85303754,0.45728278,5.1256175,-9.161299,-4.769178,5.383197,7.3026743,3.7320576,1,1683969677.1365044
1.0095711,0.85303754,0.45728278,5.4183745,-9.438173,-5.1772356,5.383197,7.3026743,3.7320576,1,1683969677.146787
1.0095711,0.85303754,0.45728278,5.4183745,-9.438173,-5.1772356,5.2881675,7.8627663,2.5393534,1,1683969677.162168
0.8009004,0.7449825,0.32751912,5.4183745,-9.438173,-5.1772356,5.2881675,7.8627663,2.5393534,1,1683969677.1724014
0.8009004,0.7449825,0.32751912,5.4183745,-9.438173,-5.1772356,5.202967,8.041786,2.1201239,1,1683969677.1878173
0.8009004,0.7449825,0.32751912,5.258786,-9.276447,-5.252219,5.202967,8.041786,2.1201239,1,1683969677.192956
0.8009004,0.7449825,0.32751912,4.9083023,-9.049052,-5.1137056,5.202967,8.041786,2.1201239,1,1683969677.2134447
0.56893563,0.5891807,0.13439809,4.9083023,-9.049052,-5.1137056,5.202967,8.041786,2.1201239,1,1683969677.223709
0.56893563,0.5891807,0.13439809,4.9083023,-9.049052,-5.1137056,4.962062,8.362263,1.298704,1,1683969677.228817
0.56893563,0.5891807,0.13439809,3.9173262,-8.326094,-4.448168,4.962062,8.362263,1.298704,1,1683969677.2596555
0.56893563,0.5891807,0.13439809,3.9173262,-8.326094,-4.448168,4.4785028,8.726218,0.17953818,1,1683969677.2647996
0.35636225,0.47893035,0.06225973,3.9173262,-8.326094,-4.448168,4.4785028,8.726218,0.17953818,1,1683969677.2699409
0.21989086,0.5308846,0.19446257,3.9173262,-8.326094,-4.448168,4.4785028,8.726218,0.17953818,1,1683969677.2853565
0.21989086,0.5308846,0.19446257,3.09052,-7.090771,-3.6792414,4.4785028,8.726218,0.17953818,1,1683969677.2905045
0.21989086,0.5308846,0.19446257,3.09052,-7.090771,-3.6792414,3.9400277,8.955448,-0.71572787,1,1683969677.3007836
0.21989086,0.5308846,0.19446257,3.09052,-7.090771,-3.6792414,3.6001449,9.051171,-1.162485,1,1683969677.3110652
0.21989086,0.5308846,0.19446257,2.4857633,-5.5086303,-2.8900034,3.6001449,9.051171,-1.162485,1,1683969677.3213456
0.21989086,0.5308846,0.19446257,2.4857633,-5.5086303,-2.8900034,5.2269816,7.997045,2.227566,1,1683969677.3469722
1.1951307,0.7723012,0.5907662,2.4857633,-5.5086303,-2.8900034,5.2269816,7.997045,2.227566,1,1683969677.3521113
1.1951307,0.7723012,0.5907662,5.3443074,-10.742218,-6.3401704,5.2269816,7.997045,2.227566,1,1683969677.3572493
0.9365181,0.6356468,0.4816135,5.3443074,-10.742218,-6.3401704,5.2269816,7.997045,2.227566,1,1683969677.372574
0.9365181,0.6356468,0.4816135,5.3443074,-10.742218,-6.3401704,4.757338,8.530877,0.9099461,1,1683969677.3828392
0.9365181,0.6356468,0.4816135,5.135391,-10.247111,-6.1472898,4.757338,8.530877,0.9099461,1,1683969677.387979
0.6538186,0.5625938,0.436123,5.135391,-10.247111,-6.1472898,4.757338,8.530877,0.9099461,1,1683969677.4084988
0.6538186,0.5625938,0.436123,4.710382,-9.213986,-5.506492,4.757338,8.530877,0.9099461,1,1683969677.4136393
0.6538186,0.5625938,0.436123,4.710382,-9.213986,-5.506492,4.340037,8.797019,0.11255364,1,1683969677.4239197
0.23220867,0.5262502,0.57613117,4.710382,-9.213986,-5.506492,4.340037,8.797019,0.11255364,1,1683969677.4546514
0.23220867,0.5262502,0.57613117,3.9532144,-7.8137302,-4.7006083,4.340037,8.797019,0.11255364,1,1683969677.459791
0.23220867,0.5262502,0.57613117,3.9532144,-7.8137302,-4.7006083,3.8873963,8.988447,-0.5762595,1,1683969677.4649308
0.23220867,0.5262502,0.57613117,3.9532144,-7.8137302,-4.7006083,3.4487271,9.114409,-1.1269058,1,1683969677.4906135
-0.19245026,0.44496498,0.7419335,3.9532144,-7.8137302,-4.7006083,3.4487271,9.114409,-1.1269058,1,1683969677.4957564
-0.19245026,0.44496498,0.7419335,2.9588785,-4.861724,-3.2076533,3.4487271,9.114409,-1.1269058,1,1683969677.5008986
-0.59588844,0.30465192,0.78016746,2.9588785,-4.861724,-3.2076533,3.4487271,9.114409,-1.1269058,1,1683969677.521455
-0.59588844,0.30465192,0.78016746,2.9588785,-4.861724,-3.2076533,3.0908232,9.185754,-1.518184,1,1683969677.531733
-0.59588844,0.30465192,0.78016746,2.1195498,-2.4292583,-2.0529654,3.0908232,9.185754,-1.518184,1,1683969677.5368717
-0.76614225,0.16952209,0.5040538,2.1195498,-2.4292583,-2.0529654,3.0908232,9.185754,-1.518184,1,1683969677.5419827
-0.76614225,0.16952209,0.5040538,2.1195498,-2.4292583,-2.0529654,2.8518624,9.222954,-1.7435966,1,1683969677.567572
-0.76614225,0.16952209,0.5040538,0.19776763,2.0450242,0.019089539,2.8518624,9.222954,-1.7435966,1,1683969677.5727327
-0.76614225,0.16952209,0.5040538,-1.0680978,4.5023823,1.1798862,2.8518624,9.222954,-1.7435966,1,1683969677.593281
-0.76614225,0.16952209,0.5040538,-1.0680978,4.5023823,1.1798862,2.8662813,9.225006,-1.708743,1,1683969677.5984218
-0.054759294,0.41953668,0.011159187,-1.0680978,4.5023823,1.1798862,2.8662813,9.225006,-1.708743,1,1683969677.6138468
-0.054759294,0.41953668,0.011159187,-1.0680978,4.5023823,1.1798862,3.7401586,9.036451,-0.76804936,1,1683969677.6189911
-0.054759294,0.41953668,0.011159187,-3.4014504,8.448266,3.6082282,3.7401586,9.036451,-0.76804936,1,1683969677.6241345
0.2815408,0.51966447,0.010854292,-3.4014504,8.448266,3.6082282,3.7401586,9.036451,-0.76804936,1,1683969677.6446688
0.2815408,0.51966447,0.010854292,-4.763985,9.947635,4.521777,3.7401586,9.036451,-0.76804936,1,1683969677.6498141
0.2815408,0.51966447,0.010854292,-4.763985,9.947635,4.521777,4.088885,8.916153,-0.13917485,1,1683969677.6600912
0.2815408,0.51966447,0.010854292,-5.5051174,10.452821,4.9128838,4.088885,8.916153,-0.13917485,1,1683969677.6755126
0.2815408,0.51966447,0.010854292,-5.5051174,10.452821,4.9128838,4.4349036,8.727308,0.63391596,1,1683969677.6960711
0.5274088,0.5954006,0.02274523,-5.5051174,10.452821,4.9128838,4.4349036,8.727308,0.63391596,1,1683969677.7012131
0.5274088,0.5954006,0.02274523,-5.5051174,10.452821,4.9128838,4.7242,8.46598,1.4984099,1,1683969677.71151
0.7212616,0.68003964,0.120007,-5.5051174,10.452821,4.9128838,4.7242,8.46598,1.4984099,1,1683969677.7269135
0.7212616,0.68003964,0.120007,-5.923866,10.427928,5.024061,4.7242,8.46598,1.4984099,1,1683969677.7371924
0.7212616,0.68003964,0.120007,-5.923866,10.427928,5.024061,4.8371787,8.30886,1.9495313,1,1683969677.76799
0.7212616,0.68003964,0.120007,-6.0107613,10.260093,4.9840493,4.8371787,8.30886,1.9495313,1,1683969677.773132
0.7212616,0.68003964,0.120007,-6.0107613,10.260093,4.9840493,5.0401807,7.558621,3.701341,1,1683969677.7834136
0.7212616,0.68003964,0.120007,-5.6234727,9.06524,4.4527493,5.0401807,7.558621,3.701341,1,1683969677.7885528
1.0524395,0.82876784,0.5346044,-5.6234727,9.06524,4.4527493,5.0401807,7.558621,3.701341,1,1683969677.793699
1.0524395,0.82876784,0.5346044,-4.8889074,8.013025,3.899611,5.0401807,7.558621,3.701341,1,1683969677.814253
1.1482987,0.8615746,0.67888105,-4.8889074,8.013025,3.899611,5.0401807,7.558621,3.701341,1,1683969677.829648
1.1482987,0.8615746,0.67888105,-4.8889074,8.013025,3.899611,5.033664,7.3572803,4.094967,1,1683969677.8347883
1.3016003,0.9199927,0.67381984,-4.8889074,8.013025,3.899611,5.033664,7.3572803,4.094967,1,1683969677.8654995
1.3016003,0.9199927,0.67381984,-3.8421898,6.713104,3.1199942,5.033664,7.3572803,4.094967,1,1683969677.8706157
1.3016003,0.9199927,0.67381984,-3.8421898,6.713104,3.1199942,4.9174366,6.7938695,5.089033,1,1683969677.8808973
0.90450394,0.85883063,0.5283235,-3.8421898,6.713104,3.1199942,4.9174366,6.7938695,5.089033,1,1683969677.8860402
0.90450394,0.85883063,0.5283235,-5.527567,9.545074,4.5205555,4.9174366,6.7938695,5.089033,1,1683969677.9014692
0.95273846,0.8742583,0.59296143,-5.527567,9.545074,4.5205555,4.9174366,6.7938695,5.089033,1,1683969677.9219909
0.95273846,0.8742583,0.59296143,-5.527567,9.545074,4.5205555,4.480521,7.6889462,4.128093,1,1683969677.927132
0.95273846,0.8742583,0.59296143,-4.86432,8.516989,3.9997928,4.480521,7.6889462,4.128093,1,1683969677.9322758
1.065367,0.9698736,0.47960114,-4.86432,8.516989,3.9997928,4.480521,7.6889462,4.128093,1,1683969677.9477077
1.065367,0.9698736,0.47960114,-3.845244,7.0890913,3.2279646,4.480521,7.6889462,4.128093,1,1683969677.9528565
1.065367,0.9698736,0.47960114,-3.845244,7.0890913,3.2279646,4.41801,7.3512325,4.7620015,1,1683969677.9631386
1.3334315,1.141591,0.056039855,-3.845244,7.0890913,3.2279646,4.41801,7.3512325,4.7620015,1,1683969677.993968
1.3334315,1.141591,0.056039855,-3.845244,7.0890913,3.2279646,4.323855,7.082821,5.2320204,1,1683969678.0042534
1.3334315,1.141591,0.056039855,-2.1730003,4.155869,1.6985108,4.323855,7.082821,5.2320204,1,1683969678.0093973
1.3334315,1.141591,0.056039855,-2.1730003,4.155869,1.6985108,4.2471604,6.927261,5.4964333,1,1683969678.0299554
1.3334315,1.141591,0.056039855,-0.4894558,0.67347896,0.05955936,4.2471604,6.927261,5.4964333,1,1683969678.0401998
1.5033804,1.2518413,-0.19799936,-0.4894558,0.67347896,0.05955936,4.2471604,6.927261,5.4964333,1,1683969678.0453413
1.5033804,1.2518413,-0.19799936,1.8545868,-4.0824122,-2.0416644,4.2471604,6.927261,5.4964333,1,1683969678.0658875
1.5033804,1.2518413,-0.19799936,1.8545868,-4.0824122,-2.0416644,4.2375126,6.9191747,5.514038,1,1683969678.076116
1.4280102,1.2154368,0.17305888,1.8545868,-4.0824122,-2.0416644,4.2375126,6.9191747,5.514038,1,1683969678.0966632
1.4280102,1.2154368,0.17305888,3.4487925,-7.0747356,-3.4223726,4.2375126,6.9191747,5.514038,1,1683969678.1018047
1.4280102,1.2154368,0.17305888,3.4487925,-7.0747356,-3.4223726,4.3577056,7.190968,5.053365,1,1683969678.1120443
1.2892216,1.0567081,0.37947336,3.4487925,-7.0747356,-3.4223726,4.3577056,7.190968,5.053365,1,1683969678.132585
1.2892216,1.0567081,0.37947336,4.444197,-8.7847,-4.4101415,4.3577056,7.190968,5.053365,1,1683969678.1377268
1.2892216,1.0567081,0.37947336,4.444197,-8.7847,-4.4101415,4.448763,7.5058312,4.484096,1,1683969678.1428688
0.5925956,0.82462126,0.17799819,4.444197,-8.7847,-4.4101415,4.448763,7.5058312,4.484096,1,1683969678.1788452
0.5925956,0.82462126,0.17799819,-7.346571,10.36226,3.982994,4.448763,7.5058312,4.484096,1,1683969678.1839874
0.5925956,0.82462126,0.17799819,-7.346571,10.36226,3.982994,3.5253403,8.398881,3.6423757,1,1683969678.1891284
0.69241846,0.85596454,0.32038453,-7.346571,10.36226,3.982994,3.5253403,8.398881,3.6423757,1,1683969678.2096646
0.69241846,0.85596454,0.32038453,-6.934237,9.028436,3.6427422,3.5253403,8.398881,3.6423757,1,1683969678.2250836
0.69241846,0.85596454,0.32038453,-6.934237,9.028436,3.6427422,3.4478998,8.002865,4.5058036,1,1683969678.2353249
0.86657494,0.9034064,0.44520888,-6.934237,9.028436,3.6427422,3.4478998,8.002865,4.5058036,1,1683969678.2456093
0.86657494,0.9034064,0.44520888,-6.934237,9.028436,3.6427422,3.3168738,7.588004,5.2589607,1,1683969678.2507439
0.86657494,0.9034064,0.44520888,-6.0677247,7.3989525,3.0955596,3.3168738,7.588004,5.2589607,1,1683969678.2558832
0.86657494,0.9034064,0.44520888,-6.0677247,7.3989525,3.0955596,3.1646197,7.199262,5.8644605,1,1683969678.2763188
1.1318953,1.00701,0.40386504,-6.0677247,7.3989525,3.0955596,3.1646197,7.199262,5.8644605,1,1683969678.2865524
1.1318953,1.00701,0.40386504,-4.7911687,5.3562193,2.1439843,3.1646197,7.199262,5.8644605,1,1683969678.2968342
1.396423,1.11226,0.28696796,-4.7911687,5.3562193,2.1439843,3.1646197,7.199262,5.8644605,1,1683969678.3174067
1.396423,1.11226,0.28696796,-3.6129625,3.2669072,1.0969613,3.1646197,7.199262,5.8644605,1,1683969678.3379579
1.396423,1.11226,0.28696796,-3.6129625,3.2669072,1.0969613,3.0253775,6.888017,6.295904,1,1683969678.3431084
1.396423,1.11226,0.28696796,-0.50991976,-2.1137464,-1.5349517,3.0253775,6.888017,6.295904,1,1683969678.3533945
1.396423,1.11226,0.28696796,-0.50991976,-2.1137464,-1.5349517,2.950145,6.672028,6.55872,1,1683969678.3636365
1.7050995,1.2989173,0.41075566,-0.50991976,-2.1137464,-1.5349517,2.950145,6.672028,6.55872,1,1683969678.378974
1.6829641,1.3119668,0.6565627,-0.50991976,-2.1137464,-1.5349517,2.950145,6.672028,6.55872,1,1683969678.3841157
1.6829641,1.3119668,0.6565627,-0.50991976,-2.1137464,-1.5349517,2.9787118,6.6870513,6.5304456,1,1683969678.3995333
1.6829641,1.3119668,0.6565627,1.8658879,-5.5600953,-3.1861205,2.9787118,6.6870513,6.5304456,1,1683969678.4098125
1.4741714,1.1239071,1.0606717,1.8658879,-5.5600953,-3.1861205,2.9787118,6.6870513,6.5304456,1,1683969678.4252279
1.4741714,1.1239071,1.0606717,3.8530326,-7.785325,-4.4548874,2.9787118,6.6870513,6.5304456,1,1683969678.4303713
1.4741714,1.1239071,1.0606717,3.8530326,-7.785325,-4.4548874,3.1805646,6.9963913,6.0967717,1,1683969678.4355018
1.4741714,1.1239071,1.0606717,5.6801305,-6.7060785,-6.1807346,3.1805646,6.9963913,6.0967717,1,1683969678.445779
1.4741714,1.1239071,1.0606717,5.6801305,-6.7060785,-6.1807346,3.3168063,8.977868,2.1523948,1,1683969678.4611545
0.13220283,0.3085546,0.7771185,5.6801305,-6.7060785,-6.1807346,3.3168063,8.977868,2.1523948,1,1683969678.4713626
0.13220283,0.3085546,0.7771185,5.39058,-5.661499,-5.0260468,3.3168063,8.977868,2.1523948,1,1683969678.4867358
-0.41856104,0.14482552,0.6276586,5.39058,-5.661499,-5.0260468,3.3168063,8.977868,2.1523948,1,1683969678.4918804
-0.41856104,0.14482552,0.6276586,5.39058,-5.661499,-5.0260468,2.9191191,9.241516,1.5196142,1,1683969678.5021608
-0.7759599,0.12793429,0.28617525,5.39058,-5.661499,-5.0260468,2.9191191,9.241516,1.5196142,1,1683969678.5277846
-0.7759599,0.12793429,0.28617525,4.3353105,-3.9122865,-3.0066788,2.9191191,9.241516,1.5196142,1,1683969678.543189
-0.7759599,0.12793429,0.28617525,4.3353105,-3.9122865,-3.0066788,2.396119,9.487119,0.69951004,1,1683969678.5483184
-0.7759599,0.12793429,0.28617525,4.3353105,-3.9122865,-3.0066788,2.1742444,9.56139,0.29765663,1,1683969678.563741
-0.82785314,0.17360769,0.12592198,4.3353105,-3.9122865,-3.0066788,2.1742444,9.56139,0.29765663,1,1683969678.568863
-0.82785314,0.17360769,0.12592198,3.0181324,-2.298075,-1.4031575,2.1742444,9.56139,0.29765663,1,1683969678.58421
-0.82785314,0.17360769,0.12592198,3.0181324,-2.298075,-1.4031575,2.0722468,9.588516,0.047562424,1,1683969678.6047134
-0.82785314,0.17360769,0.12592198,1.3084733,0.034208454,0.3462079,2.0722468,9.588516,0.047562424,1,1683969678.609838
-0.7612639,0.30337137,0.0951275,1.3084733,0.034208454,0.3462079,2.0722468,9.588516,0.047562424,1,1683969678.6201115
-0.6170482,0.3773391,0.10579886,1.3084733,0.034208454,0.3462079,2.0722468,9.588516,0.047562424,1,1683969678.625254
-0.6170482,0.3773391,0.10579886,1.3084733,0.034208454,0.3462079,2.0858424,9.585557,-0.04998902,1,1683969678.6406517
-0.6170482,0.3773391,0.10579886,0.10888673,2.068695,1.4885259,2.0858424,9.585557,-0.04998902,1,1683969678.6509268
-0.6170482,0.3773391,0.10579886,-0.7487681,3.532023,2.2695172,2.0858424,9.585557,-0.04998902,1,1683969678.6612
-0.538568,0.39087647,0.06262561,-0.7487681,3.532023,2.2695172,2.0858424,9.585557,-0.04998902,1,1683969678.6713989
-0.538568,0.39087647,0.06262561,-0.7487681,3.532023,2.2695172,2.1999428,9.560146,-0.0035942837,1,1683969678.6918402
-0.538568,0.39087647,0.06262561,-0.7487681,3.532023,2.2695172,2.40019,9.510119,0.18120405,1,1683969678.6969793
-0.538568,0.39087647,0.06262561,-2.1207714,5.391191,3.5069773,2.40019,9.510119,0.18120405,1,1683969678.7072074
-0.34434935,0.3603259,0.027989438,-2.1207714,5.391191,3.5069773,2.40019,9.510119,0.18120405,1,1683969678.7174468
0.096469045,0.41978058,0.087566085,-2.1207714,5.391191,3.5069773,2.40019,9.510119,0.18120405,1,1683969678.7379274
0.096469045,0.41978058,0.087566085,-4.522083,7.9313216,5.48557,2.40019,9.510119,0.18120405,1,1683969678.7482038
0.096469045,0.41978058,0.087566085,-4.522083,7.9313216,5.48557,2.548822,9.423686,0.96631324,1,1683969678.7533464
0.47271052,0.5686307,0.14116678,-4.522083,7.9313216,5.48557,2.548822,9.423686,0.96631324,1,1683969678.7687113
0.47271052,0.5686307,0.14116678,-4.522083,7.9313216,5.48557,2.9269426,9.233149,1.5550168,1,1683969678.7789092
0.47271052,0.5686307,0.14116678,-5.457928,8.761182,5.7629027,2.9269426,9.233149,1.5550168,1,1683969678.7891428
0.47271052,0.5686307,0.14116678,-6.0918536,9.016523,5.4605246,2.9269426,9.233149,1.5550168,1,1683969678.8147044
0.47271052,0.5686307,0.14116678,-6.0918536,9.016523,5.4605246,3.3976543,8.82463,2.6111233,1,1683969678.819819
0.87724626,0.7935219,0.07799236,-6.0918536,9.016523,5.4605246,3.3976543,8.82463,2.6111233,1,1683969678.8249164
1.1095159,0.9356034,0.0078053335,-6.0918536,9.016523,5.4605246,3.3976543,8.82463,2.6111233,1,1683969678.845468
1.1095159,0.9356034,0.0078053335,-6.4967046,8.605259,4.714811,3.3976543,8.82463,2.6111233,1,1683969678.8506098
1.1095159,0.9356034,0.0078053335,-6.4967046,8.605259,4.714811,3.5781956,8.4861355,3.3790734,1,1683969678.8557467
1.4506334,1.1467743,-0.064394,-6.4967046,8.605259,4.714811,3.5781956,8.4861355,3.3790734,1,1683969678.8660042
1.4506334,1.1467743,-0.064394,-6.3774333,6.89392,3.275612,3.5781956,8.4861355,3.3790734,1,1683969678.876262
1.4506334,1.1467743,-0.064394,-6.3774333,6.89392,3.275612,3.639389,8.119481,4.130978,1,1683969678.886492
1.4506334,1.1467743,-0.064394,-6.3774333,6.89392,3.275612,3.6070197,7.7614546,4.794303,1,1683969678.9121735
1.4506334,1.1467743,-0.064394,-5.8346796,5.109124,1.93797,3.6070197,7.7614546,4.794303,1,1683969678.9173086
1.9179778,1.4412426,-0.065369666,-5.8346796,5.109124,1.93797,3.6070197,7.7614546,4.794303,1,1683969678.9224496
1.9179778,1.4412426,-0.065369666,-5.8346796,5.109124,1.93797,3.5137067,7.4814444,5.2837453,1,1683969678.9481022
2.5384407,1.7860188,0.28885832,-5.8346796,5.109124,1.93797,3.5137067,7.4814444,5.2837453,1,1683969678.9532444
2.5384407,1.7860188,0.28885832,-3.5749362,0.9056077,-1.2289082,3.5137067,7.4814444,5.2837453,1,1683969678.9583871
2.5384407,1.7860188,0.28885832,-3.5749362,0.9056077,-1.2289082,3.353691,7.381514,5.522872,1,1683969678.9839156
2.5384407,1.7860188,0.28885832,-0.20708331,-3.648698,-4.3525677,3.353691,7.381514,5.522872,1,1683969678.9941509
1.4438038,0.8778561,-0.014330104,-0.20708331,-3.648698,-4.3525677,3.353691,7.381514,5.522872,1,1683969678.9992597
1.4438038,0.8778561,-0.014330104,-1.9950858,0.9605856,5.4260106,3.353691,7.381514,5.522872,1,1683969679.00953
1.4438038,0.8778561,-0.014330104,-1.9950858,0.9605856,5.4260106,2.84703,8.934873,2.8807256,1,1683969679.0146635
1.4438038,0.8778561,-0.014330104,-1.5674802,0.18295415,4.142583,2.84703,8.934873,2.8807256,1,1683969679.0454714
1.4438038,0.8778561,-0.014330104,-1.5674802,0.18295415,4.142583,3.2642481,8.731356,3.0568292,1,1683969679.0557468
1.9193194,1.3856906,0.29940772,-1.5674802,0.18295415,4.142583,3.2642481,8.731356,3.0568292,1,1683969679.0608754
2.0296307,1.5685061,0.44094035,-1.5674802,0.18295415,4.142583,3.2642481,8.731356,3.0568292,1,1683969679.0659971
2.0296307,1.5685061,0.44094035,-1.2762502,-0.06261369,3.2731688,3.2642481,8.731356,3.0568292,1,1683969679.0966883
1.8388878,1.5819216,0.64320827,-1.2762502,-0.06261369,3.2731688,3.2642481,8.731356,3.0568292,1,1683969679.112104
1.8388878,1.5819216,0.64320827,-0.5534439,-0.47326785,1.4115568,3.2642481,8.731356,3.0568292,1,1683969679.1274889
1.8388878,1.5819216,0.64320827,-0.5534439,-0.47326785,1.4115568,3.675922,8.732344,2.543594,1,1683969679.168581
1.8388878,1.5819216,0.64320827,2.3316727,-0.22708915,-0.39950588,3.675922,8.732344,2.543594,1,1683969679.1737194
0.1604362,0.6196093,0.614731,2.3316727,-0.22708915,-0.39950588,3.675922,8.732344,2.543594,1,1683969679.1839175
0.1604362,0.6196093,0.614731,1.1814134,2.0517437,1.0030408,3.675922,8.732344,2.543594,1,1683969679.199252
-0.13366634,0.44819686,0.5524712,1.1814134,2.0517437,1.0030408,3.675922,8.732344,2.543594,1,1683969679.2094944
-0.13366634,0.44819686,0.5524712,1.1814134,2.0517437,1.0030408,3.647862,8.790824,2.3771038,1,1683969679.2146313
-0.14677685,0.3925229,0.55009305,1.1814134,2.0517437,1.0030408,3.647862,8.790824,2.3771038,1,1683969679.2403376
-0.14677685,0.3925229,0.55009305,-0.24694228,4.4005203,2.3328943,3.647862,8.790824,2.3771038,1,1683969679.2506118
-0.14677685,0.3925229,0.55009305,-0.24694228,4.4005203,2.3328943,3.693212,8.76694,2.3952167,1,1683969679.25572
-0.2830653,0.59460783,0.12122658,-0.24694228,4.4005203,2.3328943,3.693212,8.76694,2.3952167,1,1683969679.2916439
-0.2830653,0.59460783,0.12122658,-0.24694228,4.4005203,2.3328943,1.889792,9.610782,-0.5456312,1,1683969679.296787
-0.2830653,0.59460783,0.12122658,0.36911532,-1.2515101,-1.9184223,1.889792,9.610782,-0.5456312,1,1683969679.3070633
-0.54076326,0.56436217,0.22879384,0.36911532,-1.2515101,-1.9184223,1.889792,9.610782,-0.5456312,1,1683969679.3173428
-0.54076326,0.56436217,0.22879384,0.43692136,-0.5374087,-0.91507614,1.889792,9.610782,-0.5456312,1,1683969679.3327572
-0.54076326,0.56436217,0.22879384,0.43692136,-0.5374087,-0.91507614,1.7268893,9.6387615,-0.59014666,1,1683969679.343034
-0.54076326,0.56436217,0.22879384,0.43692136,-0.5374087,-0.91507614,1.6607854,9.648527,-0.61952597,1,1683969679.36355
-0.54076326,0.56436217,0.22879384,0.3100141,0.6230826,0.34376442,1.6607854,9.648527,-0.61952597,1,1683969679.368691
-0.71937126,0.4658808,0.29141945,0.3100141,0.6230826,0.34376442,1.6607854,9.648527,-0.61952597,1,1683969679.378963
-0.71937126,0.4658808,0.29141945,0.3100141,0.6230826,0.34376442,1.7149639,9.63978,-0.6079953,1,1683969679.3942738
-0.63192713,0.4238052,0.12061679,0.3100141,0.6230826,0.34376442,1.7149639,9.63978,-0.6079953,1,1683969679.3993618
-0.63192713,0.4238052,0.12061679,-0.41523564,2.578615,2.0210476,1.7149639,9.63978,-0.6079953,1,1683969679.4199135
-0.63192713,0.4238052,0.12061679,-0.41523564,2.578615,2.0210476,1.8912023,9.612184,-0.5151602,1,1683969679.430197
-0.33099493,0.46978348,-0.07341892,-0.41523564,2.578615,2.0210476,1.8912023,9.612184,-0.5151602,1,1683969679.435299
-0.33099493,0.46978348,-0.07341892,-1.4407257,4.1044035,3.0521882,1.8912023,9.612184,-0.5151602,1,1683969679.4558303
-0.33099493,0.46978348,-0.07341892,-1.4407257,4.1044035,3.0521882,2.32124,9.530201,-0.15243575,1,1683969679.4814577
0.033172667,0.5803387,-0.024086772,-1.4407257,4.1044035,3.0521882,2.32124,9.530201,-0.15243575,1,1683969679.4865615
0.033172667,0.5803387,-0.024086772,-2.7560713,5.6870027,3.8252382,2.32124,9.530201,-0.15243575,1,1683969679.4916844
0.033172667,0.5803387,-0.024086772,-2.7560713,5.6870027,3.8252382,2.4888842,9.488959,0.034664635,1,1683969679.4968216
0.033172667,0.5803387,-0.024086772,-3.5676057,6.808857,4.1361685,2.4888842,9.488959,0.034664635,1,1683969679.507083
0.2242204,0.6501599,0.119641125,-3.5676057,6.808857,4.1361685,2.4888842,9.488959,0.034664635,1,1683969679.522487
0.2242204,0.6501599,0.119641125,-3.5676057,6.808857,4.1361685,2.9859521,9.313626,0.7593358,1,1683969679.527627
0.3111767,0.67814934,0.16750978,-3.5676057,6.808857,4.1361685,2.9859521,9.313626,0.7593358,1,1683969679.5481977
0.3111767,0.67814934,0.16750978,-6.12988,8.693682,5.8581977,2.9859521,9.313626,0.7593358,1,1683969679.5635965
0.3111767,0.67814934,0.16750978,-6.12988,8.693682,5.8581977,3.3166823,8.713651,3.050906,1,1683969679.5841312
0.3006273,0.48021096,0.5224695,-6.12988,8.693682,5.8581977,3.3166823,8.713651,3.050906,1,1683969679.5892713
0.5539957,0.5939981,0.84370774,-6.12988,8.693682,5.8581977,3.3166823,8.713651,3.050906,1,1683969679.599566
0.5539957,0.5939981,0.84370774,-5.8168116,8.293717,5.9217277,3.3166823,8.713651,3.050906,1,1683969679.6098356
0.5539957,0.5939981,0.84370774,-5.8168116,8.293717,5.9217277,3.5672812,8.130778,4.171457,1,1683969679.6149683
0.7680326,0.61314553,0.9974363,-5.8168116,8.293717,5.9217277,3.5672812,8.130778,4.171457,1,1683969679.6406693
0.7680326,0.61314553,0.9974363,-5.8168116,8.293717,5.9217277,3.6571,7.6942773,4.864137,1,1683969679.6458104
0.7680326,0.61314553,0.9974363,-5.1422634,7.839081,5.7251816,3.6571,7.6942773,4.864137,1,1683969679.6612313
0.7680326,0.61314553,0.9974363,-4.0033054,7.0507593,5.2951326,3.6571,7.6942773,4.864137,1,1683969679.6663737
0.9957898,0.64119595,1.080002,-4.0033054,7.0507593,5.2951326,3.6571,7.6942773,4.864137,1,1683969679.6715045
0.9957898,0.64119595,1.080002,-4.0033054,7.0507593,5.2951326,3.6847985,7.2601023,5.472595,1,1683969679.6920094
0.9957898,0.64119595,1.080002,-4.0033054,7.0507593,5.2951326,3.636886,6.67685,6.1991024,1,1683969679.7174988
1.1429325,0.7077242,1.0467684,-4.0033054,7.0507593,5.2951326,3.636886,6.67685,6.1991024,1,1683969679.7277381
1.1429325,0.7077242,1.0467684,-3.111595,6.3730044,4.7519207,3.636886,6.67685,6.1991024,1,1683969679.7328415
1.244219,0.7857775,0.8921862,-3.111595,6.3730044,4.7519207,3.636886,6.67685,6.1991024,1,1683969679.7431252
1.244219,0.7857775,0.8921862,-2.5546384,5.763666,4.172515,3.636886,6.67685,6.1991024,1,1683969679.7534072
1.244219,0.7857775,0.8921862,-2.5546384,5.763666,4.172515,3.6015286,6.510484,6.3936453,1,1683969679.7585447
1.244219,0.7857775,0.8921862,-2.5546384,5.763666,4.172515,3.4649684,6.1157126,6.8431115,1,1683969679.7893813
1.244219,0.7857775,0.8921862,-1.6684257,3.9709296,2.6551259,3.4649684,6.1157126,6.8431115,1,1683969679.7944844
1.7847992,1.2103755,0.24873403,-1.6684257,3.9709296,2.6551259,3.4649684,6.1157126,6.8431115,1,1683969679.8149252
1.7847992,1.2103755,0.24873403,-0.2556471,0.7096727,0.38652498,3.4649684,6.1157126,6.8431115,1,1683969679.8200352
1.7847992,1.2103755,0.24873403,-0.2556471,0.7096727,0.38652498,3.3939912,5.969222,7.0060906,1,1683969679.8354487
1.1983626,1.0035341,0.5669233,-0.2556471,0.7096727,0.38652498,3.3939912,5.969222,7.0060906,1,1683969679.855965
1.1983626,1.0035341,0.5669233,-3.8284452,6.353762,3.5085046,3.3939912,5.969222,7.0060906,1,1683969679.8611054
1.1983626,1.0035341,0.5669233,-3.8284452,6.353762,3.5085046,3.7846363,7.467705,5.113319,1,1683969679.866236
1.3720922,1.1114062,0.5603985,-3.8284452,6.353762,3.5085046,3.7846363,7.467705,5.113319,1,1683969679.8918366
1.3720922,1.1114062,0.5603985,-3.8284452,6.353762,3.5085046,3.7264817,7.1951804,5.5298133,1,1683969679.8969784
1.3720922,1.1114062,0.5603985,-2.5156958,4.467563,2.3588562,3.7264817,7.1951804,5.5298133,1,1683969679.9021177
1.3720922,1.1114062,0.5603985,-2.5156958,4.467563,2.3588562,3.666552,7.0272207,5.780196,1,1683969679.9174623
1.501673,1.1964723,0.57546043,-2.5156958,4.467563,2.3588562,3.666552,7.0272207,5.780196,1,1683969679.9379747
1.501673,1.1964723,0.57546043,-0.6426302,1.8321376,0.6058256,3.666552,7.0272207,5.780196,1,1683969679.9431252
1.501673,1.1964723,0.57546043,-0.6426302,1.8321376,0.6058256,3.6209443,6.9842954,5.8604164,1,1683969679.9687872
1.4541093,1.1937891,0.54808074,-0.6426302,1.8321376,0.6058256,3.6209443,6.9842954,5.8604164,1,1683969679.9739258
1.4541093,1.1937891,0.54808074,0.8791878,-0.25121832,-0.80649483,3.6209443,6.9842954,5.8604164,1,1683969679.9790692
1.4541093,1.1937891,0.54808074,0.8791878,-0.25121832,-0.80649483,3.590731,7.1478877,5.6789494,1,1683969679.999617
1.2659885,1.0676233,0.47033232,0.8791878,-0.25121832,-0.80649483,3.590731,7.1478877,5.6789494,1,1683969680.0098984
1.2659885,1.0676233,0.47033232,2.453082,-2.5847235,-2.2808182,3.590731,7.1478877,5.6789494,1,1683969680.0150366
1.1230533,0.96469045,0.4765522,2.453082,-2.5847235,-2.2808182,3.590731,7.1478877,5.6789494,1,1683969680.0355523
1.1230533,0.96469045,0.4765522,3.1322114,-3.6464074,-2.9294043,3.590731,7.1478877,5.6789494,1,1683969680.0458298
1.1230533,0.96469045,0.4765522,3.1322114,-3.6464074,-2.9294043,3.588173,7.250547,5.5489354,1,1683969680.0509706
0.87840486,0.85572064,0.4923458,3.1322114,-3.6464074,-2.9294043,3.588173,7.250547,5.5489354,1,1683969680.0663688
0.87840486,0.85572064,0.4923458,3.8511999,-4.7729955,-3.6238053,3.588173,7.250547,5.5489354,1,1683969680.0714946
0.87840486,0.85572064,0.4923458,3.8511999,-4.7729955,-3.6238053,3.5706823,7.6407933,5.01045,1,1683969680.0766299
0.87840486,0.85572064,0.4923458,4.169155,-5.1740284,-3.8605156,3.5706823,7.6407933,5.01045,1,1683969680.1073477
0.62149966,0.787363,0.512347,4.169155,-5.1740284,-3.8605156,3.5706823,7.6407933,5.01045,1,1683969680.1175892
0.62149966,0.787363,0.512347,-4.6111164,8.673981,3.787059,3.5706823,7.6407933,5.01045,1,1683969680.1329756
0.6707099,0.82840204,0.5769239,-4.6111164,8.673981,3.787059,3.5706823,7.6407933,5.01045,1,1683969680.1381152
0.6707099,0.82840204,0.5769239,-4.6111164,8.673981,3.787059,3.1841447,9.009537,2.2193687,1,1683969680.1483438
0.6707099,0.82840204,0.5769239,-4.6111164,8.673981,3.787059,3.2943616,8.784811,2.8653831,1,1683969680.1637273
0.6707099,0.82840204,0.5769239,-5.6059103,10.240239,3.8421898,3.2943616,8.784811,2.8653831,1,1683969680.1688643
0.7563246,0.8413296,0.60838914,-5.6059103,10.240239,3.8421898,3.2943616,8.784811,2.8653831,1,1683969680.1893914
0.7623616,0.85120827,0.52850646,-5.6059103,10.240239,3.8421898,3.2943616,8.784811,2.8653831,1,1683969680.2047734
0.7623616,0.85120827,0.52850646,-5.6059103,10.240239,3.8421898,3.2988975,8.498348,3.6237366,1,1683969680.215057
0.7623616,0.85120827,0.52850646,-6.3033657,11.18479,3.7922513,3.2988975,8.498348,3.6237366,1,1683969680.2202013
0.69016224,0.82657266,0.47149092,-6.3033657,11.18479,3.7922513,3.2988975,8.498348,3.6237366,1,1683969680.2407103
0.69016224,0.82657266,0.47149092,-6.6397996,11.294593,3.643353,3.2988975,8.498348,3.6237366,1,1683969680.2509897
0.69016224,0.82657266,0.47149092,-6.6397996,11.294593,3.643353,3.083259,7.9598355,4.8343186,1,1683969680.2612698
0.6452206,0.81193763,0.4751497,-6.6397996,11.294593,3.643353,3.083259,7.9598355,4.8343186,1,1683969680.276719
0.6452206,0.81193763,0.4751497,-6.6397996,11.294593,3.643353,2.959704,7.7576933,5.2244115,1,1683969680.2869594
0.6452206,0.81193763,0.4751497,-6.5092273,10.879052,3.549738,2.959704,7.7576933,5.2244115,1,1683969680.292061
0.6452206,0.81193763,0.4751497,-5.7146444,9.501703,3.2583551,2.959704,7.7576933,5.2244115,1,1683969680.307466
0.6452206,0.81193763,0.4751497,-5.7146444,9.501703,3.2583551,2.500304,7.133592,6.2527146,1,1683969680.3177385
0.6431473,0.7950464,0.4921019,-5.7146444,9.501703,3.2583551,2.500304,7.133592,6.2527146,1,1683969680.322881
0.7050411,0.83181685,0.4463675,-5.7146444,9.501703,3.2583551,2.500304,7.133592,6.2527146,1,1683969680.3537123
0.7050411,0.83181685,0.4463675,-5.7146444,9.501703,3.2583551,2.1755176,6.7511077,6.7768555,1,1683969680.3588214
0.7050411,0.83181685,0.4463675,-4.3595924,7.482183,2.741258,2.1755176,6.7511077,6.7768555,1,1683969680.3639598
0.7050411,0.83181685,0.4463675,-2.8661797,4.7102294,1.7090483,2.1755176,6.7511077,6.7768555,1,1683969680.394748
0.7050411,0.83181685,0.4463675,-2.8661797,4.7102294,1.7090483,2.8515458,7.721218,5.337376,1,1683969680.3998897
0.7050411,0.83181685,0.4463675,-3.1931453,0.017256944,-0.03680463,2.8515458,7.721218,5.337376,1,1683969680.4152253
0.7050411,0.83181685,0.4463675,-3.1931453,0.017256944,-0.03680463,2.86859,7.582944,5.5232472,1,1683969680.4255126
0.7050411,0.83181685,0.4463675,-0.1330159,-3.7846155,-1.6505579,2.86859,7.582944,5.5232472,1,1683969680.4306557
1.5676523,1.4236196,0.8086447,-0.1330159,-3.7846155,-1.6505579,2.86859,7.582944,5.5232472,1,1683969680.4460177
1.5313698,1.3428223,1.1843984,-0.1330159,-3.7846155,-1.6505579,2.86859,7.582944,5.5232472,1,1683969680.4768167
1.5313698,1.3428223,1.1843984,2.6418395,-6.6314006,-3.043636,2.86859,7.582944,5.5232472,1,1683969680.4819624
1.5313698,1.3428223,1.1843984,2.6418395,-6.6314006,-3.043636,2.9580946,7.633265,5.4054656,1,1683969680.4922507
1.5313698,1.3428223,1.1843984,2.6418395,-6.6314006,-3.043636,3.0979369,7.995245,4.7660217,1,1683969680.4973924
1.5313698,1.3428223,1.1843984,4.8576,-8.045858,-4.372268,3.0979369,7.995245,4.7660217,1,1683969680.5179586
1.2754403,1.1289073,1.3447126,4.8576,-8.045858,-4.372268,3.0979369,7.995245,4.7660217,1,1683969680.5231102
1.2754403,1.1289073,1.3447126,5.819408,-7.7133956,-5.071098,3.0979369,7.995245,4.7660217,1,1683969680.5385168
1.2754403,1.1289073,1.3447126,5.819408,-7.7133956,-5.071098,3.089682,8.3281555,4.16315,1,1683969680.5487874
0.99963146,0.9830452,1.2486094,5.819408,-7.7133956,-5.071098,3.089682,8.3281555,4.16315,1,1683969680.564209
0.6884548,0.78407013,0.9621293,5.819408,-7.7133956,-5.071098,3.089682,8.3281555,4.16315,1,1683969680.569365
0.6884548,0.78407013,0.9621293,5.952576,-7.214624,-5.2349625,3.089682,8.3281555,4.16315,1,1683969680.574509
0.6884548,0.78407013,0.9621293,5.952576,-7.214624,-5.2349625,2.969893,8.66509,3.5117064,1,1683969680.5950565
0.23287943,0.5152739,0.6120479,5.952576,-7.214624,-5.2349625,2.969893,8.66509,3.5117064,1,1683969680.6052916
0.23287943,0.5152739,0.6120479,5.670815,-6.3960648,-5.057506,2.969893,8.66509,3.5117064,1,1683969680.6154964
0.23287943,0.5152739,0.6120479,5.670815,-6.3960648,-5.057506,2.7582273,8.967134,2.8668473,1,1683969680.6308565
0.23287943,0.5152739,0.6120479,5.670815,-6.3960648,-5.057506,2.4917557,9.213395,2.26729,1,1683969680.6462672
0.23287943,0.5152739,0.6120479,4.9814534,-5.3146806,-4.058894,2.4917557,9.213395,2.26729,1,1683969680.6513746
-0.16897328,0.34032473,0.52057916,4.9814534,-5.3146806,-4.058894,2.4917557,9.213395,2.26729,1,1683969680.6667914
-0.16897328,0.34032473,0.52057916,-2.3348796,4.883104,3.0459268,2.4917557,9.213395,2.26729,1,1683969680.677033
-0.16897328,0.34032473,0.52057916,-2.3348796,4.883104,3.0459268,3.1133792,8.895212,2.723635,1,1683969680.6924112
-0.3404467,0.26306412,0.38422972,-2.3348796,4.883104,3.0459268,3.1133792,8.895212,2.723635,1,1683969680.7026947
-0.3404467,0.26306412,0.38422972,-2.3348796,4.883104,3.0459268,3.274034,8.6229,3.3410168,1,1683969680.7129529
-0.3404467,0.26306412,0.38422972,-4.466036,7.5339537,4.5544586,3.274034,8.6229,3.3410168,1,1683969680.728276
-0.13677627,0.28727287,0.49039447,-4.466036,7.5339537,4.5544586,3.274034,8.6229,3.3410168,1,1683969680.7333765
0.12567806,0.43100074,0.5496662,-4.466036,7.5339537,4.5544586,3.274034,8.6229,3.3410168,1,1683969680.7590394
0.12567806,0.43100074,0.5496662,-4.466036,7.5339537,4.5544586,3.3638334,8.307762,3.98771,1,1683969680.7641842
0.12567806,0.43100074,0.5496662,-5.980829,9.438785,5.2175527,3.3638334,8.307762,3.98771,1,1683969680.7744722
0.12567806,0.43100074,0.5496662,-7.045109,10.351264,5.2473326,3.3638334,8.307762,3.98771,1,1683969680.7950292
0.12567806,0.43100074,0.5496662,-7.045109,10.351264,5.2473326,3.3642325,7.890307,4.76037,1,1683969680.805299
0.518201,0.6005838,0.3514839,-7.045109,10.351264,5.2473326,3.3642325,7.890307,4.76037,1,1683969680.8155324
0.518201,0.6005838,0.3514839,-7.045109,10.351264,5.2473326,3.3193405,7.6506877,5.165759,1,1683969680.841097
0.518201,0.6005838,0.3514839,-7.4414077,9.540952,4.4816127,3.3193405,7.6506877,5.165759,1,1683969680.8462434
0.7812651,0.77498424,0.22275689,-7.4414077,9.540952,4.4816127,3.3193405,7.6506877,5.165759,1,1683969680.8513424
0.7812651,0.77498424,0.22275689,-6.122702,5.8114667,2.8418977,3.3193405,7.6506877,5.165759,1,1683969680.8718529
0.7812651,0.77498424,0.22275689,-6.122702,5.8114667,2.8418977,3.0540407,6.8956165,6.2737083,1,1683969680.8769562
1.0790873,1.0603667,0.34623972,-6.122702,5.8114667,2.8418977,3.0540407,6.8956165,6.2737083,1,1683969680.8820987
1.0790873,1.0603667,0.34623972,-6.122702,5.8114667,2.8418977,2.9081714,6.478559,6.7680807,1,1683969680.892316
1.0790873,1.0603667,0.34623972,-3.2901201,2.0309741,1.4669929,2.9081714,6.478559,6.7680807,1,1683969680.9025924
1.1881791,1.1312855,0.93163973,-3.2901201,2.0309741,1.4669929,2.9081714,6.478559,6.7680807,1,1683969680.917977
1.1779346,1.0591471,1.278977,-3.2901201,2.0309741,1.4669929,2.9081714,6.478559,6.7680807,1,1683969680.9384427
1.1779346,1.0591471,1.278977,0.73364913,-2.0040963,-0.1731803,2.9081714,6.478559,6.7680807,1,1683969680.9486854
1.1779346,1.0591471,1.278977,-0.82802784,2.8463266,1.6404786,2.9081714,6.478559,6.7680807,1,1683969680.9538286
1.1779346,1.0591471,1.278977,-0.82802784,2.8463266,1.6404786,2.777255,7.1539125,6.1110144,1,1683969680.9589684
1.1779346,1.0591471,1.278977,-1.6502525,2.8110492,0.86376345,2.777255,7.1539125,6.1110144,1,1683969680.9743888
1.1779346,1.0591471,1.278977,-1.6502525,2.8110492,0.86376345,2.5151885,6.785588,6.6231217,1,1683969680.979525
0.7206518,0.78327745,0.28489465,-1.6502525,2.8110492,0.86376345,2.5151885,6.785588,6.6231217,1,1683969680.9949398
0.6801007,0.7655325,0.34666657,-1.6502525,2.8110492,0.86376345,2.5151885,6.785588,6.6231217,1,1683969681.0154853
0.6801007,0.7655325,0.34666657,-1.6502525,2.8110492,0.86376345,2.40545,6.6699615,6.779495,1,1683969681.020585
0.6801007,0.7655325,0.34666657,-1.771051,2.4879014,0.4083634,2.40545,6.6699615,6.779495,1,1683969681.0359094
0.6801007,0.7655325,0.34666657,-1.7736472,2.1806362,0.02687807,2.40545,6.6699615,6.779495,1,1683969681.0410244
0.597108,0.69906515,0.47374716,-1.7736472,2.1806362,0.02687807,2.40545,6.6699615,6.779495,1,1683969681.0615401
0.597108,0.69906515,0.47374716,-1.7736472,2.1806362,0.02687807,2.283913,6.5560184,6.9309793,1,1683969681.0666652
0.597108,0.69906515,0.47374716,-1.6549866,1.8799378,-0.18463401,2.283913,6.5560184,6.9309793,1,1683969681.082022
0.5133226,0.6329638,0.57411885,-1.6549866,1.8799378,-0.18463401,2.283913,6.5560184,6.9309793,1,1683969681.097436
0.5133226,0.6329638,0.57411885,-1.6549866,1.8799378,-0.18463401,2.2202091,6.500527,7.003566,1,1683969681.107711
0.4182561,0.56710625,0.73986024,-1.6549866,1.8799378,-0.18463401,2.2202091,6.500527,7.003566,1,1683969681.1179812
0.4182561,0.56710625,0.73986024,-1.4393512,1.5302174,-0.24510968,2.2202091,6.500527,7.003566,1,1683969681.1281955
0.4182561,0.56710625,0.73986024,-1.4393512,1.5302174,-0.24510968,2.0368514,6.3468337,7.197573,1,1683969681.1333058
0.4182561,0.56710625,0.73986024,-1.4393512,1.5302174,-0.24510968,1.9336963,6.2597394,7.301547,1,1683969681.15899
0.4182561,0.56710625,0.73986024,-1.0905472,1.2038627,-0.25625798,1.9336963,6.2597394,7.301547,1,1683969681.169273
0.3986208,0.55277616,0.9194439,-1.0905472,1.2038627,-0.25625798,1.9336963,6.2597394,7.301547,1,1683969681.1795516
0.3986208,0.55277616,0.9194439,-1.0905472,1.2038627,-0.25625798,1.7984513,6.1610227,7.4191294,1,1683969681.1949697
0.3986208,0.55277616,0.9194439,-0.7275405,1.1846204,-0.2649628,1.7984513,6.1610227,7.4191294,1,1683969681.2001119
0.39880377,0.547349,1.0138396,-0.7275405,1.1846204,-0.2649628,1.7984513,6.1610227,7.4191294,1,1683969681.2104006
0.39032766,0.54667825,0.97847176,-0.7275405,1.1846204,-0.2649628,1.7984513,6.1610227,7.4191294,1,1683969681.2258267
0.39032766,0.54667825,0.97847176,0.13897185,0.45066583,-0.06994407,1.7984513,6.1610227,7.4191294,1,1683969681.2514315
0.39032766,0.54667825,0.97847176,0.13897185,0.45066583,-0.06994407,0.7471951,5.882101,7.8152857,1,1683969681.2565749
0.21757366,0.5643012,0.90285754,0.13897185,0.45066583,-0.06994407,0.7471951,5.882101,7.8152857,1,1683969681.2617185
0.21757366,0.5643012,0.90285754,0.13897185,0.45066583,-0.06994407,0.69930965,5.8958554,7.809351,1,1683969681.287372
0.2172078,0.5603985,0.88980806,0.13897185,0.45066583,-0.06994407,0.69930965,5.8958554,7.809351,1,1683969681.2924716
0.2172078,0.5603985,0.88980806,0.22892176,0.40469822,-0.082619525,0.69930965,5.8958554,7.809351,1,1683969681.2976139
0.2172078,0.5603985,0.88980806,0.22892176,0.40469822,-0.082619525,0.67036796,5.912923,7.7989793,1,1683969681.3232515
0.21367101,0.5573496,0.85297656,0.22892176,0.40469822,-0.082619525,0.67036796,5.912923,7.7989793,1,1683969681.3283606
0.21367101,0.5573496,0.85297656,0.31123585,0.37216964,-0.094225965,0.67036796,5.912923,7.7989793,1,1683969681.3385596
0.21367101,0.5573496,0.85297656,0.31123585,0.37216964,-0.094225965,0.65645903,5.923876,7.7918468,1,1683969681.3487573
0.21367101,0.5573496,0.85297656,0.3556763,0.32696563,-0.11301007,0.65645903,5.923876,7.7918468,1,1683969681.353895
0.2095854,0.5552153,0.8146817,0.3556763,0.32696563,-0.11301007,0.65645903,5.923876,7.7918468,1,1683969681.3641324
0.19574313,0.5618011,0.7739476,0.3556763,0.32696563,-0.11301007,0.65645903,5.923876,7.7918468,1,1683969681.3795025
0.19574313,0.5618011,0.7739476,0.3556763,0.32696563,-0.11301007,0.62139446,5.9622946,7.765374,1,1683969681.4000528
0.19574313,0.5618011,0.7739476,0.38713586,0.2264783,-0.123547494,0.62139446,5.9622946,7.765374,1,1683969681.4103265
0.19427963,0.5651549,0.7748623,0.38713586,0.2264783,-0.123547494,0.62139446,5.9622946,7.765374,1,1683969681.4257305
0.19427963,0.5651549,0.7748623,0.38713586,0.2264783,-0.123547494,0.60439557,5.989465,7.745781,1,1683969681.4359722
0.19427963,0.5651549,0.7748623,0.3753767,0.13423763,-0.1366811,0.60439557,5.989465,7.745781,1,1683969681.4410949
0.19427963,0.5651549,0.7748623,0.32650748,0.11911872,-0.14049901,0.60439557,5.989465,7.745781,1,1683969681.4667177
0.18348631,0.5588741,0.7859605,0.32650748,0.11911872,-0.14049901,0.60439557,5.989465,7.745781,1,1683969681.471855
0.18348631,0.5588741,0.7859605,0.32650748,0.11911872,-0.14049901,0.5848653,6.027528,7.717704,1,1683969681.4769974
0.1803154,0.5517395,0.8111449,0.32650748,0.11911872,-0.14049901,0.5848653,6.027528,7.717704,1,1683969681.4923263
0.1803154,0.5517395,0.8111449,0.29077184,0.15210545,-0.13225232,0.5848653,6.027528,7.717704,1,1683969681.5076993
0.1803154,0.5517395,0.8111449,0.29077184,0.15210545,-0.13225232,0.3388447,6.3694816,7.4532547,1,1683969681.5179312
0.1803154,0.5517395,0.8111449,0.14049901,0.039858956,0.04184427,0.3388447,6.3694816,7.4532547,1,1683969681.5333235
0.1411058,0.57710683,0.76870334,0.14049901,0.039858956,0.04184427,0.3388447,6.3694816,7.4532547,1,1683969681.5384235
