acc_x,acc_y,acc_z,gyr_x,gyr_y,gyr_z,grav_x,grav_y,grav_z,label,timestamp
-0.66089225,0.20013362,0.24074577,2.2812762,-0.50594914,-0.9682214,2.9347882,9.327355,0.7896724,1,1683969731.3632414
-0.66089225,0.20013362,0.24074577,-0.9492846,3.6641223,1.0027353,2.9347882,9.327355,0.7896724,1,1683969731.4095056
-0.66089225,0.20013362,0.24074577,-0.9492846,3.6641223,1.0027353,2.7968097,9.387228,0.54214394,1,1683969731.4145944
-0.35172784,0.39654753,0.13836174,-0.9492846,3.6641223,1.0027353,2.7968097,9.387228,0.54214394,1,1683969731.4247823
-0.35172784,0.39654753,0.13836174,-3.1616857,6.7896147,2.2049181,2.7968097,9.387228,0.54214394,1,1683969731.429865
-0.35172784,0.39654753,0.13836174,-3.1616857,6.7896147,2.2049181,2.844568,9.358504,0.75029075,1,1683969731.4349387
-0.35172784,0.39654753,0.13836174,-3.1616857,6.7896147,2.2049181,2.9556537,9.2744,1.2189019,1,1683969731.4603438
-0.35172784,0.39654753,0.13836174,-4.9179235,8.898016,3.0155363,2.9556537,9.2744,1.2189019,1,1683969731.4705026
-0.17257105,0.5488735,0.11384811,-4.9179235,8.898016,3.0155363,2.9556537,9.2744,1.2189019,1,1683969731.4806702
-0.17257105,0.5488735,0.11384811,-4.9179235,8.898016,3.0155363,3.0728745,9.12296,1.8881613,1,1683969731.4857507
-0.0070126047,0.5891807,0.1621436,-4.9179235,8.898016,3.0155363,3.0728745,9.12296,1.8881613,1,1683969731.4959161
-0.0070126047,0.5891807,0.1621436,-6.2144847,10.058966,3.5870006,3.0728745,9.12296,1.8881613,1,1683969731.5162132
-0.0070126047,0.5891807,0.1621436,-7.0050974,10.485044,3.928169,3.0728745,9.12296,1.8881613,1,1683969731.541623
-0.0070126047,0.5891807,0.1621436,-7.0050974,10.485044,3.928169,3.1526554,8.892055,2.6885393,1,1683969731.5466957
0.120738745,0.6222924,0.23635526,-7.0050974,10.485044,3.928169,3.1526554,8.892055,2.6885393,1,1683969731.5517774
0.22306179,0.6540625,0.37050945,-7.0050974,10.485044,3.928169,3.1526554,8.892055,2.6885393,1,1683969731.5720978
0.22306179,0.6540625,0.37050945,-7.0050974,10.485044,3.928169,3.1464295,8.396709,3.9788673,1,1683969731.5823033
0.22306179,0.6540625,0.37050945,-7.3306885,10.153039,4.1231875,3.1464295,8.396709,3.9788673,1,1683969731.587384
0.40990198,0.7099805,0.54576355,-7.3306885,10.153039,4.1231875,3.1464295,8.396709,3.9788673,1,1683969731.5924716
0.40990198,0.7099805,0.54576355,-6.986313,9.168476,4.0614905,3.1464295,8.396709,3.9788673,1,1683969731.5975506
0.40990198,0.7099805,0.54576355,-6.986313,9.168476,4.0614905,3.0588894,7.9883347,4.8026896,1,1683969731.6127954
0.40990198,0.7099805,0.54576355,-6.2210517,8.004473,3.7493382,3.0588894,7.9883347,4.8026896,1,1683969731.63312
0.56619155,0.7925463,0.6413789,-6.2210517,8.004473,3.7493382,3.0588894,7.9883347,4.8026896,1,1683969731.6432774
0.56619155,0.7925463,0.6413789,-6.2210517,8.004473,3.7493382,2.9216638,7.5524096,5.5372467,1,1683969731.648359
0.7387626,0.90365034,0.5950957,-6.2210517,8.004473,3.7493382,2.9216638,7.5524096,5.5372467,1,1683969731.673779
0.7387626,0.90365034,0.5950957,-4.7757444,5.9612813,3.001181,2.9216638,7.5524096,5.5372467,1,1683969731.683944
0.7387626,0.90365034,0.5950957,-4.7757444,5.9612813,3.001181,2.6753855,6.9406238,6.3957934,1,1683969731.68902
0.7387626,0.90365034,0.5950957,-3.2682817,3.6183076,2.02792,2.6753855,6.9406238,6.3957934,1,1683969731.7144275
0.7387626,0.90365034,0.5950957,-3.2682817,3.6183076,2.02792,2.5406685,6.6236773,6.775547,1,1683969731.7245872
0.95834863,1.0249988,0.42173192,-3.2682817,3.6183076,2.02792,2.5406685,6.6236773,6.775547,1,1683969731.729673
0.95834863,1.0249988,0.42173192,-1.9240729,1.3610078,1.0558805,2.5406685,6.6236773,6.775547,1,1683969731.7449121
0.95834863,1.0249988,0.42173192,-1.9240729,1.3610078,1.0558805,2.500372,6.507678,6.901767,1,1683969731.7550676
1.0753676,1.0931126,0.31428665,-1.9240729,1.3610078,1.0558805,2.500372,6.507678,6.901767,1,1683969731.7601504
1.361116,1.3322119,0.26251534,-1.9240729,1.3610078,1.0558805,2.500372,6.507678,6.901767,1,1683969731.7804718
1.361116,1.3322119,0.26251534,1.1760683,-4.071417,-1.345278,2.500372,6.507678,6.901767,1,1683969731.7855587
1.361116,1.3322119,0.26251534,1.1760683,-4.071417,-1.345278,2.5547335,6.3820205,6.9985175,1,1683969731.7958217
1.361116,1.3322119,0.26251534,3.3458617,-7.4452257,-2.856406,2.5547335,6.3820205,6.9985175,1,1683969731.8060737
1.361116,1.3322119,0.26251534,3.3458617,-7.4452257,-2.856406,2.7565835,6.5092053,6.8020287,1,1683969731.821434
1.3195891,1.3069055,0.60515726,3.3458617,-7.4452257,-2.856406,2.7565835,6.5092053,6.8020287,1,1683969731.826568
1.1311636,1.141713,1.0267673,3.3458617,-7.4452257,-2.856406,2.7565835,6.5092053,6.8020287,1,1683969731.852214
1.1311636,1.141713,1.0267673,3.3458617,-7.4452257,-2.856406,3.1963212,6.989576,6.0963492,1,1683969731.8624697
1.1311636,1.141713,1.0267673,5.5057282,-9.905791,-4.104709,3.1963212,6.989576,6.0963492,1,1683969731.8676007
1.1311636,1.141713,1.0267673,5.5057282,-9.905791,-4.104709,3.3342953,7.200484,5.768155,1,1683969731.8881145
1.0441463,1.0421339,1.1112844,5.5057282,-9.905791,-4.104709,3.3342953,7.200484,5.768155,1,1683969731.9034972
1.0441463,1.0421339,1.1112844,6.304893,-10.41571,-4.5417833,3.3342953,7.200484,5.768155,1,1683969731.9086227
1.0441463,1.0421339,1.1112844,6.9510355,-10.148304,-4.9335003,3.3342953,7.200484,5.768155,1,1683969731.9188895
0.8773073,0.95164096,1.1134186,6.9510355,-10.148304,-4.9335003,3.3342953,7.200484,5.768155,1,1683969731.9291508
0.8773073,0.95164096,1.1134186,6.9510355,-10.148304,-4.9335003,3.5988655,7.874453,4.6127305,1,1683969731.9444866
0.6808324,0.80833983,0.8759048,6.9510355,-10.148304,-4.9335003,3.5988655,7.874453,4.6127305,1,1683969731.9598794
0.6808324,0.80833983,0.8759048,6.9510355,-10.148304,-4.9335003,3.61541,8.298544,3.7814121,1,1683969731.9701355
0.6808324,0.80833983,0.8759048,6.9313354,-9.1935215,-4.9979467,3.61541,8.298544,3.7814121,1,1683969731.9802868
0.6808324,0.80833983,0.8759048,6.5441995,-8.277377,-4.759251,3.61541,8.298544,3.7814121,1,1683969732.0059342
0.44008666,0.7001628,0.72803026,6.5441995,-8.277377,-4.759251,3.61541,8.298544,3.7814121,1,1683969732.0110579
0.44008666,0.7001628,0.72803026,6.5441995,-8.277377,-4.759251,3.5147378,8.66602,2.9635878,1,1683969732.01619
0.03286777,0.60162044,0.6882109,6.5441995,-8.277377,-4.759251,3.5147378,8.66602,2.9635878,1,1683969732.031566
0.03286777,0.60162044,0.6882109,5.6801305,-6.616129,-3.929238,3.5147378,8.66602,2.9635878,1,1683969732.0366566
0.03286777,0.60162044,0.6882109,5.6801305,-6.616129,-3.929238,3.2199767,9.078507,1.8570378,1,1683969732.0468757
0.03286777,0.60162044,0.6882109,4.591416,-4.4973426,-2.757293,3.2199767,9.078507,1.8570378,1,1683969732.0571342
-0.37014353,0.54576355,0.6608312,4.591416,-4.4973426,-2.757293,3.2199767,9.078507,1.8570378,1,1683969732.0827568
-0.37014353,0.54576355,0.6608312,4.591416,-4.4973426,-2.757293,3.1065235,9.176446,1.5422283,1,1683969732.0878897
-0.71784675,0.368863,0.35855752,4.591416,-4.4973426,-2.757293,3.1065235,9.176446,1.5422283,1,1683969732.0981488
-0.71784675,0.368863,0.35855752,4.591416,-4.4973426,-2.757293,2.8220859,9.357449,0.8426838,1,1683969732.1031985
-0.71784675,0.368863,0.35855752,2.2589796,-0.70066243,-0.79412484,2.8220859,9.357449,0.8426838,1,1683969732.1134613
-0.71784675,0.368863,0.35855752,2.2589796,-0.70066243,-0.79412484,2.7457476,9.393816,0.673197,1,1683969732.1492534
-0.71784675,0.368863,0.35855752,-0.5674938,2.7640126,0.8054258,2.7457476,9.393816,0.673197,1,1683969732.1543846
-0.69217455,0.18025441,0.13305654,-0.5674938,2.7640126,0.8054258,2.7457476,9.393816,0.673197,1,1683969732.1595118
-0.69217455,0.18025441,0.13305654,-3.822642,6.9866185,2.433229,2.7457476,9.393816,0.673197,1,1683969732.1851885
-0.69217455,0.18025441,0.13305654,-3.822642,6.9866185,2.433229,2.8266027,9.338,1.0238335,1,1683969732.1903205
-0.41026786,0.26458862,0.1015913,-3.822642,6.9866185,2.433229,2.8266027,9.338,1.0238335,1,1683969732.195442
-0.18427904,0.5769239,-0.0049393126,-3.822642,6.9866185,2.433229,2.8266027,9.338,1.0238335,1,1683969732.2108288
-0.18427904,0.5769239,-0.0049393126,-3.822642,6.9866185,2.433229,2.9477587,9.217768,1.6061133,1,1683969732.2159638
-0.18427904,0.5769239,-0.0049393126,-5.7532816,9.114873,3.2879822,2.9477587,9.217768,1.6061133,1,1683969732.221058
-0.18427904,0.5769239,-0.0049393126,-6.880786,9.9856615,3.748269,2.9477587,9.217768,1.6061133,1,1683969732.2517343
-0.18427904,0.5769239,-0.0049393126,-6.880786,9.9856615,3.748269,3.005736,9.127069,1.9744078,1,1683969732.2568722
-0.07280912,0.605889,0.03286777,-6.880786,9.9856615,3.748269,3.005736,9.127069,1.9744078,1,1683969732.262005
0.08555377,0.582534,0.24598998,-6.880786,9.9856615,3.748269,3.005736,9.127069,1.9744078,1,1683969732.2825189
0.08555377,0.582534,0.24598998,-8.099768,10.587975,4.198477,3.005736,9.127069,1.9744078,1,1683969732.2927794
0.08555377,0.582534,0.24598998,-8.099768,10.587975,4.198477,3.1038654,8.710171,3.2764423,1,1683969732.2979105
0.08555377,0.582534,0.24598998,-8.527068,10.3335495,4.3435574,3.1038654,8.710171,3.2764423,1,1683969732.3235147
0.18092519,0.6066208,0.3902667,-8.527068,10.3335495,4.3435574,3.1038654,8.710171,3.2764423,1,1683969732.328619
0.18092519,0.6066208,0.3902667,-8.527068,10.3335495,4.3435574,3.06932,8.308816,4.2165127,1,1683969732.3337123
0.18092519,0.6066208,0.3902667,-8.28654,9.4563465,4.317443,3.06932,8.308816,4.2165127,1,1683969732.3592849
0.2789187,0.638147,0.57619214,-8.28654,9.4563465,4.317443,3.06932,8.308816,4.2165127,1,1683969732.3695464
0.2789187,0.638147,0.57619214,-8.28654,9.4563465,4.317443,2.952161,7.8280277,5.1227775,1,1683969732.3746862
0.4681371,0.6984554,0.8773683,-8.28654,9.4563465,4.317443,2.952161,7.8280277,5.1227775,1,1683969732.3798094
0.4681371,0.6984554,0.8773683,-7.165755,7.990881,4.051411,2.952161,7.8280277,5.1227775,1,1683969732.395183
0.4681371,0.6984554,0.8773683,-7.165755,7.990881,4.051411,2.6804402,7.036825,6.287642,1,1683969732.400316
0.4681371,0.6984554,0.8773683,-7.165755,7.990881,4.051411,2.4758468,6.5408797,6.8791857,1,1683969732.4259255
0.6638192,0.7780332,0.92913955,-7.165755,7.990881,4.051411,2.4758468,6.5408797,6.8791857,1,1683969732.4310133
0.6638192,0.7780332,0.92913955,-5.8329997,6.5840583,3.5924985,2.4758468,6.5408797,6.8791857,1,1683969732.4411807
0.8851736,0.92023665,0.76974,-5.8329997,6.5840583,3.5924985,2.4758468,6.5408797,6.8791857,1,1683969732.4719002
0.8851736,0.92023665,0.76974,-3.956116,4.248415,2.5517368,2.4758468,6.5408797,6.8791857,1,1683969732.4770296
0.8851736,0.92023665,0.76974,-3.956116,4.248415,2.5517368,2.2910695,6.125287,7.3121796,1,1683969732.4821572
0.8851736,0.92023665,0.76974,-3.956116,4.248415,2.5517368,2.163482,5.821532,7.593761,1,1683969732.497509
1.1709219,1.0989666,0.5026513,-3.956116,4.248415,2.5517368,2.163482,5.821532,7.593761,1,1683969732.5077682
1.1709219,1.0989666,0.5026513,-2.3764186,1.7634152,1.2525792,2.163482,5.821532,7.593761,1,1683969732.518031
1.3653235,1.1923257,0.36410663,-2.3764186,1.7634152,1.2525792,2.163482,5.821532,7.593761,1,1683969732.5384386
1.3653235,1.1923257,0.36410663,-2.3764186,1.7634152,1.2525792,2.134686,5.652409,7.728486,1,1683969732.5435588
1.3653235,1.1923257,0.36410663,-0.59895337,-1.4175128,-0.408058,2.134686,5.652409,7.728486,1,1683969732.5486693
1.3653235,1.1923257,0.36410663,1.4477507,-5.0228395,-2.1601722,2.134686,5.652409,7.728486,1,1683969732.5639753
1.3653235,1.1923257,0.36410663,1.4477507,-5.0228395,-2.1601722,2.2454777,5.6419306,7.7047105,1,1683969732.5742428
1.4141068,1.2367185,0.42045137,1.4477507,-5.0228395,-2.1601722,2.2454777,5.6419306,7.7047105,1,1683969732.5793517
1.3437979,1.1728734,0.82888985,1.4477507,-5.0228395,-2.1601722,2.2454777,5.6419306,7.7047105,1,1683969732.6101174
0.19397473,0.5274088,0.4253907,1.4477507,-5.0228395,-2.1601722,2.2454777,5.6419306,7.7047105,1,1683969732.6305742
0.19397473,0.5274088,0.4253907,1.4477507,-5.0228395,-2.1601722,3.227577,8.311855,4.090466,1,1683969732.640761
0.19397473,0.5274088,0.4253907,-7.956978,9.8042345,4.699539,3.227577,8.311855,4.090466,1,1683969732.6458924
0.19397473,0.5274088,0.4253907,-7.6859064,8.853881,4.7348166,3.227577,8.311855,4.090466,1,1683969732.6561506
0.19397473,0.5274088,0.4253907,-7.6859064,8.853881,4.7348166,3.1116252,7.594773,5.3733916,1,1683969732.661279
0.2828214,0.53100663,0.64820856,-7.6859064,8.853881,4.7348166,3.1116252,7.594773,5.3733916,1,1683969732.6715446
0.474235,0.56728923,0.8724289,-7.6859064,8.853881,4.7348166,3.1116252,7.594773,5.3733916,1,1683969732.70231
0.474235,0.56728923,0.8724289,-7.6859064,8.853881,4.7348166,2.9855022,7.071827,6.1083684,1,1683969732.707436
0.474235,0.56728923,0.8724289,-6.842302,7.6801033,4.603786,2.9855022,7.071827,6.1083684,1,1683969732.7125673
0.474235,0.56728923,0.8724289,-6.842302,7.6801033,4.603786,2.847569,6.5748615,6.7006464,1,1683969732.7330828
0.474235,0.56728923,0.8724289,-5.2629094,5.9444823,4.0367503,2.847569,6.5748615,6.7006464,1,1683969732.738176
0.78376526,0.731811,0.90426004,-5.2629094,5.9444823,4.0367503,2.847569,6.5748615,6.7006464,1,1683969732.7483842
0.78376526,0.731811,0.90426004,-5.2629094,5.9444823,4.0367503,2.6748278,5.980088,7.3020515,1,1683969732.7689047
1.1336638,0.9734714,0.5991813,-5.2629094,5.9444823,4.0367503,2.6748278,5.980088,7.3020515,1,1683969732.7893345
1.1336638,0.9734714,0.5991813,-3.4148893,3.402672,2.7577512,2.6748278,5.980088,7.3020515,1,1683969732.7944655
1.4425842,1.1823251,0.35874045,-3.4148893,3.402672,2.7577512,2.6748278,5.980088,7.3020515,1,1683969732.7995956
1.4425842,1.1823251,0.35874045,-1.6997325,0.3529274,1.1607966,2.6748278,5.980088,7.3020515,1,1683969732.8047264
1.4425842,1.1823251,0.35874045,-1.6997325,0.3529274,1.1607966,2.6468382,5.7394743,7.5025854,1,1683969732.8252404
1.5852145,1.3250773,0.37715617,-1.6997325,0.3529274,1.1607966,2.6468382,5.7394743,7.5025854,1,1683969732.845639
1.5852145,1.3250773,0.37715617,-0.14660765,-2.4277313,-0.30543262,2.6468382,5.7394743,7.5025854,1,1683969732.8507564
1.5852145,1.3250773,0.37715617,-0.14660765,-2.4277313,-0.30543262,2.679817,5.6790037,7.536817,1,1683969732.8558426
1.5852145,1.3250773,0.37715617,2.808453,-7.026172,-2.6100745,2.679817,5.6790037,7.536817,1,1683969732.8917186
1.5852145,1.3250773,0.37715617,6.725168,-10.479699,-4.7904053,2.679817,5.6790037,7.536817,1,1683969732.9122384
1.5852145,1.3250773,0.37715617,6.725168,-10.479699,-4.7904053,3.7761414,6.7563386,6.0273337,1,1683969732.9173665
1.1265291,0.92901766,1.2093389,6.725168,-10.479699,-4.7904053,3.7761414,6.7563386,6.0273337,1,1683969732.9224598
1.0464026,0.88242954,1.1107355,6.725168,-10.479699,-4.7904053,3.7761414,6.7563386,6.0273337,1,1683969732.9378061
1.0464026,0.88242954,1.1107355,6.725168,-10.479699,-4.7904053,4.005653,7.27875,5.2163844,1,1683969732.9480188
1.0464026,0.88242954,1.1107355,7.2984653,-10.403035,-5.147456,4.005653,7.27875,5.2163844,1,1683969732.9633443
1.0464026,0.88242954,1.1107355,7.2984653,-10.403035,-5.147456,4.1087513,7.779754,4.3393188,1,1683969732.9684737
1.0464026,0.88242954,1.1107355,7.2637987,-10.019259,-5.2140403,4.1087513,7.779754,4.3393188,1,1683969732.9736066
0.8881616,0.77931374,0.85297656,7.2637987,-10.019259,-5.2140403,4.1087513,7.779754,4.3393188,1,1683969732.999207
0.6633314,0.6852839,0.78175294,7.2637987,-10.019259,-5.2140403,4.1087513,7.779754,4.3393188,1,1683969733.0248072
0.6633314,0.6852839,0.78175294,6.7367744,-9.161604,-4.8966956,4.1087513,7.779754,4.3393188,1,1683969733.0299385
0.6633314,0.6852839,0.78175294,6.7367744,-9.161604,-4.8966956,4.039219,8.415995,3.0152712,1,1683969733.0350683
0.6633314,0.6852839,0.78175294,5.987701,-7.7466874,-4.184274,4.039219,8.415995,3.0152712,1,1683969733.0452867
0.2426361,0.6286342,0.8733436,5.987701,-7.7466874,-4.184274,4.039219,8.415995,3.0152712,1,1683969733.0503929
0.2426361,0.6286342,0.8733436,5.987701,-7.7466874,-4.184274,3.8815014,8.734515,2.2086964,1,1683969733.0709138
-0.055369087,0.56503296,0.90566254,5.987701,-7.7466874,-4.184274,3.8815014,8.734515,2.2086964,1,1683969733.0913746
-0.055369087,0.56503296,0.90566254,5.987701,-7.7466874,-4.184274,3.7852452,8.858996,1.851,1,1683969733.096505
-0.055369087,0.56503296,0.90566254,5.1735706,-6.0406938,-3.3479998,3.7852452,8.858996,1.851,1,1683969733.1016376
-0.055369087,0.56503296,0.90566254,5.1735706,-6.0406938,-3.3479998,3.5175772,9.094947,1.0699025,1,1683969733.1170268
-0.4438674,0.36136255,0.58052164,5.1735706,-6.0406938,-3.3479998,3.5175772,9.094947,1.0699025,1,1683969733.122155
-0.4438674,0.36136255,0.58052164,2.8761063,-2.154827,-1.536326,3.5175772,9.094947,1.0699025,1,1683969733.142594
-0.4438674,0.36136255,0.58052164,2.8761063,-2.154827,-1.536326,3.4232545,9.1495,0.89671266,1,1683969733.147705
-0.54149497,0.1800105,0.4399647,2.8761063,-2.154827,-1.536326,3.4232545,9.1495,0.89671266,1,1683969733.1630228
-0.54149497,0.1800105,0.4399647,0.08170322,1.5173893,0.022143865,3.4232545,9.1495,0.89671266,1,1683969733.1732562
0.13653237,0.59412,0.7871191,0.08170322,1.5173893,0.022143865,3.4232545,9.1495,0.89671266,1,1683969733.1835132
0.13653237,0.59412,0.7871191,0.08170322,1.5173893,0.022143865,3.651459,8.814126,2.2834542,1,1683969733.1886427
0.13653237,0.59412,0.7871191,5.5223746,-6.966307,-4.0272818,3.651459,8.814126,2.2834542,1,1683969733.1937766
0.13653237,0.59412,0.7871191,4.4075456,-4.7655125,-2.8559477,3.651459,8.814126,2.2834542,1,1683969733.209167
-0.24159946,0.5409462,0.81943804,4.4075456,-4.7655125,-2.8559477,3.651459,8.814126,2.2834542,1,1683969733.2143006
-0.24159946,0.5409462,0.81943804,4.4075456,-4.7655125,-2.8559477,3.4594202,9.024646,1.6805642,1,1683969733.224553
-0.57106996,0.35892338,0.55070287,4.4075456,-4.7655125,-2.8559477,3.4594202,9.024646,1.6805642,1,1683969733.2450376
-0.57106996,0.35892338,0.55070287,2.1094704,-0.95646226,-0.9266826,3.4594202,9.024646,1.6805642,1,1683969733.260301
-0.57106996,0.35892338,0.55070287,2.1094704,-0.95646226,-0.9266826,3.3007786,9.151118,1.2641277,1,1683969733.2654314
-0.59838855,0.17342475,0.52734786,2.1094704,-0.95646226,-0.9266826,3.3007786,9.151118,1.2641277,1,1683969733.2859483
-0.59838855,0.17342475,0.52734786,-0.5206099,2.6546676,0.6721045,3.3007786,9.151118,1.2641277,1,1683969733.2910783
-0.59838855,0.17342475,0.52734786,-0.5206099,2.6546676,0.6721045,3.222835,9.198911,1.1088309,1,1683969733.3013399
-0.59838855,0.17342475,0.52734786,-0.5206099,2.6546676,0.6721045,3.2680802,9.129619,1.4852068,1,1683969733.3064713
-0.59838855,0.17342475,0.52734786,-3.4472654,7.492415,2.3157902,3.2680802,9.129619,1.4852068,1,1683969733.3321357
-0.32038453,0.3123963,0.48496732,-3.4472654,7.492415,2.3157902,3.2680802,9.129619,1.4852068,1,1683969733.3372931
-0.10323773,0.5096029,0.2915414,-3.4472654,7.492415,2.3157902,3.2680802,9.129619,1.4852068,1,1683969733.3578
-0.10323773,0.5096029,0.2915414,-5.317582,10.120968,3.2319353,3.2680802,9.129619,1.4852068,1,1683969733.3629339
-0.10323773,0.5096029,0.2915414,-5.317582,10.120968,3.2319353,3.3339698,8.986344,2.0895915,1,1683969733.3731925
0.08067544,0.5819852,0.35733792,-5.317582,10.120968,3.2319353,3.3339698,8.986344,2.0895915,1,1683969733.3783224
0.08067544,0.5819852,0.35733792,-5.317582,10.120968,3.2319353,3.3628035,8.749841,2.8927417,1,1683969733.3937478
0.08067544,0.5819852,0.35733792,-7.04068,11.877206,4.0054436,3.3628035,8.749841,2.8927417,1,1683969733.3988857
0.21842737,0.62034106,0.40447482,-7.04068,11.877206,4.0054436,3.3628035,8.749841,2.8927417,1,1683969733.4142725
0.21842737,0.62034106,0.40447482,-7.04068,11.877206,4.0054436,3.3107018,8.409934,3.8142295,1,1683969733.4347494
0.21842737,0.62034106,0.40447482,-7.8581705,12.438286,4.381278,3.3107018,8.409934,3.8142295,1,1683969733.445008
0.21842737,0.62034106,0.40447482,-2.3893993,4.8006372,1.294118,3.3107018,8.409934,3.8142295,1,1683969733.4654326
-0.4114874,0.32825086,0.4001453,-2.3893993,4.8006372,1.294118,3.3107018,8.409934,3.8142295,1,1683969733.4705634
-0.4114874,0.32825086,0.4001453,-2.3893993,4.8006372,1.294118,2.9648392,9.164061,1.8616763,1,1683969733.480785
-0.4114874,0.32825086,0.4001453,-4.1308236,7.182248,2.2120957,2.9648392,9.164061,1.8616763,1,1683969733.4859135
-0.22690348,0.49606553,0.2511732,-4.1308236,7.182248,2.2120957,2.9648392,9.164061,1.8616763,1,1683969733.5115638
-0.22690348,0.49606553,0.2511732,-4.1308236,7.182248,2.2120957,2.9669747,9.083408,2.2192085,1,1683969733.5166945
-0.07152857,0.6021083,0.27940655,-4.1308236,7.182248,2.2120957,2.9669747,9.083408,2.2192085,1,1683969733.5320814
-0.07152857,0.6021083,0.27940655,-4.1308236,7.182248,2.2120957,2.9658017,8.824412,3.09352,1,1683969733.5423057
-0.07152857,0.6021083,0.27940655,-5.653405,8.846551,2.940858,2.9658017,8.824412,3.09352,1,1683969733.5474308
-0.07152857,0.6021083,0.27940655,-6.3406286,9.387625,3.2809572,2.9658017,8.824412,3.09352,1,1683969733.562812
0.040124293,0.6150359,0.29599288,-6.3406286,9.387625,3.2809572,2.9658017,8.824412,3.09352,1,1683969733.5730696
0.040124293,0.6150359,0.29599288,-6.3406286,9.387625,3.2809572,2.9162214,8.558407,3.8059745,1,1683969733.5782008
0.09140777,0.6258292,0.29379764,-6.3406286,9.387625,3.2809572,2.9162214,8.558407,3.8059745,1,1683969733.6037989
0.09140777,0.6258292,0.29379764,-6.568023,9.321345,3.4300084,2.9162214,8.558407,3.8059745,1,1683969733.6140625
0.09140777,0.6258292,0.29379764,-6.568023,9.321345,3.4300084,2.8707175,8.400129,4.1752763,1,1683969733.619203
0.16153382,0.6478427,0.31209138,-6.568023,9.321345,3.4300084,2.8707175,8.400129,4.1752763,1,1683969733.6397166
0.16153382,0.6478427,0.31209138,-6.402326,8.465065,3.5411859,2.8707175,8.400129,4.1752763,1,1683969733.6448529
0.16153382,0.6478427,0.31209138,-6.402326,8.465065,3.5411859,2.7429056,8.044432,4.898952,1,1683969733.649985
0.16153382,0.6478427,0.31209138,-6.402326,8.465065,3.5411859,2.5865445,7.65467,5.563446,1,1683969733.670475
0.36252114,0.72851807,0.3740462,-6.402326,8.465065,3.5411859,2.5865445,7.65467,5.563446,1,1683969733.680746
0.36252114,0.72851807,0.3740462,-5.8615575,7.274336,3.4437528,2.5865445,7.65467,5.563446,1,1683969733.6910064
0.71802974,0.91828525,0.27971146,-5.8615575,7.274336,3.4437528,2.5865445,7.65467,5.563446,1,1683969733.7115366
0.71802974,0.91828525,0.27971146,-5.8615575,7.274336,3.4437528,2.3566554,7.07593,6.3728714,1,1683969733.7166631
0.71802974,0.91828525,0.27971146,0.6243043,-3.6404514,-0.8405506,2.3566554,7.07593,6.3728714,1,1683969733.7320538
0.71802974,0.91828525,0.27971146,0.6243043,-3.6404514,-0.8405506,2.2569885,6.5584917,6.937456,1,1683969733.7371862
1.2776355,1.2064728,0.45264837,0.6243043,-3.6404514,-0.8405506,2.2569885,6.5584917,6.937456,1,1683969733.7474353
1.2776355,1.2064728,0.45264837,2.8524354,-6.686073,-2.3846653,2.2569885,6.5584917,6.937456,1,1683969733.7833014
1.2408651,1.1824471,0.7546782,2.8524354,-6.686073,-2.3846653,2.2569885,6.5584917,6.937456,1,1683969733.7884307
1.2408651,1.1824471,0.7546782,2.8524354,-6.686073,-2.3846653,2.4552753,6.631808,6.799034,1,1683969733.7935164
1.2408651,1.1824471,0.7546782,4.336227,-8.205295,-3.2777503,2.4552753,6.631808,6.799034,1,1683969733.814038
1.2408651,1.1824471,0.7546782,4.336227,-8.205295,-3.2777503,2.8483415,6.984052,6.2726455,1,1683969733.8243294
1.1830568,1.0789044,1.027255,4.336227,-8.205295,-3.2777503,2.8483415,6.984052,6.2726455,1,1683969733.8294594
1.1830568,1.0789044,1.027255,5.336977,-8.939096,-3.9248092,2.8483415,6.984052,6.2726455,1,1683969733.8345969
1.1479329,1.0369507,1.0828071,5.336977,-8.939096,-3.9248092,2.8483415,6.984052,6.2726455,1,1683969733.8397267
1.1479329,1.0369507,1.0828071,5.336977,-8.939096,-3.9248092,3.0920131,7.3315473,5.7379413,1,1683969733.8499837
1.068538,0.99024075,1.0708551,5.336977,-8.939096,-3.9248092,3.0920131,7.3315473,5.7379413,1,1683969733.8859074
1.068538,0.99024075,1.0708551,5.958685,-8.946121,-4.450764,3.0920131,7.3315473,5.7379413,1,1683969733.8910382
1.068538,0.99024075,1.0708551,5.958685,-8.946121,-4.450764,3.2633967,7.7178507,5.101091,1,1683969733.9012969
0.97908145,0.92913955,0.98091084,5.958685,-8.946121,-4.450764,3.2633967,7.7178507,5.101091,1,1683969733.9115477
0.97908145,0.92913955,0.98091084,5.958685,-8.946121,-4.450764,3.3339193,8.104765,4.408388,1,1683969733.9269476
0.97908145,0.92913955,0.98091084,6.0515366,-8.636718,-4.632344,3.3339193,8.104765,4.408388,1,1683969733.9320774
0.97908145,0.92913955,0.98091084,6.0515366,-8.636718,-4.632344,3.3011696,8.461258,3.7074916,1,1683969733.9422975
0.71132195,0.8122425,0.85328156,6.0515366,-8.636718,-4.632344,3.3011696,8.461258,3.7074916,1,1683969733.9628105
0.71132195,0.8122425,0.85328156,5.8136044,-7.7914333,-4.604702,3.3011696,8.461258,3.7074916,1,1683969733.9730527
0.71132195,0.8122425,0.85328156,5.162728,-6.506784,-4.116926,3.3011696,8.461258,3.7074916,1,1683969733.9781818
0.3890471,0.73638445,0.7485193,5.162728,-6.506784,-4.116926,3.3011696,8.461258,3.7074916,1,1683969733.9935348
0.3890471,0.73638445,0.7485193,5.162728,-6.506784,-4.116926,3.103855,8.897228,2.727917,1,1683969733.9986644
0.25245374,0.6388177,0.75571483,5.162728,-6.506784,-4.116926,3.103855,8.897228,2.727917,1,1683969734.003798
0.25245374,0.6388177,0.75571483,6.377586,-6.679353,-4.516585,3.103855,8.897228,2.727917,1,1683969734.0089324
0.25245374,0.6388177,0.75571483,6.377586,-6.679353,-4.516585,3.1708362,8.905573,2.6215787,1,1683969734.0191867
0.25245374,0.6388177,0.75571483,5.654016,-5.2584805,-3.6247218,3.1708362,8.905573,2.6215787,1,1683969734.049965
0.25245374,0.6388177,0.75571483,5.654016,-5.2584805,-3.6247218,2.9393842,9.156511,1.9376446,1,1683969734.055105
-0.16433886,0.5594838,0.6881499,5.654016,-5.2584805,-3.6247218,2.9393842,9.156511,1.9376446,1,1683969734.0602343
-0.57253337,0.43539125,0.42801276,5.654016,-5.2584805,-3.6247218,2.9393842,9.156511,1.9376446,1,1683969734.075631
-0.57253337,0.43539125,0.42801276,5.654016,-5.2584805,-3.6247218,2.6129763,9.388322,1.1260024,1,1683969734.080745
-0.57253337,0.43539125,0.42801276,4.0419426,-2.5964828,-1.894904,2.6129763,9.388322,1.1260024,1,1683969734.1012716
-0.70558995,0.304347,0.19708468,4.0419426,-2.5964828,-1.894904,2.6129763,9.388322,1.1260024,1,1683969734.1217837
-0.70558995,0.304347,0.19708468,4.0419426,-2.5964828,-1.894904,2.4879053,9.454826,0.8078993,1,1683969734.1269145
-0.70558995,0.304347,0.19708468,1.8764253,0.005192355,-0.34956762,2.4879053,9.454826,0.8078993,1,1683969734.1320446
-0.5998521,0.24452646,0.28648013,1.8764253,0.005192355,-0.34956762,2.4879053,9.454826,0.8078993,1,1683969734.1576974
-0.5998521,0.24452646,0.28648013,1.8764253,0.005192355,-0.34956762,2.470172,9.464004,0.75300854,1,1683969734.16283
-0.5998521,0.24452646,0.28648013,-0.59437186,3.192229,1.1009319,2.470172,9.464004,0.75300854,1,1683969734.1679611
-0.5998521,0.24452646,0.28648013,-2.724459,6.341392,2.2498167,2.470172,9.464004,0.75300854,1,1683969734.18844
-0.5998521,0.24452646,0.28648013,-2.724459,6.341392,2.2498167,2.5441277,9.423842,0.9771013,1,1683969734.1986618
-0.3638627,0.39233997,0.1911087,-2.724459,6.341392,2.2498167,2.5441277,9.423842,0.9771013,1,1683969734.2089205
-0.3638627,0.39233997,0.1911087,-2.724459,6.341392,2.2498167,2.6661901,9.33148,1.4321493,1,1683969734.2294533
-0.15439926,0.5411291,0.10232304,-2.724459,6.341392,2.2498167,2.6661901,9.33148,1.4321493,1,1683969734.2397203
-0.15439926,0.5411291,0.10232304,-4.8397326,8.859074,3.245527,2.6661901,9.33148,1.4321493,1,1683969734.244859
-0.15439926,0.5411291,0.10232304,-6.0891047,9.919536,3.790877,2.6661901,9.33148,1.4321493,1,1683969734.26539
-0.15439926,0.5411291,0.10232304,-6.0891047,9.919536,3.790877,2.789424,9.174241,2.0708752,1,1683969734.2756495
-0.15439926,0.5411291,0.10232304,6.304129,-6.934542,-4.65968,2.789424,9.174241,2.0708752,1,1683969734.2807822
-0.15287478,0.45673394,0.2826994,6.304129,-6.934542,-4.65968,2.789424,9.174241,2.0708752,1,1683969734.296174
-0.15287478,0.45673394,0.2826994,5.207779,-5.8329997,-3.642895,2.789424,9.174241,2.0708752,1,1683969734.3013048
-0.15287478,0.45673394,0.2826994,5.207779,-5.8329997,-3.642895,2.64383,9.364802,1.2436864,1,1683969734.306439
-0.15287478,0.45673394,0.2826994,5.207779,-5.8329997,-3.642895,2.2322567,9.543542,0.4170784,1,1683969734.3320673
-0.15287478,0.45673394,0.2826994,4.1662536,-4.1928263,-2.5245533,2.2322567,9.543542,0.4170784,1,1683969734.337194
-0.42100018,0.47435695,0.39776713,4.1662536,-4.1928263,-2.5245533,2.2322567,9.543542,0.4170784,1,1683969734.3423336
-0.42100018,0.47435695,0.39776713,2.787531,-1.7427986,-1.1679744,2.2322567,9.543542,0.4170784,1,1683969734.3781784
-0.6325979,0.41173133,0.37008256,2.787531,-1.7427986,-1.1679744,2.2322567,9.543542,0.4170784,1,1683969734.38327
-0.6325979,0.41173133,0.37008256,2.787531,-1.7427986,-1.1679744,2.0393577,9.595601,0.040251065,1,1683969734.3884177
-0.63735425,0.29056573,0.098725274,2.787531,-1.7427986,-1.1679744,2.0393577,9.595601,0.040251065,1,1683969734.4038124
-0.63735425,0.29056573,0.098725274,0.31047225,1.717753,0.5580254,2.0393577,9.595601,0.040251065,1,1683969734.4140718
-0.63735425,0.29056573,0.098725274,0.31047225,1.717753,0.5580254,1.9558767,9.6118145,-0.15380517,1,1683969734.4192023
-0.49832174,0.31331098,-0.00219525,0.31047225,1.717753,0.5580254,1.9558767,9.6118145,-0.15380517,1,1683969734.4397206
-0.49832174,0.31331098,-0.00219525,-1.2739595,3.6769507,1.4485142,1.9558767,9.6118145,-0.15380517,1,1683969734.4448507
-0.49832174,0.31331098,-0.00219525,-1.2739595,3.6769507,1.4485142,1.9913337,9.604932,-0.12662965,1,1683969734.4602208
-0.25635642,0.5377143,-0.07841921,-1.2739595,3.6769507,1.4485142,1.9913337,9.604932,-0.12662965,1,1683969734.4704802
-0.25635642,0.5377143,-0.07841921,-1.2739595,3.6769507,1.4485142,2.125967,9.576164,0.1161298,1,1683969734.4756176
-0.25635642,0.5377143,-0.07841921,-3.3098207,6.081469,2.5575402,2.125967,9.576164,0.1161298,1,1683969734.4807494
-0.25635642,0.5377143,-0.07841921,-4.69679,7.370089,3.3035593,2.125967,9.576164,0.1161298,1,1683969734.5115242
-0.25635642,0.5377143,-0.07841921,-4.69679,7.370089,3.3035593,2.4269612,9.472376,0.78743464,1,1683969734.5166557
-0.059942525,0.6169872,-0.10555494,-4.69679,7.370089,3.3035593,2.4269612,9.472376,0.78743464,1,1683969734.5320158
0.14397182,0.6515014,-0.08512692,-4.69679,7.370089,3.3035593,2.4269612,9.472376,0.78743464,1,1683969734.5422747
1.1581774,1.1436642,0.4434405,-4.69679,7.370089,3.3035593,2.4269612,9.472376,0.78743464,1,1683969734.5780187
1.1581774,1.1436642,0.4434405,-4.69679,7.370089,3.3035593,2.8384714,7.5891967,5.530215,1,1683969734.583141
1.1581774,1.1436642,0.4434405,-6.2619796,1.353372,0.5554292,2.8384714,7.5891967,5.530215,1,1683969734.588275
1.080246,1.2411699,1.3671529,-6.2619796,1.353372,0.5554292,2.8384714,7.5891967,5.530215,1,1683969734.5985417
1.080246,1.2411699,1.3671529,-6.2619796,1.353372,0.5554292,2.8541377,7.3239217,5.869428,1,1683969734.6087995
1.080246,1.2411699,1.3671529,-2.5732698,-2.3203716,-0.66737026,2.8541377,7.3239217,5.869428,1,1683969734.619063
1.080246,1.2411699,1.3671529,1.7357736,-5.009553,-1.8512272,2.8541377,7.3239217,5.869428,1,1683969734.6497648
1.080246,1.2411699,1.3671529,1.7357736,-5.009553,-1.8512272,2.9618921,7.275525,5.8762255,1,1683969734.6548555
1.0242671,1.1722026,1.8105325,1.7357736,-5.009553,-1.8512272,2.9618921,7.275525,5.8762255,1,1683969734.6599874
1.0242671,1.1722026,1.8105325,3.586848,-5.639355,-2.4269676,2.9618921,7.275525,5.8762255,1,1683969734.670207
1.0242671,1.1722026,1.8105325,3.586848,-5.639355,-2.4269676,3.1007557,7.422681,5.6147327,1,1683969734.6753006
0.9573119,1.0891489,1.7735791,3.586848,-5.639355,-2.4269676,3.1007557,7.422681,5.6147327,1,1683969734.6958182
0.75589776,0.9212123,1.4392303,3.586848,-5.639355,-2.4269676,3.1007557,7.422681,5.6147327,1,1683969734.7162569
0.75589776,0.9212123,1.4392303,5.440366,-5.48389,-3.0819678,3.1007557,7.422681,5.6147327,1,1683969734.7213824
0.75589776,0.9212123,1.4392303,5.440366,-5.48389,-3.0819678,3.201025,7.695862,5.1733217,1,1683969734.7367713
0.56503296,0.7007726,0.90602845,5.440366,-5.48389,-3.0819678,3.201025,7.695862,5.1733217,1,1683969734.741904
0.56503296,0.7007726,0.90602845,6.0881886,-4.886922,-3.3215797,3.201025,7.695862,5.1733217,1,1683969734.7521632
0.56503296,0.7007726,0.90602845,6.0881886,-4.886922,-3.3215797,3.2244864,8.023686,4.6324143,1,1683969734.7624197
0.28849244,0.5026513,0.33642206,6.0881886,-4.886922,-3.3215797,3.2244864,8.023686,4.6324143,1,1683969734.7880301
0.28849244,0.5026513,0.33642206,5.892101,-4.621501,-3.200781,3.2244864,8.023686,4.6324143,1,1683969734.7931232
0.28849244,0.5026513,0.33642206,5.892101,-4.621501,-3.200781,3.1381156,8.503589,3.7519765,1,1683969734.8033245
0.13384928,0.44155017,0.05390558,5.892101,-4.621501,-3.200781,3.1381156,8.503589,3.7519765,1,1683969734.8238447
0.13384928,0.44155017,0.05390558,5.892101,-4.621501,-3.200781,3.0423386,8.768973,3.1757522,1,1683969734.8289797
-0.18958424,0.58844894,0.09909115,5.892101,-4.621501,-3.200781,3.0423386,8.768973,3.1757522,1,1683969734.8392146
-0.18958424,0.58844894,0.09909115,2.5488353,-1.5567901,-0.25045475,3.0423386,8.768973,3.1757522,1,1683969734.8546014
-0.18958424,0.58844894,0.09909115,1.3671165,0.29245174,0.6221663,3.0423386,8.768973,3.1757522,1,1683969734.8853405
-0.20306063,0.6027791,0.18805976,1.3671165,0.29245174,0.6221663,3.0423386,8.768973,3.1757522,1,1683969734.89047
-0.20306063,0.6027791,0.18805976,1.3671165,0.29245174,0.6221663,2.297245,9.532907,-0.2872176,1,1683969734.8956065
-0.074272625,0.5657647,0.039270584,1.3671165,0.29245174,0.6221663,2.297245,9.532907,-0.2872176,1,1683969734.9110048
-0.074272625,0.5657647,0.039270584,-0.50823987,3.1523702,1.7116444,2.297245,9.532907,-0.2872176,1,1683969734.9212644
-0.074272625,0.5657647,0.039270584,-0.50823987,3.1523702,1.7116444,2.3689973,9.513793,-0.33423856,1,1683969734.9314737
-0.074272625,0.5657647,0.039270584,-2.7490463,5.773898,2.5292876,2.3689973,9.513793,-0.33423856,1,1683969734.9417398
0.13610551,0.59832764,-0.18135203,-2.7490463,5.773898,2.5292876,2.3689973,9.513793,-0.33423856,1,1683969734.9468696
0.13610551,0.59832764,-0.18135203,-2.7490463,5.773898,2.5292876,2.6232443,9.452566,-0.060759004,1,1683969734.967346
0.13610551,0.59832764,-0.18135203,-4.012621,7.021285,2.8735101,2.6232443,9.452566,-0.060759004,1,1683969734.9724765
0.27647954,0.6524771,-0.275138,-4.012621,7.021285,2.8735101,2.6232443,9.452566,-0.060759004,1,1683969734.9827402
0.27647954,0.6524771,-0.275138,-4.012621,7.021285,2.8735101,2.7328746,9.420739,0.13110979,1,1683969734.9929605
0.27647954,0.6524771,-0.275138,-5.415168,8.201171,3.1795535,2.7328746,9.420739,0.13110979,1,1683969735.0083156
0.27647954,0.6524771,-0.275138,-5.415168,8.201171,3.1795535,2.9572666,9.330555,0.65684056,1,1683969735.0236945
0.3477642,0.75882477,-0.24013597,-5.415168,8.201171,3.1795535,2.9572666,9.330555,0.65684056,1,1683969735.0339463
0.3477642,0.75882477,-0.24013597,-6.6914177,8.889311,3.3739614,2.9572666,9.330555,0.65684056,1,1683969735.0441966
0.4078287,0.78772885,-0.18562058,-6.6914177,8.889311,3.3739614,2.9572666,9.330555,0.65684056,1,1683969735.0595863
0.4078287,0.78772885,-0.18562058,-6.6914177,8.889311,3.3739614,3.2339308,9.099769,1.7239616,1,1683969735.0749686
0.4078287,0.78772885,-0.18562058,-7.3488617,8.779814,3.3719761,3.2339308,9.099769,1.7239616,1,1683969735.0852282
0.46612477,0.8238286,-0.044453815,-7.3488617,8.779814,3.3719761,3.2339308,9.099769,1.7239616,1,1683969735.0903647
0.46612477,0.8238286,-0.044453815,-7.3488617,8.779814,3.3719761,3.342568,8.865143,2.5441325,1,1683969735.1108792
-0.37361938,0.5628377,-0.0123177925,-7.3488617,8.779814,3.3719761,3.342568,8.865143,2.5441325,1,1683969735.126276
-0.37361938,0.5628377,-0.0123177925,-7.3488617,8.779814,3.3719761,1.9065106,9.617153,0.3342374,1,1683969735.1467543
-0.37361938,0.5628377,-0.0123177925,-2.8118126,4.4489317,1.0409144,1.9065106,9.617153,0.3342374,1,1683969735.1518855
-0.37361938,0.5628377,-0.0123177925,-4.1442623,5.9609756,2.0007365,1.9065106,9.617153,0.3342374,1,1683969735.1570253
-0.36599696,0.5409462,-0.04317325,-4.1442623,5.9609756,2.0007365,1.9065106,9.617153,0.3342374,1,1683969735.1775103
-0.36599696,0.5409462,-0.04317325,-4.1442623,5.9609756,2.0007365,1.9794428,9.582922,0.69679576,1,1683969735.1877327
-0.30507877,0.51673746,0.03079448,-4.1442623,5.9609756,2.0007365,1.9794428,9.582922,0.69679576,1,1683969735.208252
-0.30507877,0.51673746,0.03079448,-5.148372,6.8844514,2.793334,1.9794428,9.582922,0.69679576,1,1683969735.21338
-0.30507877,0.51673746,0.03079448,-5.148372,6.8844514,2.793334,2.1502228,9.461978,1.4434859,1,1683969735.21851
-0.30507877,0.51673746,0.03079448,-5.622862,7.1465125,3.2554536,2.1502228,9.461978,1.4434859,1,1683969735.2389908
-0.30507877,0.51673746,0.03079448,-5.622862,7.1465125,3.2554536,2.2132483,9.398427,1.7341404,1,1683969735.24925
-0.20123126,0.5349702,0.047380816,-5.622862,7.1465125,3.2554536,2.2132483,9.398427,1.7341404,1,1683969735.2543802
-0.20123126,0.5349702,0.047380816,-5.742286,6.7364693,3.4811683,2.2132483,9.398427,1.7341404,1,1683969735.2697704
-0.20123126,0.5349702,0.047380816,-5.742286,6.7364693,3.4811683,2.3969505,9.133553,2.6587524,1,1683969735.285156
-0.0024391667,0.61015755,-0.033538543,-5.742286,6.7364693,3.4811683,2.3969505,9.133553,2.6587524,1,1683969735.2902837
0.38862023,0.77248406,-0.11354321,-5.742286,6.7364693,3.4811683,2.3969505,9.133553,2.6587524,1,1683969735.305659
0.38862023,0.77248406,-0.11354321,-5.3178873,5.246111,3.2797356,2.3969505,9.133553,2.6587524,1,1683969735.3107939
0.38862023,0.77248406,-0.11354321,-5.3178873,5.246111,3.2797356,2.5095887,8.907525,3.254852,1,1683969735.326111
0.38862023,0.77248406,-0.11354321,-5.3178873,5.246111,3.2797356,2.61284,8.668452,3.7771816,1,1683969735.3363333
0.85041547,0.9859112,-0.18842563,-5.3178873,5.246111,3.2797356,2.61284,8.668452,3.7771816,1,1683969735.3465476
0.85041547,0.9859112,-0.18842563,-4.478406,3.2523992,2.541352,2.61284,8.668452,3.7771816,1,1683969735.3619366
0.85041547,0.9859112,-0.18842563,-2.499355,-0.61529404,0.6899723,2.61284,8.668452,3.7771816,1,1683969735.3824012
0.85041547,0.9859112,-0.18842563,-2.499355,-0.61529404,0.6899723,2.7500436,8.375871,4.303274,1,1683969735.3875237
0.33593425,0.72254217,0.23397705,-2.499355,-0.61529404,0.6899723,2.7500436,8.375871,4.303274,1,1683969735.4131727
0.33593425,0.72254217,0.23397705,-5.0352097,4.489554,3.5715764,2.7500436,8.375871,4.303274,1,1683969735.4183025
0.33593425,0.72254217,0.23397705,-5.0352097,4.489554,3.5715764,2.5655932,8.939936,3.1195183,1,1683969735.428553
0.33593425,0.72254217,0.23397705,-3.9371793,2.7279716,2.9897273,2.5655932,8.939936,3.1195183,1,1683969735.454203
0.793278,0.9242613,0.16202165,-3.9371793,2.7279716,2.9897273,2.5655932,8.939936,3.1195183,1,1683969735.4644258
0.793278,0.9242613,0.16202165,-3.9371793,2.7279716,2.9897273,2.7216697,8.703962,3.6152015,1,1683969735.469561
0.793278,0.9242613,0.16202165,-3.9371793,2.7279716,2.9897273,2.8731494,8.499515,3.9672887,1,1683969735.4900987
1.2331817,1.1580554,0.1261659,-3.9371793,2.7279716,2.9897273,2.8731494,8.499515,3.9672887,1,1683969735.4951665
1.2331817,1.1580554,0.1261659,-2.840676,0.9089675,2.1690297,2.8731494,8.499515,3.9672887,1,1683969735.5105693
1.2331817,1.1580554,0.1261659,-0.33765575,-2.9003882,0.030085113,2.8731494,8.499515,3.9672887,1,1683969735.5156996
1.2331817,1.1580554,0.1261659,-0.33765575,-2.9003882,0.030085113,3.015211,8.373451,4.1267323,1,1683969735.531094
1.8226063,1.6020447,0.37922946,-0.33765575,-2.9003882,0.030085113,3.015211,8.373451,4.1267323,1,1683969735.5413613
1.873402,1.7449188,0.96749544,-0.33765575,-2.9003882,0.030085113,3.015211,8.373451,4.1267323,1,1683969735.5567517
1.873402,1.7449188,0.96749544,2.6708555,-6.337269,-2.2982278,3.015211,8.373451,4.1267323,1,1683969735.577217
1.873402,1.7449188,0.96749544,2.6708555,-6.337269,-2.2982278,3.1759977,8.423226,3.8985143,1,1683969735.582311
1.873402,1.7449188,0.96749544,5.0662107,-7.824115,-3.974442,3.1759977,8.423226,3.8985143,1,1683969735.5874052
1.873402,1.7449188,0.96749544,5.0662107,-7.824115,-3.974442,3.197767,8.612816,3.4394464,1,1683969735.6079314
1.2570856,1.1809226,1.3130645,5.0662107,-7.824115,-3.974442,3.197767,8.612816,3.4394464,1,1683969735.6284046
1.2570856,1.1809226,1.3130645,6.1898975,-7.8650427,-4.7218356,3.197767,8.612816,3.4394464,1,1683969735.6386275
1.2570856,1.1809226,1.3130645,6.1898975,-7.8650427,-4.7218356,3.1083064,8.868844,2.813924,1,1683969735.6488807
1.2570856,1.1809226,1.3130645,6.845967,-6.9493556,-4.828584,3.1083064,8.868844,2.813924,1,1683969735.669362
1.2570856,1.1809226,1.3130645,6.845967,-6.9493556,-4.828584,2.7664356,9.250217,1.736785,1,1683969735.6744545
1.2570856,1.1809226,1.3130645,4.319428,-2.8738155,-3.0094275,2.7664356,9.250217,1.736785,1,1683969735.679543
-0.021525647,0.725896,0.23623328,4.319428,-2.8738155,-3.0094275,2.7664356,9.250217,1.736785,1,1683969735.6898057
-0.021525647,0.725896,0.23623328,4.319428,-2.8738155,-3.0094275,1.3493865,9.613713,1.4113075,1,1683969735.694931
-0.021525647,0.725896,0.23623328,3.9892554,-2.5492933,-2.5725062,1.3493865,9.613713,1.4113075,1,1683969735.7154455
-0.14409378,0.68504,0.018232772,3.9892554,-2.5492933,-2.5725062,1.3493865,9.613713,1.4113075,1,1683969735.7205777
-0.14409378,0.68504,0.018232772,3.9892554,-2.5492933,-2.5725062,1.1146331,9.694405,1.0060977,1,1683969735.7410982
-0.14409378,0.68504,0.018232772,3.0923526,-1.6986635,-1.7873917,1.1146331,9.694405,1.0060977,1,1683969735.7564437
-0.40563342,0.6685146,-0.058296088,3.0923526,-1.6986635,-1.7873917,1.1146331,9.694405,1.0060977,1,1683969735.761575
-0.40563342,0.6685146,-0.058296088,3.0923526,-1.6986635,-1.7873917,0.8062387,9.765378,0.4727702,1,1683969735.7718503
-0.40563342,0.6685146,-0.058296088,3.0923526,-1.6986635,-1.7873917,0.72498614,9.777509,0.33296913,1,1683969735.7871997
-0.588388,0.61223084,-0.091651686,3.0923526,-1.6986635,-1.7873917,0.72498614,9.777509,0.33296913,1,1683969735.7923303
-0.588388,0.61223084,-0.091651686,2.2809708,-0.7312057,-1.0855075,0.72498614,9.777509,0.33296913,1,1683969735.7974212
-0.588388,0.61223084,-0.091651686,0.34605515,1.6378825,0.45249844,0.72498614,9.777509,0.33296913,1,1683969735.8230603
-0.588388,0.61223084,-0.091651686,0.34605515,1.6378825,0.45249844,0.60378015,9.791002,0.08857597,1,1683969735.8384469
-0.85712314,0.46728337,-0.21196358,0.34605515,1.6378825,0.45249844,0.60378015,9.791002,0.08857597,1,1683969735.848699
-0.85712314,0.46728337,-0.21196358,0.34605515,1.6378825,0.45249844,0.6607131,9.78693,0.12480122,1,1683969735.8743486
-0.85712314,0.46728337,-0.21196358,-2.2666154,4.3780713,2.2032382,0.6607131,9.78693,0.12480122,1,1683969735.8794763
-0.91682184,0.28733385,-0.39386442,-2.2666154,4.3780713,2.2032382,0.6607131,9.78693,0.12480122,1,1683969735.8897579
-0.91682184,0.28733385,-0.39386442,-2.2666154,4.3780713,2.2032382,0.8334939,9.767723,0.36464876,1,1683969735.9000432
-0.91682184,0.28733385,-0.39386442,-4.425566,6.3723936,3.5037704,0.8334939,9.767723,0.36464876,1,1683969735.9051936
-0.79108274,0.257576,-0.41490227,-4.425566,6.3723936,3.5037704,0.8334939,9.767723,0.36464876,1,1683969735.9154096
-0.79108274,0.257576,-0.41490227,-6.6596527,7.956978,4.702288,0.8334939,9.767723,0.36464876,1,1683969735.9459243
-0.4323423,0.34349567,-0.46825904,-6.6596527,7.956978,4.702288,0.8334939,9.767723,0.36464876,1,1683969735.9510424
-0.4323423,0.34349567,-0.46825904,-6.6596527,7.956978,4.702288,2.4980273,8.683554,3.8199325,1,1683969735.9664307
-0.4323423,0.34349567,-0.46825904,-5.3565245,4.0721803,2.6519186,2.4980273,8.683554,3.8199325,1,1683969735.9817734
0.6954674,0.90060127,0.24141651,-5.3565245,4.0721803,2.6519186,2.4980273,8.683554,3.8199325,1,1683969735.9919908
0.9386523,1.1021374,0.4844185,-5.3565245,4.0721803,2.6519186,2.4980273,8.683554,3.8199325,1,1683969736.0022113
0.9386523,1.1021374,0.4844185,-5.3565245,4.0721803,2.6519186,2.5925584,8.31392,4.5159135,1,1683969736.01748
0.9386523,1.1021374,0.4844185,-4.007887,1.9081903,1.6549866,2.5925584,8.31392,4.5159135,1,1683969736.0226018
0.9386523,1.1021374,0.4844185,-2.7937922,0.37782016,0.9494373,2.5925584,8.31392,4.5159135,1,1683969736.048182
0.9386523,1.1021374,0.4844185,-2.7937922,0.37782016,0.9494373,2.6206682,8.213957,4.67965,1,1683969736.0584426
1.0805509,1.182386,0.71693206,-2.7937922,0.37782016,0.9494373,2.6206682,8.213957,4.67965,1,1683969736.063566
1.0805509,1.182386,0.71693206,-0.38148534,-1.9877555,-0.36743546,2.6206682,8.213957,4.67965,1,1683969736.08407
1.0805509,1.182386,0.71693206,-0.38148534,-1.9877555,-0.36743546,2.721799,8.048107,4.904682,1,1683969736.089206
1.3341023,1.3412977,1.0724406,-0.38148534,-1.9877555,-0.36743546,2.721799,8.048107,4.904682,1,1683969736.0943294
1.4152045,1.3775194,1.2278156,-0.38148534,-1.9877555,-0.36743546,2.721799,8.048107,4.904682,1,1683969736.1096148
1.4152045,1.3775194,1.2278156,-0.38148534,-1.9877555,-0.36743546,2.7847812,8.075836,4.8230667,1,1683969736.1300268
1.4152045,1.3775194,1.2278156,1.9269744,-3.6981783,-1.8845193,2.7847812,8.075836,4.8230667,1,1683969736.135163
1.4152045,1.3775194,1.2278156,3.329521,-4.538576,-2.9240592,2.7847812,8.075836,4.8230667,1,1683969736.150511
1.3236748,1.2627566,1.1582993,3.329521,-4.538576,-2.9240592,2.7847812,8.075836,4.8230667,1,1683969736.155633
1.3236748,1.2627566,1.1582993,3.329521,-4.538576,-2.9240592,2.8086863,8.208998,4.578182,1,1683969736.1658988
1.0935394,1.0997593,0.9821305,3.329521,-4.538576,-2.9240592,2.8086863,8.208998,4.578182,1,1683969736.1864305
1.0935394,1.0997593,0.9821305,3.329521,-4.538576,-2.9240592,2.7344315,8.534542,3.9900618,1,1683969736.1966784
1.0935394,1.0997593,0.9821305,4.4177775,-5.055368,-3.8096611,2.7344315,8.534542,3.9900618,1,1683969736.201809
1.0935394,1.0997593,0.9821305,4.4177775,-5.055368,-3.8096611,2.6055493,8.781562,3.5116093,1,1683969736.2272952
1.0935394,1.0997593,0.9821305,4.8220177,-5.1311154,-4.1998515,2.6055493,8.781562,3.5116093,1,1683969736.237553
-0.052381106,0.48893097,0.17616881,4.8220177,-5.1311154,-4.1998515,2.6055493,8.781562,3.5116093,1,1683969736.2529457
-0.052381106,0.48893097,0.17616881,-5.09034,5.796653,4.4884853,2.6055493,8.781562,3.5116093,1,1683969736.2632043
-0.052381106,0.48893097,0.17616881,-5.09034,5.796653,4.4884853,1.4980795,9.553966,1.6473134,1,1683969736.2734284
-0.052381106,0.48893097,0.17616881,-5.4321194,5.8152843,4.617072,1.4980795,9.553966,1.6473134,1,1683969736.2888107
0.32788497,0.59741294,0.17372964,-5.4321194,5.8152843,4.617072,1.4980795,9.553966,1.6473134,1,1683969736.293939
0.32788497,0.59741294,0.17372964,-5.4321194,5.8152843,4.617072,1.9195175,9.301948,2.4546566,1,1683969736.30933
0.59997404,0.74047005,0.18751094,-5.4321194,5.8152843,4.617072,1.9195175,9.301948,2.4546566,1,1683969736.324614
0.59997404,0.74047005,0.18751094,-5.4615936,5.4852643,4.392732,1.9195175,9.301948,2.4546566,1,1683969736.3348458
0.59997404,0.74047005,0.18751094,-5.4615936,5.4852643,4.392732,2.0494382,9.195544,2.7345726,1,1683969736.3451126
0.59997404,0.74047005,0.18751094,-5.062393,4.263076,3.455512,2.0494382,9.195544,2.7345726,1,1683969736.360384
1.0336579,0.9961557,0.18598646,-5.062393,4.263076,3.455512,2.0494382,9.195544,2.7345726,1,1683969736.3706148
1.5430778,1.3564816,0.28093103,-5.062393,4.263076,3.455512,2.0494382,9.195544,2.7345726,1,1683969736.3808734
1.5430778,1.3564816,0.28093103,-3.8847976,1.9168952,1.7398969,2.0494382,9.195544,2.7345726,1,1683969736.3962545
1.5430778,1.3564816,0.28093103,-3.8847976,1.9168952,1.7398969,2.4879348,8.605026,3.9999745,1,1683969736.4013863
1.7309545,1.5656402,0.6465621,-3.8847976,1.9168952,1.7398969,2.4879348,8.605026,3.9999745,1,1683969736.4269698
1.7309545,1.5656402,0.6465621,-3.8847976,1.9168952,1.7398969,2.5606997,8.427678,4.3189325,1,1683969736.4320881
1.7309545,1.5656402,0.6465621,-2.11451,-0.6411031,-0.070249505,2.5606997,8.427678,4.3189325,1,1683969736.442329
1.7309545,1.5656402,0.6465621,0.8749117,-3.5929565,-2.0410535,2.5606997,8.427678,4.3189325,1,1683969736.462824
1.7309545,1.5656402,0.6465621,0.8749117,-3.5929565,-2.0410535,2.5968323,8.367915,4.412547,1,1683969736.4679513
1.551737,1.5099661,1.2243397,0.8749117,-3.5929565,-2.0410535,2.5968323,8.367915,4.412547,1,1683969736.4782124
1.2728791,1.278794,1.4397792,0.8749117,-3.5929565,-2.0410535,2.5968323,8.367915,4.412547,1,1683969736.4884312
1.2728791,1.278794,1.4397792,0.8749117,-3.5929565,-2.0410535,2.579622,8.48522,4.193172,1,1683969736.4986846
1.2728791,1.278794,1.4397792,3.095865,-4.921894,-3.158937,2.579622,8.48522,4.193172,1,1683969736.5038157
0.6356468,0.8748681,0.83675617,3.095865,-4.921894,-3.158937,2.579622,8.48522,4.193172,1,1683969736.5191655
0.6356468,0.8748681,0.83675617,5.7344975,-5.5497108,-4.146248,2.579622,8.48522,4.193172,1,1683969736.524258
0.6356468,0.8748681,0.83675617,5.7344975,-5.5497108,-4.146248,2.5421379,8.807822,3.4922655,1,1683969736.5293474
0.37392426,0.78352135,0.57058203,5.7344975,-5.5497108,-4.146248,2.5421379,8.807822,3.4922655,1,1683969736.5549333
0.37392426,0.78352135,0.57058203,5.7344975,-5.5497108,-4.146248,2.2752967,9.173158,2.6291347,1,1683969736.5600693
0.37392426,0.78352135,0.57058203,5.434868,-4.849048,-3.9414554,2.2752967,9.173158,2.6291347,1,1683969736.5703309
0.1390325,0.72107863,0.3582526,5.434868,-4.849048,-3.9414554,2.2752967,9.173158,2.6291347,1,1683969736.5958855
0.1390325,0.72107863,0.3582526,5.434868,-4.849048,-3.9414554,2.1666632,9.272419,2.3587978,1,1683969736.611202
0.1390325,0.72107863,0.3582526,4.7812424,-4.072944,-3.5280523,2.1666632,9.272419,2.3587978,1,1683969736.616333
0.1390325,0.72107863,0.3582526,4.7812424,-4.072944,-3.5280523,1.8283548,9.494228,1.6591756,1,1683969736.6315968
-0.041953668,0.673088,0.23141594,4.7812424,-4.072944,-3.5280523,1.8283548,9.494228,1.6591756,1,1683969736.6469593
-0.3000175,0.64211065,0.15738723,4.7812424,-4.072944,-3.5280523,1.8283548,9.494228,1.6591756,1,1683969736.662316
-0.3000175,0.64211065,0.15738723,2.6494753,-1.6229162,-1.9416351,1.8283548,9.494228,1.6591756,1,1683969736.667441
-0.3000175,0.64211065,0.15738723,2.6494753,-1.6229162,-1.9416351,1.6221387,9.585966,1.3092179,1,1683969736.6725776
-0.5496662,0.5893027,0.067503944,2.6494753,-1.6229162,-1.9416351,1.6221387,9.585966,1.3092179,1,1683969736.69302
-0.5496662,0.5893027,0.067503944,2.6494753,-1.6229162,-1.9416351,1.4055629,9.657351,0.99805427,1,1683969736.7083774
-0.5496662,0.5893027,0.067503944,1.0514518,0.38072178,-0.6049093,1.4055629,9.657351,0.99805427,1,1683969736.7135088
-0.65997756,0.49710217,-0.0336605,1.0514518,0.38072178,-0.6049093,1.4055629,9.657351,0.99805427,1,1683969736.7339883
-0.65997756,0.49710217,-0.0336605,1.0514518,0.38072178,-0.6049093,1.357884,9.667503,0.9652362,1,1683969736.7442029
-0.65997756,0.49710217,-0.0336605,-0.56382865,2.3521366,0.63056564,1.357884,9.667503,0.9652362,1,1683969736.7543964
-0.65997756,0.49710217,-0.0336605,-2.8997774,4.805066,2.140319,1.357884,9.667503,0.9652362,1,1683969736.7646518
-0.65997756,0.49710217,-0.0336605,-2.8997774,4.805066,2.140319,1.3983806,9.646851,1.1040525,1,1683969736.7697825
-0.62064594,0.4056944,-0.15958248,-2.8997774,4.805066,2.140319,1.3983806,9.646851,1.1040525,1,1683969736.774915
-0.62064594,0.4056944,-0.15958248,-2.8997774,4.805066,2.140319,1.9444987,9.219994,2.7288759,1,1683969736.8057005
-0.40203565,0.45277032,0.07207738,-2.8997774,4.805066,2.140319,1.9444987,9.219994,2.7288759,1,1683969736.8159637
-0.40203565,0.45277032,0.07207738,-4.0500364,5.3155966,2.191021,1.9444987,9.219994,2.7288759,1,1683969736.8210585
-0.40203565,0.45277032,0.07207738,-4.0500364,5.3155966,2.191021,1.9590793,9.148685,2.9495206,1,1683969736.8466687
-0.40203565,0.45277032,0.07207738,-4.8963904,5.899431,2.805704,1.9590793,9.148685,2.9495206,1,1683969736.8569365
-0.33508053,0.48746744,0.11451888,-4.8963904,5.899431,2.805704,1.9590793,9.148685,2.9495206,1,1683969736.862073
-0.21367101,0.46344167,0.19952384,-4.8963904,5.899431,2.805704,1.9590793,9.148685,2.9495206,1,1683969736.8723142
-0.21367101,0.46344167,0.19952384,-5.3230796,5.9592957,3.2519412,1.9590793,9.148685,2.9495206,1,1683969736.892798
-0.21367101,0.46344167,0.19952384,-5.3230796,5.9592957,3.2519412,2.015115,8.854289,3.7117379,1,1683969736.8979297
-0.21367101,0.46344167,0.19952384,-5.364313,5.575062,3.6377025,2.015115,8.854289,3.7117379,1,1683969736.913318
-0.21367101,0.46344167,0.19952384,-5.364313,5.575062,3.6377025,2.056877,8.599175,4.249654,1,1683969736.918462
-0.07732158,0.44655046,0.3553256,-5.364313,5.575062,3.6377025,2.056877,8.599175,4.249654,1,1683969736.933768
0.18574256,0.49301654,0.5368606,-5.364313,5.575062,3.6377025,2.056877,8.599175,4.249654,1,1683969736.9490976
0.18574256,0.49301654,0.5368606,-5.007873,4.936402,3.8185186,2.056877,8.599175,4.249654,1,1683969736.9592853
0.18574256,0.49301654,0.5368606,-5.007873,4.936402,3.8185186,2.1043026,8.31017,4.7695994,1,1683969736.9695501
0.18574256,0.49301654,0.5368606,-4.564385,4.444808,3.716046,2.1043026,8.31017,4.7695994,1,1683969736.9900777
0.46258798,0.6325369,0.6261951,-4.564385,4.444808,3.716046,2.1043026,8.31017,4.7695994,1,1683969737.0003116
0.46258798,0.6325369,0.6261951,-4.564385,4.444808,3.716046,2.1850555,7.8474636,5.4661655,1,1683969737.0054004
0.46258798,0.6325369,0.6261951,-4.564385,4.444808,3.716046,2.2254372,7.5468683,5.859038,1,1683969737.0155964
0.8269995,0.86358696,0.5681429,-4.564385,4.444808,3.716046,2.2254372,7.5468683,5.859038,1,1683969737.0258563
0.8269995,0.86358696,0.5681429,-3.9481747,3.6673295,3.0621147,2.2254372,7.5468683,5.859038,1,1683969737.0411873
1.1162236,1.0009121,0.4633807,-3.9481747,3.6673295,3.0621147,2.2254372,7.5468683,5.859038,1,1683969737.0463178
1.1162236,1.0009121,0.4633807,-3.3394475,2.5337162,2.0607538,2.2254372,7.5468683,5.859038,1,1683969737.056541
1.2956244,1.1025643,0.9358473,-3.3394475,2.5337162,2.0607538,2.2254372,7.5468683,5.859038,1,1683969737.0770612
1.2956244,1.1025643,0.9358473,-0.05513059,-2.5896106,-0.44806966,2.2254372,7.5468683,5.859038,1,1683969737.0923991
1.2956244,1.1025643,0.9358473,-0.05513059,-2.5896106,-0.44806966,1.811772,6.620602,7.008653,1,1683969737.0975254
1.2599516,1.1157358,1.2149489,-0.05513059,-2.5896106,-0.44806966,1.811772,6.620602,7.008653,1,1683969737.1282685
1.2599516,1.1157358,1.2149489,2.3302982,-4.998252,-2.0430388,1.811772,6.620602,7.008653,1,1683969737.1385033
1.0499393,0.9331032,1.4249002,2.3302982,-4.998252,-2.0430388,1.811772,6.620602,7.008653,1,1683969737.1589675
1.0499393,0.9331032,1.4249002,4.457942,-6.4073653,-3.085633,1.811772,6.620602,7.008653,1,1683969737.1794846
1.0499393,0.9331032,1.4249002,5.5767417,-6.821685,-3.5530977,1.811772,6.620602,7.008653,1,1683969737.2051537
1.0499393,0.9331032,1.4249002,5.5767417,-6.821685,-3.5530977,2.295162,6.7826734,6.7054973,1,1683969737.2102823
1.0499393,0.9331032,1.4249002,6.304893,-6.7787714,-3.7797287,2.295162,6.7826734,6.7054973,1,1683969737.2307904
0.7279083,0.78443605,1.0301821,6.304893,-6.7787714,-3.7797287,2.295162,6.7826734,6.7054973,1,1683969737.2359223
0.7279083,0.78443605,1.0301821,6.304893,-6.7787714,-3.7797287,2.7022388,7.893004,5.1608615,1,1683969737.2410507
0.7279083,0.78443605,1.0301821,6.304893,-6.7787714,-3.7797287,2.7266567,8.259165,4.5373616,1,1683969737.2615352
0.6222924,0.7644348,0.8199868,6.304893,-6.7787714,-3.7797287,2.7266567,8.259165,4.5373616,1,1683969737.266665
0.6222924,0.7644348,0.8199868,6.266103,-6.488,-3.7239873,2.7266567,8.259165,4.5373616,1,1683969737.2769191
0.6222924,0.7644348,0.8199868,5.7259455,-5.6757016,-3.4125986,2.7266567,8.259165,4.5373616,1,1683969737.2974582
0.6222924,0.7644348,0.8199868,5.7259455,-5.6757016,-3.4125986,2.694151,8.580835,3.9175172,1,1683969737.3077226
0.46978348,0.7368113,0.67924696,5.7259455,-5.6757016,-3.4125986,2.694151,8.580835,3.9175172,1,1683969737.3230715
0.22733033,0.7012604,0.53990954,5.7259455,-5.6757016,-3.4125986,2.694151,8.580835,3.9175172,1,1683969737.3435504
0.22733033,0.7012604,0.53990954,4.941289,-4.5787406,-2.9294043,2.694151,8.580835,3.9175172,1,1683969737.348678
0.22733033,0.7012604,0.53990954,0.076816306,-3.4066427,-0.5665775,2.694151,8.580835,3.9175172,1,1683969737.358943
1.2048264,1.1165895,0.64278144,0.076816306,-3.4066427,-0.5665775,2.694151,8.580835,3.9175172,1,1683969737.374333
1.2048264,1.1165895,0.64278144,0.076816306,-3.4066427,-0.5665775,2.1872842,7.254675,6.2306986,1,1683969737.3845892
1.2048264,1.1165895,0.64278144,0.076816306,-3.4066427,-0.5665775,2.4562285,7.3439517,6.0224104,1,1683969737.3948538
1.2048264,1.1165895,0.64278144,2.4599543,-5.8129935,-1.8932241,2.4562285,7.3439517,6.0224104,1,1683969737.405116
1.2484875,1.1784225,1.1731173,2.4599543,-5.8129935,-1.8932241,2.4562285,7.3439517,6.0224104,1,1683969737.410248
1.1311636,1.0744529,1.3799586,2.4599543,-5.8129935,-1.8932241,2.4562285,7.3439517,6.0224104,1,1683969737.4255977
1.1311636,1.0744529,1.3799586,4.374406,-6.7335677,-2.8136454,2.4562285,7.3439517,6.0224104,1,1683969737.4307287
1.1311636,1.0744529,1.3799586,4.374406,-6.7335677,-2.8136454,2.645357,7.5512385,5.676001,1,1683969737.4358582
1.1311636,1.0744529,1.3799586,4.374406,-6.7335677,-2.8136454,2.7858105,7.8353286,5.204134,1,1683969737.466587
0.97755706,0.98932606,1.2562928,4.374406,-6.7335677,-2.8136454,2.7858105,7.8353286,5.204134,1,1683969737.4717205
0.97755706,0.98932606,1.2562928,5.360648,-6.6394944,-3.3270776,2.7858105,7.8353286,5.204134,1,1683969737.492247
0.97755706,0.98932606,1.2562928,5.562081,-6.1570635,-3.4245105,2.7858105,7.8353286,5.204134,1,1683969737.5076354
0.97755706,0.98932606,1.2562928,5.562081,-6.1570635,-3.4245105,2.8604238,8.302827,4.3723183,1,1683969737.5178926
0.77766734,0.90230876,1.0665256,5.562081,-6.1570635,-3.4245105,2.8604238,8.302827,4.3723183,1,1683969737.528151
0.77766734,0.90230876,1.0665256,5.1570773,-5.0074153,-3.0908253,2.8604238,8.302827,4.3723183,1,1683969737.5332782
0.4561242,0.77132547,0.83937824,5.1570773,-5.0074153,-3.0908253,2.8604238,8.302827,4.3723183,1,1683969737.5384152
0.4561242,0.77132547,0.83937824,5.1570773,-5.0074153,-3.0908253,2.8255928,8.588806,3.805854,1,1683969737.564064
0.4561242,0.77132547,0.83937824,4.2855253,-3.5272887,-2.4306328,2.8255928,8.588806,3.805854,1,1683969737.5845418
0.15958248,0.66278255,0.6476597,4.2855253,-3.5272887,-2.4306328,2.8255928,8.588806,3.805854,1,1683969737.5947998
0.15958248,0.66278255,0.6476597,4.2855253,-3.5272887,-2.4306328,2.7442276,8.824368,3.2917871,1,1683969737.5999305
0.15958248,0.66278255,0.6476597,2.3419046,-1.0995574,-1.2382239,2.7442276,8.824368,3.2917871,1,1683969737.6204038
0.15958248,0.66278255,0.6476597,2.3419046,-1.0995574,-1.2382239,2.6443076,8.995259,2.8860092,1,1683969737.6255393
-0.18257163,0.5499101,0.14427671,2.3419046,-1.0995574,-1.2382239,2.6443076,8.995259,2.8860092,1,1683969737.6409316
-0.18257163,0.5499101,0.14427671,2.3419046,-1.0995574,-1.2382239,2.3484666,8.7119255,3.850087,1,1683969737.6511767
-0.18257163,0.5499101,0.14427671,-2.6284003,4.5840855,0.99372506,2.3484666,8.7119255,3.850087,1,1683969737.656311
-0.18257163,0.5499101,0.14427671,-3.8644862,5.5553613,1.6334536,2.3484666,8.7119255,3.850087,1,1683969737.6871033
-0.16311927,0.5846073,0.0895784,-3.8644862,5.5553613,1.6334536,2.3484666,8.7119255,3.850087,1,1683969737.6922348
-0.16311927,0.5846073,0.0895784,-3.8644862,5.5553613,1.6334536,2.2494435,8.5828905,4.184509,1,1683969737.697372
-0.16311927,0.5846073,0.0895784,-4.4948993,5.6285124,2.115121,2.2494435,8.5828905,4.184509,1,1683969737.7076309
-0.16311927,0.5846073,0.0895784,-4.4948993,5.6285124,2.115121,2.0917232,8.292154,4.8063483,1,1683969737.7178555
-0.1659853,0.52314025,0.09457869,-4.4948993,5.6285124,2.115121,2.0917232,8.292154,4.8063483,1,1683969737.7229898
-0.13031249,0.4809427,0.15830192,-4.4948993,5.6285124,2.115121,2.0917232,8.292154,4.8063483,1,1683969737.753754
-0.13031249,0.4809427,0.15830192,-4.611269,5.190522,2.4324653,2.0917232,8.292154,4.8063483,1,1683969737.7588875
-0.13031249,0.4809427,0.15830192,-4.611269,5.190522,2.4324653,1.9940096,8.048864,5.241738,1,1683969737.7640254
0.04835648,0.46905175,0.22037871,-4.611269,5.190522,2.4324653,1.9940096,8.048864,5.241738,1,1683969737.7844958
0.04835648,0.46905175,0.22037871,-4.3893723,4.2282567,2.6676486,1.9940096,8.048864,5.241738,1,1683969737.7896283
0.04835648,0.46905175,0.22037871,-4.3893723,4.2282567,2.6676486,1.9218844,7.782363,5.654847,1,1683969737.8050265
0.31739658,0.5379582,0.20678036,-4.3893723,4.2282567,2.6676486,1.9218844,7.782363,5.654847,1,1683969737.8101537
0.31739658,0.5379582,0.20678036,-3.9808562,3.0671544,2.5205827,1.9218844,7.782363,5.654847,1,1683969737.8306372
0.31739658,0.5379582,0.20678036,-3.9808562,3.0671544,2.5205827,1.8893118,7.509506,6.022784,1,1683969737.8357742
0.649733,0.65595293,0.20641449,-3.9808562,3.0671544,2.5205827,1.8893118,7.509506,6.022784,1,1683969737.851161
0.649733,0.65595293,0.20641449,-3.9808562,3.0671544,2.5205827,1.9032483,7.2515335,6.3268485,1,1683969737.8665712
0.649733,0.65595293,0.20641449,-3.280041,1.313513,1.9572122,1.9032483,7.2515335,6.3268485,1,1683969737.876749
1.04189,0.892674,0.5538128,-3.280041,1.313513,1.9572122,1.9032483,7.2515335,6.3268485,1,1683969737.8818362
1.04189,0.892674,0.5538128,-4.2697954,3.8977785,2.6613872,1.9032483,7.2515335,6.3268485,1,1683969737.9073842
1.04189,0.892674,0.5538128,-4.2697954,3.8977785,2.6613872,2.11877,7.4792323,5.98398,1,1683969737.9227743
1.04189,0.892674,0.5538128,-3.6653442,2.9248228,2.5547912,2.11877,7.4792323,5.98398,1,1683969737.9381282
0.33203158,0.57911915,0.4314276,-3.6653442,2.9248228,2.5547912,2.11877,7.4792323,5.98398,1,1683969737.9431798
0.6598556,0.7145539,0.43972078,-3.6653442,2.9248228,2.5547912,2.11877,7.4792323,5.98398,1,1683969737.9687035
0.6598556,0.7145539,0.43972078,-3.6653442,2.9248228,2.5547912,2.158412,7.119351,6.394702,1,1683969737.9737906
0.6598556,0.7145539,0.43972078,-2.8130345,1.4598153,1.9920316,2.158412,7.119351,6.394702,1,1683969737.9789011
0.6598556,0.7145539,0.43972078,-2.8130345,1.4598153,1.9920316,2.2253115,6.936358,6.5704675,1,1683969737.999369
0.6598556,0.7145539,0.43972078,-1.9567541,0.0061086523,1.2157745,2.2253115,6.936358,6.5704675,1,1683969738.0045018
0.922066,0.82986546,0.5305188,-1.9567541,0.0061086523,1.2157745,2.2253115,6.936358,6.5704675,1,1683969738.014718
0.922066,0.82986546,0.5305188,-1.9567541,0.0061086523,1.2157745,2.3276277,6.8220525,6.654161,1,1683969738.0301087
0.922066,0.82986546,0.5305188,-0.539394,-2.0257819,-0.046120327,2.3276277,6.8220525,6.654161,1,1683969738.035194
1.209095,0.995302,0.799071,-0.539394,-2.0257819,-0.046120327,2.3276277,6.8220525,6.654161,1,1683969738.0453734
1.2726963,1.0620742,1.1106136,-0.539394,-2.0257819,-0.046120327,2.3276277,6.8220525,6.654161,1,1683969738.0606909
1.2726963,1.0620742,1.1106136,-0.539394,-2.0257819,-0.046120327,2.4620986,6.7995954,6.628702,1,1683969738.0759878
1.2726963,1.0620742,1.1106136,0.88071495,-3.5228598,-1.1178834,2.4620986,6.7995954,6.628702,1,1683969738.0862463
1.2726963,1.0620742,1.1106136,0.88071495,-3.5228598,-1.1178834,2.614013,6.884919,6.4808125,1,1683969738.0964687
1.2726963,1.0620742,1.1106136,2.3692408,-4.6011896,-1.9874501,2.614013,6.884919,6.4808125,1,1683969738.1067348
1.2217176,1.0165228,1.3646528,2.3692408,-4.6011896,-1.9874501,2.614013,6.884919,6.4808125,1,1683969738.1118658
1.0879294,0.90230876,1.4406939,2.3692408,-4.6011896,-1.9874501,2.614013,6.884919,6.4808125,1,1683969738.1323338
1.0879294,0.90230876,1.4406939,3.8886154,-5.173876,-2.6482534,2.614013,6.884919,6.4808125,1,1683969738.1425939
1.0879294,0.90230876,1.4406939,3.8886154,-5.173876,-2.6482534,2.7611828,7.072703,6.2119937,1,1683969738.1528537
0.9430428,0.85328156,1.2632444,3.8886154,-5.173876,-2.6482534,2.7611828,7.072703,6.2119937,1,1683969738.168211
0.6524161,0.6998579,0.28574836,3.8886154,-5.173876,-2.6482534,2.7611828,7.072703,6.2119937,1,1683969738.1886883
0.6524161,0.6998579,0.28574836,-5.5148916,4.8759265,2.2519548,2.7611828,7.072703,6.2119937,1,1683969738.1938157
0.6524161,0.6998579,0.28574836,-5.198158,3.8559341,1.682781,2.7611828,7.072703,6.2119937,1,1683969738.198945
0.6524161,0.6998579,0.28574836,-5.198158,3.8559341,1.682781,2.276843,7.435183,5.9808154,1,1683969738.2040713
0.67180747,0.72052985,0.46789315,-5.198158,3.8559341,1.682781,2.276843,7.435183,5.9808154,1,1683969738.2143295
0.6415618,0.714066,0.8052299,-5.198158,3.8559341,1.682781,2.276843,7.435183,5.9808154,1,1683969738.2348478
0.6415618,0.714066,0.8052299,-5.198158,3.8559341,1.682781,2.1526988,6.9688787,6.5602393,1,1683969738.2553248
0.6415618,0.714066,0.8052299,-4.044539,2.0625865,1.05023,2.1526988,6.9688787,6.5602393,1,1683969738.260462
0.65973365,0.71693206,1.1317123,-4.044539,2.0625865,1.05023,2.1526988,6.9688787,6.5602393,1,1683969738.2706752
0.65973365,0.71693206,1.1317123,-4.044539,2.0625865,1.05023,2.120292,6.728853,6.816378,1,1683969738.285987
0.65973365,0.71693206,1.1317123,-2.7206411,0.6815729,0.6093381,2.120292,6.728853,6.816378,1,1683969738.296215
0.69784564,0.70924866,1.2428164,-2.7206411,0.6815729,0.6093381,2.120292,6.728853,6.816378,1,1683969738.311605
0.69784564,0.70924866,1.2428164,-2.0062342,0.124005646,0.4098906,2.120292,6.728853,6.816378,1,1683969738.31674
0.69784564,0.70924866,1.2428164,-2.0062342,0.124005646,0.4098906,2.1227071,6.6402345,6.901994,1,1683969738.3372195
0.69784564,0.70924866,1.2428164,-2.0062342,0.124005646,0.4098906,2.184362,6.514654,7.001712,1,1683969738.3524814
0.69784564,0.70924866,1.2428164,0.33017266,-1.315651,-0.35934147,2.184362,6.514654,7.001712,1,1683969738.367882
0.80041254,0.76705694,1.4567922,0.33017266,-1.315651,-0.35934147,2.184362,6.514654,7.001712,1,1683969738.3730133
0.80041254,0.76705694,1.4567922,1.5152513,-1.9440787,-0.82650065,2.184362,6.514654,7.001712,1,1683969738.3934567
0.80462015,0.81529146,1.5288696,1.5152513,-1.9440787,-0.82650065,2.184362,6.514654,7.001712,1,1683969738.3985877
0.80462015,0.81529146,1.5288696,1.5152513,-1.9440787,-0.82650065,2.2531803,6.5449023,6.9515142,1,1683969738.4087996
0.80462015,0.81529146,1.5288696,1.5152513,-1.9440787,-0.82650065,2.3301077,6.6583476,6.81712,1,1683969738.4241571
0.80462015,0.81529146,1.5288696,2.339461,-2.276542,-1.1582005,2.3301077,6.6583476,6.81712,1,1683969738.434374
0.7777283,0.8151695,1.528199,2.339461,-2.276542,-1.1582005,2.3301077,6.6583476,6.81712,1,1683969738.444638
0.6694903,0.75461715,1.3505056,2.339461,-2.276542,-1.1582005,2.3301077,6.6583476,6.81712,1,1683969738.454896
0.4025235,0.55326396,1.0332919,2.339461,-2.276542,-1.1582005,2.3301077,6.6583476,6.81712,1,1683969738.4753165
0.4025235,0.55326396,1.0332919,-3.6914587,2.6725354,1.5286902,2.3301077,6.6583476,6.81712,1,1683969738.480407
0.4025235,0.55326396,1.0332919,-3.6914587,2.6725354,1.5286902,2.1735883,7.531724,5.8978596,1,1683969738.4855134
0.4025235,0.55326396,1.0332919,-2.4874432,2.2273674,1.4559973,2.1735883,7.531724,5.8978596,1,1683969738.5060337
0.4025235,0.55326396,1.0332919,-2.4874432,2.2273674,1.4559973,2.1167738,7.198161,6.3199563,1,1683969738.5162923
0.3187381,0.5441781,1.2401333,-2.4874432,2.2273674,1.4559973,2.1167738,7.198161,6.3199563,1,1683969738.531689
0.3187381,0.5441781,1.2401333,-1.8272507,2.564565,1.5726726,2.1167738,7.198161,6.3199563,1,1683969738.5470383
0.27538192,0.53869,1.1144553,-1.8272507,2.564565,1.5726726,2.1167738,7.198161,6.3199563,1,1683969738.5572982
0.27538192,0.53869,1.1144553,-1.8272507,2.564565,1.5726726,2.0792258,7.031159,6.5173407,1,1683969738.562428
0.31520134,0.5392388,0.8570622,-1.8272507,2.564565,1.5726726,2.0792258,7.031159,6.5173407,1,1683969738.5726619
0.31520134,0.5392388,0.8570622,-1.9028453,2.9915597,1.6763669,2.0792258,7.031159,6.5173407,1,1683969738.582924
0.31520134,0.5392388,0.8570622,-1.9028453,2.9915597,1.6763669,2.0237255,6.8850355,6.688567,1,1683969738.5931983
0.4686249,0.5778386,0.61717016,-1.9028453,2.9915597,1.6763669,2.0237255,6.8850355,6.688567,1,1683969738.618832
0.4686249,0.5778386,0.61717016,-2.453235,3.306308,1.6326901,2.0237255,6.8850355,6.688567,1,1683969738.6239662
0.4686249,0.5778386,0.61717016,-2.453235,3.306308,1.6326901,1.8984576,6.644403,6.963036,1,1683969738.6342223
0.4686249,0.5778386,0.61717016,-2.796541,3.2559118,1.3724614,1.8984576,6.644403,6.963036,1,1683969738.649533
0.4686249,0.5778386,0.61717016,-2.796541,3.2559118,1.3724614,1.788225,6.451545,7.17049,1,1683969738.6546643
0.5518005,0.6120479,0.6480866,-2.796541,3.2559118,1.3724614,1.788225,6.451545,7.17049,1,1683969738.6751568
0.57314324,0.6363176,0.76967907,-2.796541,3.2559118,1.3724614,1.788225,6.451545,7.17049,1,1683969738.690501
0.57314324,0.6363176,0.76967907,-2.78692,2.830597,0.9305005,1.788225,6.451545,7.17049,1,1683969738.6956232
0.57314324,0.6363176,0.76967907,-2.78692,2.830597,0.9305005,1.6613642,6.244381,7.3813066,1,1683969738.700755
0.57314324,0.6363176,0.76967907,-2.4909558,2.3356433,0.5795584,1.6613642,6.244381,7.3813066,1,1683969738.7161438
0.57314324,0.6363176,0.76967907,-2.4909558,2.3356433,0.5795584,1.531267,6.0427876,7.574698,1,1683969738.731523
0.5471661,0.6471719,0.95109206,-2.4909558,2.3356433,0.5795584,1.531267,6.0427876,7.574698,1,1683969738.736602
0.5471661,0.6471719,0.95109206,0.05787948,0.075594574,-0.085673854,1.531267,6.0427876,7.574698,1,1683969738.7519436
0.5471661,0.6471719,0.95109206,0.05787948,0.075594574,-0.085673854,0.80290824,5.7283216,7.923243,1,1683969738.757077
0.17208321,0.50094384,0.81712085,0.05787948,0.075594574,-0.085673854,0.80290824,5.7283216,7.923243,1,1683969738.7723856
0.17208321,0.50094384,0.81712085,-0.10522154,0.25488353,-0.044745877,0.80290824,5.7283216,7.923243,1,1683969738.7825627
0.17208321,0.50094384,0.81712085,-0.10522154,0.25488353,-0.044745877,0.7881974,5.728324,7.9247184,1,1683969738.7877192
0.19860914,0.5168594,0.79394877,-0.10522154,0.25488353,-0.044745877,0.7881974,5.728324,7.9247184,1,1683969738.803108
0.19860914,0.5168594,0.79394877,-0.28725937,0.36270124,-0.04505131,0.7881974,5.728324,7.9247184,1,1683969738.8184931
0.19867012,0.532775,0.7813261,-0.28725937,0.36270124,-0.04505131,0.7881974,5.728324,7.9247184,1,1683969738.8235848
0.19867012,0.532775,0.7813261,-0.28725937,0.36270124,-0.04505131,0.74349016,5.694597,7.953295,1,1683969738.8594806
0.18586451,0.53039676,0.7977295,-0.28725937,0.36270124,-0.04505131,0.74349016,5.694597,7.953295,1,1683969738.864611
0.18586451,0.53039676,0.7977295,-0.39400807,0.38515055,-0.048258353,0.74349016,5.694597,7.953295,1,1683969738.8697417
0.15622863,0.5048465,0.8378538,-0.39400807,0.38515055,-0.048258353,0.74349016,5.694597,7.953295,1,1683969738.900306
0.15622863,0.5048465,0.8378538,-0.39400807,0.38515055,-0.048258353,0.7045628,5.6491847,7.9891434,1,1683969738.905435
0.15622863,0.5048465,0.8378538,-0.42546764,0.30772337,-0.04444045,0.7045628,5.6491847,7.9891434,1,1683969738.9105659
0.14909407,0.4846624,0.8770634,-0.42546764,0.30772337,-0.04444045,0.7045628,5.6491847,7.9891434,1,1683969738.9208293
0.14909407,0.4846624,0.8770634,-0.42546764,0.30772337,-0.04444045,0.68461454,5.6179004,8.012902,1,1683969738.931086
0.14909407,0.4846624,0.8770634,-0.36010507,0.21609358,-0.027794369,0.68461454,5.6179004,8.012902,1,1683969738.941347
0.1572043,0.47319835,0.90621144,-0.36010507,0.21609358,-0.027794369,0.68461454,5.6179004,8.012902,1,1683969738.9618604
0.1572043,0.47319835,0.90621144,-0.36010507,0.21609358,-0.027794369,0.6720667,5.592315,8.031839,1,1683969738.972123
0.1572043,0.47319835,0.90621144,-0.23472497,0.13133603,-0.0096211275,0.6720667,5.592315,8.031839,1,1683969738.9772344
0.16147284,0.4751497,0.91590714,-0.23472497,0.13133603,-0.0096211275,0.6720667,5.592315,8.031839,1,1683969738.9924874
0.16147284,0.4751497,0.91590714,-0.045356743,0.01985312,-0.01160644,0.6720667,5.592315,8.031839,1,1683969739.0027282
0.16147284,0.4751497,0.91590714,-0.045356743,0.01985312,-0.01160644,0.6663699,5.576168,8.043532,1,1683969739.007863
0.16147284,0.4751497,0.91590714,-0.045356743,0.01985312,-0.01160644,0.59328717,5.8823814,7.828263,1,1683969739.0231946
