acc_x,acc_y,acc_z,gyr_x,gyr_y,gyr_z,grav_x,grav_y,grav_z,label,timestamp
0.9368229,1.0723796,0.18903543,2.0173824,0.8536842,3.4093916,2.5632718,8.165009,4.795661,1,1683969696.4348276
0.9368229,1.0723796,0.18903543,1.5476271,1.0680978,2.6688702,2.8789797,8.1691475,4.6057177,1,1683969696.4863608
1.9087698,2.3423316,-0.63528097,0.8605564,0.20173825,0.7502952,3.1274395,8.172486,4.4346023,1,1683969696.491579
1.9767617,2.4382522,-0.77992356,0.29733866,-0.56321776,-0.63270366,3.1799738,8.190653,4.363149,1,1683969696.4967399
1.8283993,2.2617784,-0.6422936,-1.0749701,-0.9285152,-2.7394252,3.14874,8.241788,4.28888,1,1683969696.5018773
1.8283993,2.2617784,-0.6422936,-1.0749701,-0.9285152,-2.7394252,3.0477974,8.282645,4.2830873,1,1683969696.5070062
1.5063684,1.847364,-0.48277208,-1.0749701,-0.9285152,-2.7394252,3.0477974,8.282645,4.2830873,1,1683969696.5223758
1.5063684,1.847364,-0.48277208,-1.0749701,-0.9285152,-2.7394252,2.8833709,8.315976,4.332071,1,1683969696.5275028
1.1509818,1.3620307,-0.34556895,-1.0749701,-0.9285152,-2.7394252,2.8833709,8.315976,4.332071,1,1683969696.5428553
1.1509818,1.3620307,-0.34556895,-1.8978056,-0.63300914,-3.3542612,2.8833709,8.315976,4.332071,1,1683969696.547982
1.1509818,1.3620307,-0.34556895,-3.0117183,0.0071776668,-3.8272235,2.8833709,8.315976,4.332071,1,1683969696.5735636
1.1509818,1.3620307,-0.34556895,-3.0117183,0.0071776668,-3.8272235,2.532835,8.316705,4.5445876,1,1683969696.5786886
0.661441,0.76632524,-0.1507405,-3.0117183,0.0071776668,-3.8272235,2.532835,8.316705,4.5445876,1,1683969696.5939586
0.46899077,0.5470441,-0.04762473,-3.0117183,0.0071776668,-3.8272235,2.532835,8.316705,4.5445876,1,1683969696.6092856
0.46899077,0.5470441,-0.04762473,-3.631441,0.37614027,-3.9800925,2.532835,8.316705,4.5445876,1,1683969696.624671
0.46899077,0.5470441,-0.04762473,-3.631441,0.37614027,-3.9800925,2.3929002,8.296651,4.655719,1,1683969696.6297631
0.0001829375,-0.004268542,0.34331274,-3.631441,0.37614027,-3.9800925,2.3929002,8.296651,4.655719,1,1683969696.6502783
0.0001829375,-0.004268542,0.34331274,-3.631441,0.37614027,-3.9800925,2.086494,8.215961,4.937675,1,1683969696.6604886
0.0001829375,-0.004268542,0.34331274,-4.1969495,0.59849524,-4.069737,2.086494,8.215961,4.937675,1,1683969696.6656225
-0.43679374,-0.50094384,0.82486516,-4.1969495,0.59849524,-4.069737,2.086494,8.215961,4.937675,1,1683969696.6707458
-0.43679374,-0.50094384,0.82486516,-4.1969495,0.59849524,-4.069737,1.7529963,8.080147,5.2796164,1,1683969696.6758764
-0.43679374,-0.50094384,0.82486516,-4.158923,0.3680463,-3.74888,1.7529963,8.080147,5.2796164,1,1683969696.6810079
-1.1603116,-1.021889,1.5900928,-4.158923,0.3680463,-3.74888,1.7529963,8.080147,5.2796164,1,1683969696.7218616
-1.1603116,-1.021889,1.5900928,-4.158923,0.3680463,-3.74888,1.3107487,7.834772,5.7562485,1,1683969696.7270033
-1.1603116,-1.021889,1.5900928,-3.143207,0.050396383,-2.8716774,1.3107487,7.834772,5.7562485,1,1683969696.7321355
-1.1603116,-1.021889,1.5900928,-1.464244,-0.4364632,-1.4143058,1.3107487,7.834772,5.7562485,1,1683969696.7525969
-1.554542,-1.1984235,1.9785299,-1.464244,-0.4364632,-1.4143058,1.3107487,7.834772,5.7562485,1,1683969696.7628496
-1.554542,-1.1984235,1.9785299,-1.464244,-0.4364632,-1.4143058,1.0340875,7.638989,6.0673413,1,1683969696.767983
-1.554542,-1.1984235,1.9785299,-1.464244,-0.4364632,-1.4143058,0.98315424,7.582454,6.146211,1,1683969696.783328
-1.5846046,-1.159214,2.1167698,-1.464244,-0.4364632,-1.4143058,0.98315424,7.582454,6.146211,1,1683969696.7884228
-1.5846046,-1.159214,2.1167698,0.04886922,-0.70539665,-0.093004234,0.98315424,7.582454,6.146211,1,1683969696.798603
-1.460512,-1.030304,1.9718834,0.04886922,-0.70539665,-0.093004234,0.98315424,7.582454,6.146211,1,1683969696.824195
-1.460512,-1.030304,1.9718834,0.04886922,-0.70539665,-0.093004234,1.0305814,7.597776,6.1194615,1,1683969696.8293207
-1.460512,-1.030304,1.9718834,1.4877623,-0.70386946,1.141249,1.0305814,7.597776,6.1194615,1,1683969696.8395789
-1.460512,-1.030304,1.9718834,2.7591257,-0.44012842,2.5928175,1.0305814,7.597776,6.1194615,1,1683969696.8600545
-1.217388,-0.85285467,1.6648532,2.7591257,-0.44012842,2.5928175,1.0305814,7.597776,6.1194615,1,1683969696.8703074
-1.217388,-0.85285467,1.6648532,2.7591257,-0.44012842,2.5928175,1.1585008,7.6734033,6.001074,1,1683969696.8805592
-1.217388,-0.85285467,1.6648532,2.7591257,-0.44012842,2.5928175,1.3534977,7.7804914,5.8196316,1,1683969696.8959506
-1.217388,-0.85285467,1.6648532,3.287524,0.0664316,3.6106718,1.3534977,7.7804914,5.8196316,1,1683969696.901074
-0.658636,-0.52106696,1.2459264,3.287524,0.0664316,3.6106718,1.3534977,7.7804914,5.8196316,1,1683969696.9112952
0.05110054,0.04988096,0.77108157,3.287524,0.0664316,3.6106718,1.3534977,7.7804914,5.8196316,1,1683969696.9369125
0.05110054,0.04988096,0.77108157,3.287524,0.0664316,3.6106718,1.7333479,7.9374733,5.49801,1,1683969696.9471848
0.05110054,0.04988096,0.77108157,3.405421,0.9254609,4.510018,1.7333479,7.9374733,5.49801,1,1683969696.9523158
0.39337662,0.37599754,0.5426536,3.405421,0.9254609,4.510018,1.7333479,7.9374733,5.49801,1,1683969696.972833
0.39337662,0.37599754,0.5426536,3.1564934,1.3477215,4.6859474,1.7333479,7.9374733,5.49801,1,1683969696.9779623
0.39337662,0.37599754,0.5426536,3.1564934,1.3477215,4.6859474,1.8762394,7.979747,5.388829,1,1683969696.9882607
0.39337662,0.37599754,0.5426536,3.1564934,1.3477215,4.6859474,2.1623378,8.042431,5.184565,1,1683969696.9985492
1.1422617,1.1951307,0.018476687,3.1564934,1.3477215,4.6859474,2.1623378,8.042431,5.184565,1,1683969697.0036635
1.1422617,1.1951307,0.018476687,2.4817927,1.6226108,4.4160976,2.1623378,8.042431,5.184565,1,1683969697.0088012
1.1422617,1.1951307,0.018476687,1.5653422,1.7259997,3.5234706,2.1623378,8.042431,5.184565,1,1683969697.0395625
1.7136974,1.8104715,-0.28489465,1.5653422,1.7259997,3.5234706,2.1623378,8.042431,5.184565,1,1683969697.0446959
1.7136974,1.8104715,-0.28489465,1.5653422,1.7259997,3.5234706,2.528007,8.067237,4.976444,1,1683969697.05495
1.7136974,1.8104715,-0.28489465,1.5653422,1.7259997,3.5234706,2.6997445,8.056116,4.903721,1,1683969697.0754569
1.7136974,1.8104715,-0.28489465,0.75502944,1.3078625,2.1471913,2.6997445,8.056116,4.903721,1,1683969697.0908525
2.0789018,2.2940972,-0.5973519,0.75502944,1.3078625,2.1471913,2.6997445,8.056116,4.903721,1,1683969697.095946
2.1582355,2.51472,-0.66089225,0.75502944,1.3078625,2.1471913,2.6997445,8.056116,4.903721,1,1683969697.1111948
2.1582355,2.51472,-0.66089225,0.12904528,0.753655,0.81290895,2.6997445,8.056116,4.903721,1,1683969697.126569
2.1582355,2.51472,-0.66089225,0.12904528,0.753655,0.81290895,2.8041909,8.041204,4.8694606,1,1683969697.1317008
1.9742006,2.4476428,-0.48600397,0.12904528,0.753655,0.81290895,2.8041909,8.041204,4.8694606,1,1683969697.1368027
1.9742006,2.4476428,-0.48600397,0.12904528,0.753655,0.81290895,2.822978,8.029616,4.8777237,1,1683969697.1521447
1.9742006,2.4476428,-0.48600397,-0.56596667,0.16126843,-0.7666359,2.822978,8.029616,4.8777237,1,1683969697.167525
1.9742006,2.4476428,-0.48600397,-1.014189,-0.0364992,-1.7600555,2.822978,8.029616,4.8777237,1,1683969697.188001
1.9742006,2.4476428,-0.48600397,-1.014189,-0.0364992,-1.7600555,2.7481394,8.030241,4.9192567,1,1683969697.1931312
1.6956476,2.2318375,-0.3064203,-1.014189,-0.0364992,-1.7600555,2.7481394,8.030241,4.9192567,1,1683969697.2033134
1.3885566,1.9379181,-0.14378887,-1.014189,-0.0364992,-1.7600555,2.7481394,8.030241,4.9192567,1,1683969697.2237513
1.3885566,1.9379181,-0.14378887,-1.014189,-0.0364992,-1.7600555,2.6145587,8.031952,4.9887815,1,1683969697.228881
1.3885566,1.9379181,-0.14378887,-1.3979651,-0.114689946,-2.463314,2.6145587,8.031952,4.9887815,1,1683969697.2340093
1.0633547,1.4858793,0.051649354,-1.3979651,-0.114689946,-2.463314,2.6145587,8.031952,4.9887815,1,1683969697.2545202
1.0633547,1.4858793,0.051649354,-1.3979651,-0.114689946,-2.463314,2.4380004,8.027672,5.084167,1,1683969697.259648
1.0633547,1.4858793,0.051649354,-1.7899879,-0.14004086,-3.0876184,2.4380004,8.027672,5.084167,1,1683969697.275036
0.65137947,0.8971865,0.25513685,-1.7899879,-0.14004086,-3.0876184,2.4380004,8.027672,5.084167,1,1683969697.2852933
0.65137947,0.8971865,0.25513685,-2.138792,-0.18387043,-3.5737145,2.4380004,8.027672,5.084167,1,1683969697.2904246
0.65137947,0.8971865,0.25513685,-2.138792,-0.18387043,-3.5737145,2.111425,7.9990444,5.271933,1,1683969697.2955542
0.44002566,0.6453425,0.34953257,-2.138792,-0.18387043,-3.5737145,2.111425,7.9990444,5.271933,1,1683969697.32102
0.44002566,0.6453425,0.34953257,-2.138792,-0.18387043,-3.5737145,1.9902334,7.980578,5.346538,1,1683969697.3311946
0.44002566,0.6453425,0.34953257,-2.2627976,-0.2049453,-3.68535,1.9902334,7.980578,5.346538,1,1683969697.346578
-0.09177365,-0.00085370836,0.6488183,-2.2627976,-0.2049453,-3.68535,1.9902334,7.980578,5.346538,1,1683969697.3670878
-0.09177365,-0.00085370836,0.6488183,-2.5218043,-0.26374108,-3.73651,1.9902334,7.980578,5.346538,1,1683969697.3722138
-0.09177365,-0.00085370836,0.6488183,-2.5218043,-0.26374108,-3.73651,1.735568,7.92257,5.5187683,1,1683969697.3824737
-0.09177365,-0.00085370836,0.6488183,-2.5514314,-0.20265454,-3.452763,1.735568,7.92257,5.5187683,1,1683969697.4080958
-0.09177365,-0.00085370836,0.6488183,-2.5514314,-0.20265454,-3.452763,1.3472563,7.7845325,5.8156743,1,1683969697.4131863
-0.6304636,-0.6297319,1.1712879,-2.5514314,-0.20265454,-3.452763,1.3472563,7.7845325,5.8156743,1,1683969697.4182677
-0.6304636,-0.6297319,1.1712879,-2.1181753,0.14630222,-2.6919305,1.3472563,7.7845325,5.8156743,1,1683969697.4387004
-1.1343344,-1.1575066,1.6579015,-2.1181753,0.14630222,-2.6919305,1.3472563,7.7845325,5.8156743,1,1683969697.4438336
-1.1343344,-1.1575066,1.6579015,-2.1181753,0.14630222,-2.6919305,1.1105132,7.675783,6.0070987,1,1683969697.4489675
-1.5714941,-1.4374009,1.8972448,-2.1181753,0.14630222,-2.6919305,1.1105132,7.675783,6.0070987,1,1683969697.4745705
-1.5714941,-1.4374009,1.8972448,-1.4033102,0.46578476,-1.5682437,1.1105132,7.675783,6.0070987,1,1683969697.4796922
-1.5714941,-1.4374009,1.8972448,-1.4033102,0.46578476,-1.5682437,0.90783507,7.573051,6.169346,1,1683969697.4848154
-1.5714941,-1.4374009,1.8972448,0.045662176,0.62995476,0.43127087,0.90783507,7.573051,6.169346,1,1683969697.5053234
-1.6001543,-0.99243593,1.7399796,3.0448577,0.30268374,3.5899024,0.87801343,7.5686154,6.1790986,1,1683969697.5157158
-0.3530694,-0.107933134,0.7827286,3.9231293,0.28955013,4.4306054,1.0995393,7.696363,5.9827356,1,1683969697.5209084
0.39081547,0.48368677,0.2566613,4.3644795,0.39767328,4.788878,1.3921881,7.8466573,5.72083,1,1683969697.5260851
0.39081547,0.48368677,0.2566613,4.3644795,0.39767328,4.788878,1.8953671,8.070666,5.24481,1,1683969697.5465364
1.2287912,1.373068,-0.5383241,4.3644795,0.39767328,4.788878,1.8953671,8.070666,5.24481,1,1683969697.561915
1.2287912,1.373068,-0.5383241,4.030489,0.22892176,4.3826528,1.8953671,8.070666,5.24481,1,1683969697.567052
1.2287912,1.373068,-0.5383241,3.3794591,-0.011759156,3.8153117,1.8953671,8.070666,5.24481,1,1683969697.5926638
1.2287912,1.373068,-0.5383241,3.3794591,-0.011759156,3.8153117,2.0564377,8.127982,5.0934362,1,1683969697.5977938
1.5955199,1.7926046,-0.7852288,3.3794591,-0.011759156,3.8153117,2.0564377,8.127982,5.0934362,1,1683969697.6029296
1.5955199,1.7926046,-0.7852288,2.0787745,-0.11911872,2.5361598,2.0564377,8.127982,5.0934362,1,1683969697.6285737
1.5955199,1.7926046,-0.7852288,2.0787745,-0.11911872,2.5361598,2.4673357,8.232153,4.730755,1,1683969697.633663
2.0265207,2.2836697,-0.9738373,2.0787745,-0.11911872,2.5361598,2.4673357,8.232153,4.730755,1,1683969697.6387568
2.0265207,2.2836697,-0.9738373,2.0787745,-0.11911872,2.5361598,0.92857474,7.6072764,6.123986,1,1683969697.6541445
-1.0567081,-0.9136509,1.8368754,2.0787745,-0.11911872,2.5361598,0.92857474,7.6072764,6.123986,1,1683969697.659238
-1.0567081,-0.9136509,1.8368754,-1.7638733,-0.26832256,-2.402533,0.92857474,7.6072764,6.123986,1,1683969697.6643705
-1.0567081,-0.9136509,1.8368754,-0.3819435,-0.08903361,-1.0792462,0.92857474,7.6072764,6.123986,1,1683969697.695036
-1.0567081,-0.9136509,1.8368754,-0.3819435,-0.08903361,-1.0792462,0.7711956,7.518425,6.2541714,1,1683969697.705296
-1.3128206,-1.0203035,1.9451134,-0.3819435,-0.08903361,-1.0792462,0.7711956,7.518425,6.2541714,1,1683969697.7104099
-1.3128206,-1.0203035,1.9451134,0.7069238,-0.059864793,0.06994407,0.7711956,7.518425,6.2541714,1,1683969697.7358937
-1.3478225,-0.9368229,1.7940682,0.7069238,-0.059864793,0.06994407,0.7711956,7.518425,6.2541714,1,1683969697.7410314
-1.3478225,-0.9368229,1.7940682,0.7069238,-0.059864793,0.06994407,0.6581835,7.483853,6.3083167,1,1683969697.74616
-1.3478225,-0.9368229,1.7940682,1.5517504,-0.07376198,1.1081096,0.6581835,7.483853,6.3083167,1,1683969697.7666385
-1.2128756,-0.80285174,1.5833851,1.5517504,-0.07376198,1.1081096,0.6581835,7.483853,6.3083167,1,1683969697.7717752
-1.2128756,-0.80285174,1.5833851,1.5517504,-0.07376198,1.1081096,0.67580014,7.525872,6.25625,1,1683969697.7769074
-1.2128756,-0.80285174,1.5833851,1.5517504,-0.07376198,1.1081096,0.76231223,7.603336,6.151769,1,1683969697.797436
-0.8863932,-0.58204615,1.2839774,1.5517504,-0.07376198,1.1081096,0.76231223,7.603336,6.151769,1,1683969697.8076923
-0.8863932,-0.58204615,1.2839774,2.272266,0.03604105,2.286316,0.76231223,7.603336,6.151769,1,1683969697.8178785
-0.45380697,-0.2745282,1.0571349,2.272266,0.03604105,2.286316,0.76231223,7.603336,6.151769,1,1683969697.838331
-0.45380697,-0.2745282,1.0571349,2.272266,0.03604105,2.286316,0.90902966,7.6993337,6.0108256,1,1683969697.8434496
-0.45380697,-0.2745282,1.0571349,2.5922067,0.23564127,3.0740266,0.90902966,7.6993337,6.0108256,1,1683969697.8485837
0.17635176,0.3158111,0.86309916,2.5922067,0.23564127,3.0740266,0.90902966,7.6993337,6.0108256,1,1683969697.8742378
0.17635176,0.3158111,0.86309916,2.5922067,0.23564127,3.0740266,1.2146213,7.8456354,5.762536,1,1683969697.8793292
0.17635176,0.3158111,0.86309916,2.6710083,0.7368562,3.5918877,1.2146213,7.8456354,5.762536,1,1683969697.8895898
0.17635176,0.3158111,0.86309916,2.6710083,0.7368562,3.5918877,1.4323384,7.9324975,5.5910645,1,1683969697.8998458
0.17635176,0.3158111,0.86309916,2.485458,1.2754866,3.5698965,1.4323384,7.9324975,5.5910645,1,1683969697.9049766
1.6770492,2.4724002,-0.74687284,2.485458,1.2754866,3.5698965,1.4323384,7.9324975,5.5910645,1,1683969697.920289
1.6770492,2.4724002,-0.74687284,0.77549344,-0.078343466,0.5558874,1.4323384,7.9324975,5.5910645,1,1683969697.9304976
1.6770492,2.4724002,-0.74687284,0.77549344,-0.078343466,0.5558874,2.042831,8.142297,5.0760174,1,1683969697.9356143
1.6770492,2.4724002,-0.74687284,0.009773844,-0.16035213,-0.3483459,2.042831,8.142297,5.0760174,1,1683969697.971533
1.6770492,2.4724002,-0.74687284,0.009773844,-0.16035213,-0.3483459,2.1178114,8.187221,4.9719625,1,1683969697.9766645
1.5555176,2.456119,-0.74705577,0.009773844,-0.16035213,-0.3483459,2.1178114,8.187221,4.9719625,1,1683969697.9817944
1.3683724,2.3062322,-0.70510215,0.009773844,-0.16035213,-0.3483459,2.1178114,8.187221,4.9719625,1,1683969697.9971902
1.3683724,2.3062322,-0.70510215,0.009773844,-0.16035213,-0.3483459,2.0894396,8.195583,4.9701867,1,1683969698.0176487
1.3683724,2.3062322,-0.70510215,-0.6908886,-0.21685717,-1.1255192,2.0894396,8.195583,4.9701867,1,1683969698.0227447
1.1260413,2.0218253,-0.6374762,-0.6908886,-0.21685717,-1.1255192,2.0894396,8.195583,4.9701867,1,1683969698.0381355
1.1260413,2.0218253,-0.6374762,-1.4992161,-0.3145956,-1.8944459,2.0894396,8.195583,4.9701867,1,1683969698.0483077
1.1260413,2.0218253,-0.6374762,-1.4992161,-0.3145956,-1.8944459,2.0094883,8.18674,5.017505,1,1683969698.053429
1.1260413,2.0218253,-0.6374762,-2.158034,-0.3622431,-2.3956609,2.0094883,8.18674,5.017505,1,1683969698.0688312
1.1260413,2.0218253,-0.6374762,-2.158034,-0.3622431,-2.3956609,1.8894627,8.157055,5.111604,1,1683969698.073929
0.91846824,1.6602799,-0.5084443,-2.158034,-0.3622431,-2.3956609,1.8894627,8.157055,5.111604,1,1683969698.08415
0.91846824,1.6602799,-0.5084443,-2.9678888,-0.35094208,-2.8919888,1.8894627,8.157055,5.111604,1,1683969698.099541
0.91846824,1.6602799,-0.5084443,-2.9678888,-0.35094208,-2.8919888,1.6496357,8.059817,5.3436093,1,1683969698.1148844
0.6463792,1.0991495,-0.16616823,-2.9678888,-0.35094208,-2.8919888,1.6496357,8.059817,5.3436093,1,1683969698.1250808
0.6463792,1.0991495,-0.16616823,-2.9678888,-0.35094208,-2.8919888,1.4602369,7.9516954,5.5564694,1,1683969698.140378
0.6463792,1.0991495,-0.16616823,-3.4440582,-0.3494149,-3.1180089,1.4602369,7.9516954,5.5564694,1,1683969698.1506374
0.36288702,0.63332963,0.17818113,-3.4440582,-0.3494149,-3.1180089,1.4602369,7.9516954,5.5564694,1,1683969698.1609035
0.36288702,0.63332963,0.17818113,-3.6395352,-0.41126502,-3.1517591,1.4602369,7.9516954,5.5564694,1,1683969698.1813831
0.36288702,0.63332963,0.17818113,-3.6395352,-0.41126502,-3.1517591,1.3605729,7.882868,5.678499,1,1683969698.1864743
0.36288702,0.63332963,0.17818113,1.3843733,-0.15485434,0.78786343,1.3605729,7.882868,5.678499,1,1683969698.191608
0.36288702,0.63332963,0.17818113,1.3843733,-0.15485434,0.78786343,1.7381668,8.068585,5.302151,1,1683969698.1966953
1.3714216,2.144942,-0.5186888,1.3843733,-0.15485434,0.78786343,1.7381668,8.068585,5.302151,1,1683969698.2018213
1.3714216,2.144942,-0.5186888,0.8144361,-0.35155296,0.01450805,1.7381668,8.068585,5.302151,1,1683969698.2172165
1.3187355,2.1679316,-0.53265303,0.8144361,-0.35155296,0.01450805,1.7381668,8.068585,5.302151,1,1683969698.2223184
1.3187355,2.1679316,-0.53265303,0.8144361,-0.35155296,0.01450805,1.8451276,8.15611,5.129278,1,1683969698.2325
1.208912,2.1004274,-0.51905465,0.8144361,-0.35155296,0.01450805,1.8451276,8.15611,5.129278,1,1683969698.2529938
1.208912,2.1004274,-0.51905465,0.17898351,-0.34330627,-0.6942484,1.8451276,8.15611,5.129278,1,1683969698.2581296
1.208912,2.1004274,-0.51905465,0.17898351,-0.34330627,-0.6942484,1.854372,8.194738,5.063957,1,1683969698.2734673
1.0088394,1.8890127,-0.49545574,0.17898351,-0.34330627,-0.6942484,1.854372,8.194738,5.063957,1,1683969698.2939517
1.0088394,1.8890127,-0.49545574,0.17898351,-0.34330627,-0.6942484,1.8112124,8.215119,5.0465264,1,1683969698.299084
1.0088394,1.8890127,-0.49545574,-0.6272059,-0.23839016,-1.4141531,1.8112124,8.215119,5.0465264,1,1683969698.3042142
1.0088394,1.8890127,-0.49545574,-1.2799155,-0.14340061,-1.8672624,1.8112124,8.215119,5.0465264,1,1683969698.3195295
0.84706163,1.6427788,-0.4908823,-1.2799155,-0.14340061,-1.8672624,1.8112124,8.215119,5.0465264,1,1683969698.3348722
0.84706163,1.6427788,-0.4908823,-1.2799155,-0.14340061,-1.8672624,1.7225676,8.214626,5.0782666,1,1683969698.3400064
0.84706163,1.6427788,-0.4908823,-2.0039434,-0.048716504,-2.265852,1.7225676,8.214626,5.0782666,1,1683969698.3604927
0.84706163,1.6427788,-0.4908823,-2.0039434,-0.048716504,-2.265852,1.5962658,8.188985,5.1602883,1,1683969698.3656235
0.6600995,1.3047103,-0.43252525,-2.0039434,-0.048716504,-2.265852,1.5962658,8.188985,5.1602883,1,1683969698.381014
0.6600995,1.3047103,-0.43252525,-2.0039434,-0.048716504,-2.265852,1.5203007,8.164401,5.221815,1,1683969698.4014583
0.4502092,0.9204195,-0.2031826,-2.0039434,-0.048716504,-2.265852,1.5203007,8.164401,5.221815,1,1683969698.406593
0.4502092,0.9204195,-0.2031826,-2.8619037,0.056046885,-2.6407704,1.5203007,8.164401,5.221815,1,1683969698.4117146
0.14037405,0.4223417,0.20501198,-2.8619037,0.056046885,-2.6407704,1.5203007,8.164401,5.221815,1,1683969698.4322267
0.14037405,0.4223417,0.20501198,-3.3035593,0.093767814,-2.7704265,1.5203007,8.164401,5.221815,1,1683969698.44761
0.14037405,0.4223417,0.20501198,0.9763154,-0.022143865,0.68737614,1.5203007,8.164401,5.221815,1,1683969698.4732642
1.6368638,2.403433,-0.43215933,0.9763154,-0.022143865,0.68737614,1.5203007,8.164401,5.221815,1,1683969698.483515
1.6368638,2.403433,-0.43215933,0.9763154,-0.022143865,0.68737614,2.0502012,7.9786186,5.3267655,1,1683969698.4937832
1.5363091,2.3804438,-0.4306959,0.9763154,-0.022143865,0.68737614,2.0502012,7.9786186,5.3267655,1,1683969698.5091724
1.5363091,2.3804438,-0.4306959,0.48502702,-0.2751948,-0.23044892,2.0502012,7.9786186,5.3267655,1,1683969698.5245593
1.5363091,2.3804438,-0.4306959,0.48502702,-0.2751948,-0.23044892,2.0934212,8.017488,5.2510567,1,1683969698.529693
1.308125,2.1859813,-0.3782538,0.48502702,-0.2751948,-0.23044892,2.0934212,8.017488,5.2510567,1,1683969698.5501983
1.308125,2.1859813,-0.3782538,-0.1994475,-0.33841935,-1.1916454,2.0934212,8.017488,5.2510567,1,1683969698.5552905
1.308125,2.1859813,-0.3782538,-0.1994475,-0.33841935,-1.1916454,2.080876,8.04801,5.2091827,1,1683969698.5655477
1.1227485,1.9740785,-0.3608747,-0.1994475,-0.33841935,-1.1916454,2.080876,8.04801,5.2091827,1,1683969698.5911486
1.1227485,1.9740785,-0.3608747,-0.1994475,-0.33841935,-1.1916454,2.0151856,8.066095,5.207039,1,1683969698.5962772
1.1227485,1.9740785,-0.3608747,-0.75900006,-0.28008172,-1.7794504,2.0151856,8.066095,5.207039,1,1683969698.6013668
0.9018819,1.5758846,-0.32282373,-0.75900006,-0.28008172,-1.7794504,2.0151856,8.066095,5.207039,1,1683969698.616756
0.9018819,1.5758846,-0.32282373,-1.5331191,-0.15225816,-2.381,2.0151856,8.066095,5.207039,1,1683969698.6321433
0.9018819,1.5758846,-0.32282373,-1.5331191,-0.15225816,-2.381,1.8332438,8.058972,5.2847233,1,1683969698.6372797
0.9018819,1.5758846,-0.32282373,-2.1949916,-0.040011674,-2.7731755,1.8332438,8.058972,5.2847233,1,1683969698.662928
0.6855278,1.1698244,-0.18744996,-2.1949916,-0.040011674,-2.7731755,1.8332438,8.058972,5.2847233,1,1683969698.6680202
0.6855278,1.1698244,-0.18744996,-2.1949916,-0.040011674,-2.7731755,1.6646302,8.02101,5.397082,1,1683969698.6731486
0.6855278,1.1698244,-0.18744996,-2.1949916,-0.040011674,-2.7731755,1.4673613,7.9492245,5.5581293,1,1683969698.6987865
0.43923298,0.7485803,0.030611541,-2.1949916,-0.040011674,-2.7731755,1.4673613,7.9492245,5.5581293,1,1683969698.7039175
0.43923298,0.7485803,0.030611541,-2.8728993,0.016035212,-3.0981557,1.4673613,7.9492245,5.5581293,1,1683969698.709051
0.43923298,0.7485803,0.030611541,-3.1144965,-0.07086037,-3.1638238,1.4673613,7.9492245,5.5581293,1,1683969698.72441
0.43923298,0.7485803,0.030611541,-3.1144965,-0.07086037,-3.1638238,1.2532133,7.8407626,5.7609034,1,1683969698.72954
0.14506944,0.32062846,0.3041031,-3.1144965,-0.07086037,-3.1638238,1.2532133,7.8407626,5.7609034,1,1683969698.7346663
1.747541,2.3989813,-0.52204263,-3.1144965,-0.07086037,-3.1638238,1.2532133,7.8407626,5.7609034,1,1683969698.7552056
1.747541,2.3989813,-0.52204263,-3.1144965,-0.07086037,-3.1638238,2.1694558,8.096739,5.0963125,1,1683969698.7603374
1.747541,2.3989813,-0.52204263,1.4431691,-0.43401974,0.84681195,2.1694558,8.096739,5.0963125,1,1683969698.7705965
1.747541,2.3989813,-0.52204263,0.6731735,-0.42164972,-0.060322944,2.1694558,8.096739,5.0963125,1,1683969698.796196
1.5610057,2.385444,-0.5245428,0.6731735,-0.42164972,-0.060322944,2.1694558,8.096739,5.0963125,1,1683969698.8013246
1.5610057,2.385444,-0.5245428,0.6731735,-0.42164972,-0.060322944,2.2390776,8.146516,4.985672,1,1683969698.8064563
1.3191624,2.218971,-0.47807667,0.6731735,-0.42164972,-0.060322944,2.2390776,8.146516,4.985672,1,1683969698.8321044
1.3191624,2.218971,-0.47807667,-0.3061962,-0.25595254,-0.9279043,2.2390776,8.146516,4.985672,1,1683969698.8372324
1.3191624,2.218971,-0.47807667,-0.3061962,-0.25595254,-0.9279043,2.2430482,8.177288,4.933234,1,1683969698.842362
1.3191624,2.218971,-0.47807667,-0.3061962,-0.25595254,-0.9279043,2.1904252,8.186398,4.9417663,1,1683969698.857722
1.1317123,2.0279841,-0.44569677,-0.3061962,-0.25595254,-0.9279043,2.1904252,8.186398,4.9417663,1,1683969698.873114
1.1317123,2.0279841,-0.44569677,-1.0699304,-0.0936151,-1.4856243,2.1904252,8.186398,4.9417663,1,1683969698.8782473
1.1317123,2.0279841,-0.44569677,-1.9611828,0.111941054,-2.0662518,2.1904252,8.186398,4.9417663,1,1683969698.8935983
1.1317123,2.0279841,-0.44569677,-1.9611828,0.111941054,-2.0662518,2.089212,8.171501,5.009779,1,1683969698.9089823
0.9062724,1.6561333,-0.33611718,-1.9611828,0.111941054,-2.0662518,2.089212,8.171501,5.009779,1,1683969698.9141138
0.9062724,1.6561333,-0.33611718,-2.604424,0.22937989,-2.4718661,2.089212,8.171501,5.009779,1,1683969698.939691
0.9062724,1.6561333,-0.33611718,-2.604424,0.22937989,-2.4718661,1.8613403,8.097755,5.2151575,1,1683969698.9448287
0.7065656,1.2629396,-0.15610667,-2.604424,0.22937989,-2.4718661,1.8613403,8.097755,5.2151575,1,1683969698.949962
0.5214329,0.94285995,0.027196707,-2.604424,0.22937989,-2.4718661,1.8613403,8.097755,5.2151575,1,1683969698.9756193
0.5214329,0.94285995,0.027196707,-2.604424,0.22937989,-2.4718661,1.768388,8.057935,5.3083534,1,1683969698.9807506
0.5214329,0.94285995,0.027196707,-3.1048753,0.2967278,-2.770274,1.768388,8.057935,5.3083534,1,1683969698.9858859
0.5214329,0.94285995,0.027196707,-3.1048753,0.2967278,-2.770274,1.4569154,7.8905454,5.643828,1,1683969699.0064063
0.15933856,0.3999014,0.38776654,-3.1048753,0.2967278,-2.770274,1.4569154,7.8905454,5.643828,1,1683969699.0115373
0.15933856,0.3999014,0.38776654,-1.5158621,-0.729984,-1.9645426,1.4569154,7.8905454,5.643828,1,1683969699.0320492
-0.8835272,-0.7179077,1.6547917,-1.5158621,-0.729984,-1.9645426,1.4569154,7.8905454,5.643828,1,1683969699.0423086
-0.8835272,-0.7179077,1.6547917,-1.5158621,-0.729984,-1.9645426,0.72274977,7.1986427,6.6252007,1,1683969699.047431
-0.8835272,-0.7179077,1.6547917,-0.14660765,-0.8008443,-0.8756753,0.72274977,7.1986427,6.6252007,1,1683969699.0627797
-1.1812274,-0.8619405,1.8897444,-0.14660765,-0.8008443,-0.8756753,0.72274977,7.1986427,6.6252007,1,1683969699.0781662
-1.1812274,-0.8619405,1.8897444,-0.14660765,-0.8008443,-0.8756753,0.64557517,7.125078,6.7121243,1,1683969699.08326
-1.1812274,-0.8619405,1.8897444,0.9627236,-0.75854194,0.15515977,0.64557517,7.125078,6.7121243,1,1683969699.1037943
-1.1812274,-0.8619405,1.8897444,0.9627236,-0.75854194,0.15515977,0.6297238,7.112681,6.7267623,1,1683969699.114062
-1.2588539,-0.837061,1.8805366,0.9627236,-0.75854194,0.15515977,0.6297238,7.112681,6.7267623,1,1683969699.1192083
-1.1955576,-0.70040673,1.6505232,0.9627236,-0.75854194,0.15515977,0.6297238,7.112681,6.7267623,1,1683969699.1294768
-1.1955576,-0.70040673,1.6505232,2.127491,-0.5832236,1.5138768,0.6297238,7.112681,6.7267623,1,1683969699.1397479
-1.1955576,-0.70040673,1.6505232,2.127491,-0.5832236,1.5138768,0.7230698,7.20489,6.6183724,1,1683969699.1500404
-0.9315177,-0.5075906,1.4060577,2.7780623,-0.30008754,2.581211,0.86154664,7.3187056,6.4753685,1,1683969699.1757994
-0.9315177,-0.5075906,1.4060577,3.1555772,0.18768835,3.4666603,0.86154664,7.3187056,6.4753685,1,1683969699.1809416
-0.43161055,-0.17208321,1.1257365,3.1555772,0.18768835,3.4666603,0.86154664,7.3187056,6.4753685,1,1683969699.1860402
-0.43161055,-0.17208321,1.1257365,3.1555772,0.18768835,3.4666603,1.0513177,7.4499173,6.2952023,1,1683969699.196273
0.16189969,0.30184686,0.7851068,3.1555772,0.18768835,3.4666603,1.0513177,7.4499173,6.2952023,1,1683969699.201404
0.16189969,0.30184686,0.7851068,3.2415564,0.7648033,3.9535198,1.0513177,7.4499173,6.2952023,1,1683969699.2116692
0.16189969,0.30184686,0.7851068,3.2415564,0.7648033,3.9535198,1.1601294,7.515938,6.196844,1,1683969699.2168057
0.7748623,0.92633456,0.31245726,3.2415564,0.7648033,3.9535198,1.1601294,7.515938,6.196844,1,1683969699.2424793
0.7748623,0.92633456,0.31245726,3.2415564,0.7648033,3.9535198,1.5120385,7.7015843,5.885189,1,1683969699.2578313
1.6367419,2.2708032,-0.562045,3.2415564,0.7648033,3.9535198,1.5120385,7.7015843,5.885189,1,1683969699.2681055
1.6367419,2.2708032,-0.562045,1.5589281,-0.51053065,0.82833326,1.5120385,7.7015843,5.885189,1,1683969699.2732458
1.6367419,2.2708032,-0.562045,1.5589281,-0.51053065,0.82833326,2.124099,8.193053,4.9596553,1,1683969699.2886536
1.5647255,2.2951338,-0.5964372,1.5589281,-0.51053065,0.82833326,2.124099,8.193053,4.9596553,1,1683969699.3142908
1.5647255,2.2951338,-0.5964372,0.93034774,-0.7121162,-0.12217305,2.124099,8.193053,4.9596553,1,1683969699.3245196
1.5647255,2.2951338,-0.5964372,0.93034774,-0.7121162,-0.12217305,2.2138963,8.250678,4.8229737,1,1683969699.3296523
1.5647255,2.2951338,-0.5964372,-0.03772093,-0.6377433,-1.1209377,2.2138963,8.250678,4.8229737,1,1683969699.3501794
1.5647255,2.2951338,-0.5964372,-0.03772093,-0.6377433,-1.1209377,2.2400756,8.297454,4.72974,1,1683969699.355278
1.317211,2.1324415,-0.57033813,-0.03772093,-0.6377433,-1.1209377,2.2400756,8.297454,4.72974,1,1683969699.3603816
1.317211,2.1324415,-0.57033813,-0.03772093,-0.6377433,-1.1209377,2.1623068,8.334142,4.701343,1,1683969699.3757427
1.317211,2.1324415,-0.57033813,-0.8567385,-0.45234573,-1.6766723,2.1623068,8.334142,4.701343,1,1683969699.380882
1.0752456,1.9223074,-0.56003267,-0.8567385,-0.45234573,-1.6766723,2.1623068,8.334142,4.701343,1,1683969699.4013839
1.0752456,1.9223074,-0.56003267,-1.6775887,-0.2012801,-2.0570886,2.1623068,8.334142,4.701343,1,1683969699.4065166
1.0752456,1.9223074,-0.56003267,-1.6775887,-0.2012801,-2.0570886,2.0494926,8.326656,4.7647123,1,1683969699.411659
0.8620625,1.6597921,-0.47679612,-1.6775887,-0.2012801,-2.0570886,2.0494926,8.326656,4.7647123,1,1683969699.4219222
0.7443117,1.4416695,-0.37477797,-1.6775887,-0.2012801,-2.0570886,2.0494926,8.326656,4.7647123,1,1683969699.4577854
0.7443117,1.4416695,-0.37477797,-2.4355197,0.088728175,-2.3420575,2.0494926,8.326656,4.7647123,1,1683969699.4629197
0.7443117,1.4416695,-0.37477797,-2.4355197,0.088728175,-2.3420575,1.9786252,8.311112,4.8214703,1,1683969699.4680595
0.7443117,1.4416695,-0.37477797,-2.4355197,0.088728175,-2.3420575,1.7178283,8.213031,5.0824504,1,1683969699.4937174
0.7443117,1.4416695,-0.37477797,-3.1054862,0.37094793,-2.605951,1.7178283,8.213031,5.0824504,1,1683969699.4988537
0.5454587,1.0316455,-0.16854642,-3.1054862,0.37094793,-2.605951,1.7178283,8.213031,5.0824504,1,1683969699.5039878
0.27788207,0.59107107,0.07750452,-3.1054862,0.37094793,-2.605951,1.7178283,8.213031,5.0824504,1,1683969699.5193574
0.27788207,0.59107107,0.07750452,-3.1054862,0.37094793,-2.605951,1.5068913,8.102771,5.3207607,1,1683969699.539882
0.27788207,0.59107107,0.07750452,-3.1054862,0.37094793,-2.605951,2.042114,8.062452,5.202186,1,1683969699.545018
0.27788207,0.59107107,0.07750452,1.703245,0.23564127,1.7282904,2.042114,8.062452,5.202186,1,1683969699.5501466
1.60424,2.3549545,-0.6612581,1.703245,0.23564127,1.7282904,2.042114,8.062452,5.202186,1,1683969699.5757313
1.60424,2.3549545,-0.6612581,1.180497,-0.27687466,0.7787005,2.042114,8.062452,5.202186,1,1683969699.5808647
1.60424,2.3549545,-0.6612581,1.180497,-0.27687466,0.7787005,2.1654828,8.114879,5.0690765,1,1683969699.5859609
1.5247232,2.3525155,-0.6152188,1.180497,-0.27687466,0.7787005,2.1654828,8.114879,5.0690765,1,1683969699.6065066
1.5247232,2.3525155,-0.6152188,0.3717115,-0.63514715,-0.37323865,2.1654828,8.114879,5.0690765,1,1683969699.6116407
1.5247232,2.3525155,-0.6152188,0.3717115,-0.63514715,-0.37323865,2.2412405,8.158591,4.9649096,1,1683969699.616768
1.5247232,2.3525155,-0.6152188,-0.34956762,-0.5357288,-1.1232284,2.2412405,8.158591,4.9649096,1,1683969699.6372287
1.3175769,2.1670778,-0.50795645,-0.34956762,-0.5357288,-1.1232284,2.2412405,8.158591,4.9649096,1,1683969699.6423633
1.3175769,2.1670778,-0.50795645,-0.34956762,-0.5357288,-1.1232284,2.2482104,8.201493,4.8905168,1,1683969699.6577208
1.3175769,2.1670778,-0.50795645,-0.34956762,-0.5357288,-1.1232284,2.1787138,8.207903,4.9111776,1,1683969699.683355
1.3175769,2.1670778,-0.50795645,-1.3016012,-0.25503623,-1.8289305,2.1787138,8.207903,4.9111776,1,1683969699.6884923
1.0442683,1.8872442,-0.47197875,-1.3016012,-0.25503623,-1.8289305,2.1787138,8.207903,4.9111776,1,1683969699.6936305
0.84157354,1.5727137,-0.34934965,-1.3016012,-0.25503623,-1.8289305,2.1787138,8.207903,4.9111776,1,1683969699.71416
0.84157354,1.5727137,-0.34934965,-2.0696115,0.03680463,-2.2421808,2.1787138,8.207903,4.9111776,1,1683969699.724385
0.84157354,1.5727137,-0.34934965,-2.0696115,0.03680463,-2.2421808,2.0585983,8.189007,4.9938426,1,1683969699.7346466
0.69876033,1.3037956,-0.21434177,-2.0696115,0.03680463,-2.2421808,2.0585983,8.189007,4.9938426,1,1683969699.7500474
0.69876033,1.3037956,-0.21434177,-2.760042,0.34437528,-2.568383,2.0585983,8.189007,4.9938426,1,1683969699.7552001
0.69876033,1.3037956,-0.21434177,-2.760042,0.34437528,-2.568383,1.895975,8.138652,5.1384573,1,1683969699.7705963
0.69876033,1.3037956,-0.21434177,-3.2980614,0.5170974,-2.8394544,1.895975,8.138652,5.1384573,1,1683969699.7757368
0.69876033,1.3037956,-0.21434177,-3.2980614,0.5170974,-2.8394544,1.6970447,8.053948,5.337609,1,1683969699.780875
0.42941532,0.84090275,0.018659625,-3.2980614,0.5170974,-2.8394544,1.6970447,8.053948,5.337609,1,1683969699.8013613
0.42941532,0.84090275,0.018659625,-3.169627,-0.17150041,-2.765845,1.6970447,8.053948,5.337609,1,1683969699.827016
-0.6610142,-0.5107615,1.1780565,-3.169627,-0.17150041,-2.765845,1.6970447,8.053948,5.337609,1,1683969699.8424041
-0.6610142,-0.5107615,1.1780565,-3.169627,-0.17150041,-2.765845,0.5746138,7.5495744,6.2377777,1,1683969699.847534
-1.1311636,-0.79882705,1.7877263,-3.169627,-0.17150041,-2.765845,0.5746138,7.5495744,6.2377777,1,1683969699.8781939
-1.1311636,-0.79882705,1.7877263,-3.169627,-0.17150041,-2.765845,0.3887042,7.3702426,6.46255,1,1683969699.888391
-1.1311636,-0.79882705,1.7877263,-1.918575,-0.30298916,-1.8664987,0.3887042,7.3702426,6.46255,1,1683969699.8935237
-1.3399562,-0.8742583,1.946516,-1.918575,-0.30298916,-1.8664987,0.3887042,7.3702426,6.46255,1,1683969699.9037824
-1.3399562,-0.8742583,1.946516,-0.54168475,-0.36300668,-0.8226828,0.3887042,7.3702426,6.46255,1,1683969699.9140518
-1.3399562,-0.8742583,1.946516,-0.54168475,-0.36300668,-0.8226828,0.22148815,7.1980305,6.6614876,1,1683969699.9191406
-1.3399562,-0.8742583,1.946516,0.80939645,-0.4549419,0.26389378,0.22148815,7.1980305,6.6614876,1,1683969699.9396718
-1.3399562,-0.8742583,1.946516,0.80939645,-0.4549419,0.26389378,0.20113955,7.180668,6.680843,1,1683969699.9448051
-1.3734949,-0.8093155,1.8652308,0.80939645,-0.4549419,0.26389378,0.20113955,7.180668,6.680843,1,1683969699.9499407
-1.3734949,-0.8093155,1.8652308,0.80939645,-0.4549419,0.26389378,0.25478482,7.238427,6.6163716,1,1683969699.9806693
-1.2643421,-0.7163223,1.5857632,0.80939645,-0.4549419,0.26389378,0.25478482,7.238427,6.6163716,1,1683969699.9960742
-1.2643421,-0.7163223,1.5857632,2.152231,-0.48823404,1.5806139,0.25478482,7.238427,6.6163716,1,1683969700.001207
-0.97975224,-0.5687527,1.2862946,2.152231,-0.48823404,1.5806139,0.25478482,7.238427,6.6163716,1,1683969700.0165598
-0.97975224,-0.5687527,1.2862946,2.152231,-0.48823404,1.5806139,0.37770617,7.3519397,6.4840126,1,1683969700.0319235
-0.97975224,-0.5687527,1.2862946,2.8761063,-0.3323107,2.6025913,0.37770617,7.3519397,6.4840126,1,1683969700.0370586
-0.97975224,-0.5687527,1.2862946,3.2322407,0.0777326,3.4494033,0.37770617,7.3519397,6.4840126,1,1683969700.0421968
-0.50606614,-0.2903828,1.004083,3.2322407,0.0777326,3.4494033,0.37770617,7.3519397,6.4840126,1,1683969700.0626976
-0.50606614,-0.2903828,1.004083,3.2322407,0.0777326,3.4494033,0.56032205,7.495806,6.3035736,1,1683969700.0678217
0.1411058,0.23184279,0.6050353,3.2322407,0.0777326,3.4494033,0.56032205,7.495806,6.3035736,1,1683969700.0883026
0.1411058,0.23184279,0.6050353,3.2322407,0.0777326,3.4494033,0.9023101,7.710924,5.9969654,1,1683969700.098569
0.1411058,0.23184279,0.6050353,3.2322407,0.0777326,3.4494033,1.3923658,7.5250955,6.1376185,1,1683969700.1088293
0.6091819,0.5318603,0.4054505,3.2322407,0.0777326,3.4494033,1.3923658,7.5250955,6.1376185,1,1683969700.1190937
0.6091819,0.5318603,0.4054505,2.8125763,1.406059,4.5824056,1.3923658,7.5250955,6.1376185,1,1683969700.1242306
1.1890328,1.314223,0.0048783333,2.8125763,1.406059,4.5824056,1.3923658,7.5250955,6.1376185,1,1683969700.1293643
1.1890328,1.314223,0.0048783333,2.2756257,1.2299771,3.9605448,1.3923658,7.5250955,6.1376185,1,1683969700.155024
1.1890328,1.314223,0.0048783333,2.2756257,1.2299771,3.9605448,1.6373261,7.6131153,5.966216,1,1683969700.160154
1.4935018,1.8200452,-0.17677861,2.2756257,1.2299771,3.9605448,1.6373261,7.6131153,5.966216,1,1683969700.1754746
1.4935018,1.8200452,-0.17677861,1.9850066,0.6817256,3.1343496,1.6373261,7.6131153,5.966216,1,1683969700.1856503
1.4935018,1.8200452,-0.17677861,1.9850066,0.6817256,3.1343496,1.8586866,7.6779685,5.8163724,1,1683969700.1907349
1.674183,2.1865299,-0.3606918,1.9850066,0.6817256,3.1343496,1.8586866,7.6779685,5.8163724,1,1683969700.21119
1.674183,2.1865299,-0.3606918,1.9850066,0.6817256,3.1343496,2.1409311,7.759956,5.606748,1,1683969700.2214575
1.674183,2.1865299,-0.3606918,1.6836973,-0.29031372,1.9491183,2.1409311,7.759956,5.606748,1,1683969700.2265937
1.674183,2.1865299,-0.3606918,1.6836973,-0.29031372,1.9491183,2.293537,7.812649,5.4715915,1,1683969700.2368627
1.750651,2.3584914,-0.37038746,1.6836973,-0.29031372,1.9491183,2.293537,7.812649,5.4715915,1,1683969700.247137
1.750651,2.3584914,-0.37038746,1.3052663,-0.91599244,0.9654725,2.293537,7.812649,5.4715915,1,1683969700.257411
1.750651,2.3584914,-0.37038746,0.57818395,-1.0812315,-0.26389378,2.293537,7.812649,5.4715915,1,1683969700.282958
1.6752806,2.3470273,-0.29135844,0.57818395,-1.0812315,-0.26389378,2.293537,7.812649,5.4715915,1,1683969700.2880924
1.6752806,2.3470273,-0.29135844,0.57818395,-1.0812315,-0.26389378,2.3980384,7.8606577,5.356827,1,1683969700.2983568
1.4802693,2.1995797,-0.24080674,0.57818395,-1.0812315,-0.26389378,2.3980384,7.8606577,5.356827,1,1683969700.3138087
1.4802693,2.1995797,-0.24080674,0.57818395,-1.0812315,-0.26389378,2.435619,7.898514,5.283687,1,1683969700.3292127
1.4802693,2.1995797,-0.24080674,-0.09132435,-0.8426886,-1.0202976,2.435619,7.898514,5.283687,1,1683969700.3343492
1.4802693,2.1995797,-0.24080674,-0.7996226,-0.47739118,-1.6103935,2.435619,7.898514,5.283687,1,1683969700.3548791
1.2160466,1.9527969,-0.19226731,-0.7996226,-0.47739118,-1.6103935,2.435619,7.898514,5.283687,1,1683969700.3651445
1.2160466,1.9527969,-0.19226731,-0.7996226,-0.47739118,-1.6103935,2.406925,7.920406,5.264029,1,1683969700.3702765
1.2160466,1.9527969,-0.19226731,1.8422168,1.227381,2.6467264,2.406925,7.920406,5.264029,1,1683969700.3753662
1.6258265,1.9320639,-0.08378538,1.8422168,1.227381,2.6467264,2.406925,7.920406,5.264029,1,1683969700.4008048
1.6258265,1.9320639,-0.08378538,1.8422168,1.227381,2.6467264,1.9567294,7.719409,5.7287035,1,1683969700.405919
1.6258265,1.9320639,-0.08378538,1.5850426,0.4700608,1.624138,1.9567294,7.719409,5.7287035,1,1683969700.416176
1.6258265,1.9320639,-0.08378538,1.5850426,0.4700608,1.624138,2.1583288,7.796644,5.548879,1,1683969700.426442
1.771079,2.228057,-0.33648303,1.5850426,0.4700608,1.624138,2.1583288,7.796644,5.548879,1,1683969700.4418278
1.771079,2.228057,-0.33648303,1.1965322,-0.60918534,0.23151793,2.1583288,7.796644,5.548879,1,1683969700.4521136
1.771079,2.228057,-0.33648303,1.1965322,-0.60918534,0.23151793,2.2513652,7.852214,5.43233,1,1683969700.4674988
1.8269969,2.4280684,-0.45581928,1.1965322,-0.60918534,0.23151793,2.2513652,7.852214,5.43233,1,1683969700.472635
1.6927818,2.3548934,-0.3949011,1.1965322,-0.60918534,0.23151793,2.2513652,7.852214,5.43233,1,1683969700.4982183
1.6927818,2.3548934,-0.3949011,1.1965322,-0.60918534,0.23151793,2.304668,7.9120345,5.3220615,1,1683969700.5084448
1.6927818,2.3548934,-0.3949011,0.7293731,-1.2040154,-0.86254174,2.304668,7.9120345,5.3220615,1,1683969700.5135727
1.375751,2.0716453,-0.33160472,0.7293731,-1.2040154,-0.86254174,2.304668,7.9120345,5.3220615,1,1683969700.5341024
1.375751,2.0716453,-0.33160472,0.7293731,-1.2040154,-0.86254174,2.305513,7.9697266,5.234899,1,1683969700.5391936
1.375751,2.0716453,-0.33160472,-0.04505131,-1.3074044,-1.894904,2.305513,7.9697266,5.234899,1,1683969700.549472
1.375751,2.0716453,-0.33160472,-0.04505131,-1.3074044,-1.894904,2.2487416,8.0152645,5.18794,1,1683969700.5751274
1.1536648,1.8713286,-0.29843205,-0.04505131,-1.3074044,-1.894904,2.2487416,8.0152645,5.18794,1,1683969700.5802383
1.1536648,1.8713286,-0.29843205,-0.7690793,-1.042747,-2.4223862,2.2487416,8.0152645,5.18794,1,1683969700.5853388
0.88011235,1.4552679,-0.21324414,-0.7690793,-1.042747,-2.4223862,2.2487416,8.0152645,5.18794,1,1683969700.6006644
0.88011235,1.4552679,-0.21324414,-1.5364788,-0.5662721,-2.7534752,2.2487416,8.0152645,5.18794,1,1683969700.6057992
0.88011235,1.4552679,-0.21324414,-1.5364788,-0.5662721,-2.7534752,2.1390052,8.037504,5.201855,1,1683969700.6212003
0.88011235,1.4552679,-0.21324414,-1.5364788,-0.5662721,-2.7534752,1.888009,8.008278,5.342191,1,1683969700.636551
0.88011235,1.4552679,-0.21324414,-2.2676845,-0.059864793,-3.006526,1.888009,8.008278,5.342191,1,1683969700.6468234
-0.13269067,-0.0866514,0.6488183,-2.2676845,-0.059864793,-3.006526,1.888009,8.008278,5.342191,1,1683969700.6519425
-0.13269067,-0.0866514,0.6488183,-2.7774515,-0.08964448,-3.6131153,1.888009,8.008278,5.342191,1,1683969700.6672938
-0.13269067,-0.0866514,0.6488183,-2.7774515,-0.08964448,-3.6131153,1.0798124,7.3988204,6.3504004,1,1683969700.6724288
-0.13269067,-0.0866514,0.6488183,-2.7774515,-0.08964448,-3.6131153,0.84379536,7.2582684,6.5453544,1,1683969700.703072
-0.13269067,-0.0866514,0.6488183,-2.304031,-0.2845105,-3.2215507,0.84379536,7.2582684,6.5453544,1,1683969700.7081985
-0.6147919,-0.52765274,1.1464083,-2.304031,-0.2845105,-3.2215507,0.84379536,7.2582684,6.5453544,1,1683969700.7184658
-0.6147919,-0.52765274,1.1464083,-1.5716035,-0.25885415,-2.5612051,0.84379536,7.2582684,6.5453544,1,1683969700.7338614
-0.6147919,-0.52765274,1.1464083,-1.5716035,-0.25885415,-2.5612051,0.64080733,7.131061,6.7062235,1,1683969700.7389994
-1.0112176,-0.7683985,1.4643537,-1.5716035,-0.25885415,-2.5612051,0.64080733,7.131061,6.7062235,1,1683969700.7441363
-1.372763,-0.92572474,1.6863788,-1.5716035,-0.25885415,-2.5612051,0.64080733,7.131061,6.7062235,1,1683969700.7595296
-1.372763,-0.92572474,1.6863788,-1.5716035,-0.25885415,-2.5612051,0.42509714,7.0105867,6.8488746,1,1683969700.774901
-1.372763,-0.92572474,1.6863788,-0.36850446,-0.17821993,-1.3263412,0.42509714,7.0105867,6.8488746,1,1683969700.7902277
-1.4550849,-0.93523747,1.6660728,-0.36850446,-0.17821993,-1.3263412,0.42509714,7.0105867,6.8488746,1,1683969700.8055482
-1.4550849,-0.93523747,1.6660728,-0.36850446,-0.17821993,-1.3263412,0.38344374,6.9972787,6.864924,1,1683969700.810686
-1.4550849,-0.93523747,1.6660728,0.39660427,-0.1282817,-0.47067168,0.38344374,6.9972787,6.864924,1,1683969700.8158262
-1.4784399,-0.8826125,1.5321625,0.39660427,-0.1282817,-0.47067168,0.38344374,6.9972787,6.864924,1,1683969700.831189
-1.4784399,-0.8826125,1.5321625,1.320996,-0.071013086,0.68218374,0.38344374,6.9972787,6.864924,1,1683969700.8414543
-1.4784399,-0.8826125,1.5321625,1.320996,-0.071013086,0.68218374,0.35101745,7.014678,6.8488827,1,1683969700.8619628
-1.4784399,-0.8826125,1.5321625,1.320996,-0.071013086,0.68218374,0.4335975,7.1348724,6.7187586,1,1683969700.882466
-1.3536155,-0.81035215,1.2576344,1.320996,-0.071013086,0.68218374,0.4335975,7.1348724,6.7187586,1,1683969700.887617
-1.3536155,-0.81035215,1.2576344,2.2133174,0.012980887,2.1629212,0.4335975,7.1348724,6.7187586,1,1683969700.897888
-0.91767544,-0.6082062,0.95023835,2.2133174,0.012980887,2.1629212,0.4335975,7.1348724,6.7187586,1,1683969700.918426
-0.91767544,-0.6082062,0.95023835,2.2133174,0.012980887,2.1629212,0.5798152,7.25418,6.5785103,1,1683969700.9235637
-0.29337075,-0.20263378,0.6724173,2.2133174,0.012980887,2.1629212,0.5798152,7.25418,6.5785103,1,1683969700.94406
-0.29337075,-0.20263378,0.6724173,-3.372587,-0.19853121,-3.2914946,0.5798152,7.25418,6.5785103,1,1683969700.9491963
-0.29337075,-0.20263378,0.6724173,-3.372587,-0.19853121,-3.2914946,1.2045695,7.542718,6.155692,1,1683969700.954325
-0.29337075,-0.20263378,0.6724173,-2.9596422,-0.28955013,-2.893516,1.2045695,7.542718,6.155692,1,1683969700.9799898
-0.29337075,-0.20263378,0.6724173,-2.9596422,-0.28955013,-2.893516,0.9833221,7.370874,6.398391,1,1683969700.9902627
-0.60607195,-0.5450318,1.1438472,-2.9596422,-0.28955013,-2.893516,0.9833221,7.370874,6.398391,1,1683969700.9953964
-0.60607195,-0.5450318,1.1438472,-2.1653645,-0.2191479,-2.1878138,0.9833221,7.370874,6.398391,1,1683969701.0108173
-1.07427,-0.87877077,1.4938067,-2.1653645,-0.2191479,-2.1878138,0.9833221,7.370874,6.398391,1,1683969701.015977
-1.07427,-0.87877077,1.4938067,-2.1653645,-0.2191479,-2.1878138,0.7099228,7.126901,6.7036853,1,1683969701.0364711
-1.3945326,-0.94109154,1.6102768,-2.1653645,-0.2191479,-2.1878138,0.7099228,7.126901,6.7036853,1,1683969701.04674
-1.3945326,-0.94109154,1.6102768,-2.1653645,-0.2191479,-2.1878138,0.588861,7.013795,6.8334494,1,1683969701.0518441
-1.3945326,-0.94109154,1.6102768,-1.0454959,-0.18509217,-1.102001,0.588861,7.013795,6.8334494,1,1683969701.072342
-1.4866111,-0.8860883,1.5175886,-1.0454959,-0.18509217,-1.102001,0.588861,7.013795,6.8334494,1,1683969701.0774448
-1.4866111,-0.8860883,1.5175886,0.13087788,-0.32574388,0.11911872,0.588861,7.013795,6.8334494,1,1683969701.0825868
-1.4866111,-0.8860883,1.5175886,0.13087788,-0.32574388,0.11911872,0.5418821,6.9640846,6.887961,1,1683969701.0877142
-1.4866111,-0.8860883,1.5175886,1.4202617,-0.59421915,1.6904168,0.5418821,6.9640846,6.887961,1,1683969701.12874
-1.4211805,-0.7415676,1.3214796,1.4202617,-0.59421915,1.6904168,0.5418821,6.9640846,6.887961,1,1683969701.1338723
-1.4211805,-0.7415676,1.3214796,1.4202617,-0.59421915,1.6904168,0.58334327,6.980068,6.8683667,1,1683969701.1390047
-1.4211805,-0.7415676,1.3214796,2.1743748,-0.6397286,2.9234483,0.58334327,6.980068,6.8683667,1,1683969701.1595218
-1.1001861,-0.56594765,1.0981739,2.1743748,-0.6397286,2.9234483,0.58334327,6.980068,6.8683667,1,1683969701.1749148
-1.1001861,-0.56594765,1.0981739,2.1743748,-0.6397286,2.9234483,0.71657646,7.0492296,6.7846136,1,1683969701.1800594
-1.1001861,-0.56594765,1.0981739,2.1743748,-0.6397286,2.9234483,1.0654541,7.202047,6.5750628,1,1683969701.195424
-1.1001861,-0.56594765,1.0981739,2.6762006,-0.4934264,4.1540365,1.0654541,7.202047,6.5750628,1,1683969701.2108212
-1.1001861,-0.56594765,1.0981739,2.6762006,-0.4934264,4.1540365,1.2650018,7.3150663,6.412932,1,1683969701.221089
-0.13988622,0.09579827,0.6560749,2.6762006,-0.4934264,4.1540365,1.2650018,7.3150663,6.412932,1,1683969701.2262208
-0.40752378,-0.23586741,1.0074369,2.6762006,-0.4934264,4.1540365,1.2650018,7.3150663,6.412932,1,1683969701.2364492
-0.40752378,-0.23586741,1.0074369,2.6762006,-0.4934264,4.1540365,1.0350266,7.2100697,6.5711274,1,1683969701.2569366
-0.40752378,-0.23586741,1.0074369,-2.0998492,-0.070249505,-3.1555772,1.0350266,7.2100697,6.5711274,1,1683969701.2620301
-0.5968641,-0.4113045,1.1980578,-2.0998492,-0.070249505,-3.1555772,1.0350266,7.2100697,6.5711274,1,1683969701.2723143
-0.5968641,-0.4113045,1.1980578,-1.751656,0.011301007,-2.769663,1.0350266,7.2100697,6.5711274,1,1683969701.2877214
-0.5968641,-0.4113045,1.1980578,-1.751656,0.011301007,-2.769663,0.8204391,7.039863,6.7939267,1,1683969701.2979865
-0.5968641,-0.4113045,1.1980578,-1.1285735,0.10598512,-2.118939,0.8204391,7.039863,6.7939267,1,1683969701.3133986
-0.9755447,-0.7154076,1.5065514,-1.1285735,0.10598512,-2.118939,0.8204391,7.039863,6.7939267,1,1683969701.3236341
-0.9755447,-0.7154076,1.5065514,-1.1285735,0.10598512,-2.118939,0.54124594,6.943295,6.908966,1,1683969701.3287685
-0.9755447,-0.7154076,1.5065514,-1.1285735,0.10598512,-2.118939,0.40529495,6.883815,6.9774594,1,1683969701.344174
-1.3486762,-0.9332252,1.615826,-1.1285735,0.10598512,-2.118939,0.40529495,6.883815,6.9774594,1,1683969701.354436
-1.3486762,-0.9332252,1.615826,0.019700404,0.20143281,-0.77946407,0.40529495,6.883815,6.9774594,1,1683969701.3697956
-1.4775252,-0.87870985,1.5399069,0.019700404,0.20143281,-0.77946407,0.40529495,6.883815,6.9774594,1,1683969701.380069
-1.4775252,-0.87870985,1.5399069,1.0319041,0.1554652,0.5038111,0.40529495,6.883815,6.9774594,1,1683969701.3903074
-1.4775252,-0.87870985,1.5399069,1.0319041,0.1554652,0.5038111,0.33539295,6.8792906,6.985628,1,1683969701.405696
-1.4775252,-0.87870985,1.5399069,2.1453588,0.039095376,2.0575469,0.33539295,6.8792906,6.985628,1,1683969701.4210975
-1.3456882,-0.7296767,1.3417246,2.1453588,0.039095376,2.0575469,0.33539295,6.8792906,6.985628,1,1683969701.4262311
-1.3456882,-0.7296767,1.3417246,2.1453588,0.039095376,2.0575469,0.3477494,6.9344425,6.9302735,1,1683969701.431332
-1.0266452,-0.61692625,1.1292732,2.1453588,0.039095376,2.0575469,0.3477494,6.9344425,6.9302735,1,1683969701.4620965
-1.0266452,-0.61692625,1.1292732,2.770732,0.13805555,3.1878002,0.3477494,6.9344425,6.9302735,1,1683969701.4723392
-1.0266452,-0.61692625,1.1292732,2.770732,0.13805555,3.1878002,0.52125984,7.1056175,6.7434855,1,1683969701.4774706
-0.4170975,-0.28141886,0.8844418,2.770732,0.13805555,3.1878002,0.52125984,7.1056175,6.7434855,1,1683969701.4826133
-0.4170975,-0.28141886,0.8844418,3.1505375,0.57650405,4.2992697,0.52125984,7.1056175,6.7434855,1,1683969701.4877543
-0.4170975,-0.28141886,0.8844418,3.1505375,0.57650405,4.2992697,1.9084922,7.9803433,5.3766055,1,1683969701.4980178
-0.4170975,-0.28141886,0.8844418,-0.049480084,-0.95630956,-1.2768611,1.9084922,7.9803433,5.3766055,1,1683969701.5031593
1.2537317,2.2076898,-0.13311753,-0.049480084,-0.95630956,-1.2768611,1.9084922,7.9803433,5.3766055,1,1683969701.5082939
1.2537317,2.2076898,-0.13311753,-0.54290646,-0.75854194,-1.7954856,1.9084922,7.9803433,5.3766055,1,1683969701.533913
1.2537317,2.2076898,-0.13311753,-0.54290646,-0.75854194,-1.7954856,1.8673077,8.004547,5.355044,1,1683969701.549307
1.0340848,1.9952384,-0.10622571,-0.54290646,-0.75854194,-1.7954856,1.8673077,8.004547,5.355044,1,1683969701.5544345
1.0340848,1.9952384,-0.10622571,-1.2997686,-0.33322698,-2.3189971,1.8673077,8.004547,5.355044,1,1683969701.574951
0.8493789,1.6660118,-0.14037405,-1.2997686,-0.33322698,-2.3189971,1.8673077,8.004547,5.355044,1,1683969701.5800817
0.8493789,1.6660118,-0.14037405,-1.2997686,-0.33322698,-2.3189971,1.7152091,8.007217,5.401725,1,1683969701.5903163
0.8493789,1.6660118,-0.14037405,-1.2997686,-0.33322698,-2.3189971,1.5581427,7.975649,5.495209,1,1683969701.6108325
0.8493789,1.6660118,-0.14037405,-1.9504927,-0.025503624,-2.6962066,1.5581427,7.975649,5.495209,1,1683969701.6211054
0.75888574,1.3834344,-0.18562058,-1.9504927,-0.025503624,-2.6962066,1.5581427,7.975649,5.495209,1,1683969701.626241
0.6316222,1.0764652,-0.14537434,-1.9504927,-0.025503624,-2.6962066,1.5581427,7.975649,5.495209,1,1683969701.6416042
0.6316222,1.0764652,-0.14537434,-1.9504927,-0.025503624,-2.6962066,1.3617263,7.9110374,5.6389074,1,1683969701.6569774
0.6316222,1.0764652,-0.14537434,-2.602744,0.16294831,-3.1144965,1.3617263,7.9110374,5.6389074,1,1683969701.667202
0.6316222,1.0764652,-0.14537434,-3.2911892,0.3642284,-3.6121988,1.3617263,7.9110374,5.6389074,1,1683969701.6826043
0.406792,0.58972955,0.13543473,-3.2911892,0.3642284,-3.6121988,1.3617263,7.9110374,5.6389074,1,1683969701.6877434
0.406792,0.58972955,0.13543473,-3.2911892,0.3642284,-3.6121988,1.1289002,7.808274,5.830314,1,1683969701.703148
0.16013129,0.21842737,0.38386387,-3.2911892,0.3642284,-3.6121988,1.1289002,7.808274,5.830314,1,1683969701.7287986
0.16013129,0.21842737,0.38386387,-3.6192238,0.4269948,-3.866777,1.1289002,7.808274,5.830314,1,1683969701.7339342
0.16013129,0.21842737,0.38386387,-3.6192238,0.4269948,-3.866777,0.8655789,7.663746,6.0624976,1,1683969701.7390635
0.16013129,0.21842737,0.38386387,-3.6192238,0.4269948,-3.866777,0.42891082,7.3684907,6.4620037,1,1683969701.7442005
0.16013129,0.21842737,0.38386387,-3.7105482,0.268628,-3.9739838,0.42891082,7.3684907,6.4620037,1,1683969701.7647347
-1.179642,-0.9609098,1.6062523,-3.7105482,0.268628,-3.9739838,0.42891082,7.3684907,6.4620037,1,1683969701.7698727
-1.179642,-0.9609098,1.6062523,-2.3640485,-0.21700987,-2.485458,0.42891082,7.3684907,6.4620037,1,1683969701.775005
-1.179642,-0.9609098,1.6062523,-2.3640485,-0.21700987,-2.485458,0.007869768,6.90637,6.9669285,1,1683969701.7904117
-1.5565542,-1.1751906,1.867548,-2.3640485,-0.21700987,-2.485458,0.007869768,6.90637,6.9669285,1,1683969701.8058085
-1.5565542,-1.1751906,1.867548,-1.0975721,-0.20357084,-1.315651,0.007869768,6.90637,6.9669285,1,1683969701.8109498
-1.5565542,-1.1751906,1.867548,-1.0975721,-0.20357084,-1.315651,-0.12432409,6.7657895,7.102447,1,1683969701.8366024
-1.5565542,-1.1751906,1.867548,0.61285055,-0.23335053,0.47403142,-0.12432409,6.7657895,7.102447,1,1683969701.8519647
-1.5565542,-1.1751906,1.867548,0.61285055,-0.23335053,0.47403142,-0.17863756,6.709037,7.154929,1,1683969701.8570514
-1.7193077,-1.2096437,1.8381561,0.61285055,-0.23335053,0.47403142,-0.17863756,6.709037,7.154929,1,1683969701.862153
-1.7193077,-1.2096437,1.8381561,1.5053247,-0.29932398,1.5650368,-0.17863756,6.709037,7.154929,1,1683969701.8980043
-1.6523526,-1.1212239,1.645096,1.5053247,-0.29932398,1.5650368,-0.17863756,6.709037,7.154929,1,1683969701.903137
-1.6523526,-1.1212239,1.645096,1.5053247,-0.29932398,1.5650368,-0.17250237,6.714745,7.1497235,1,1683969701.908276
-1.6523526,-1.1212239,1.645096,2.5315783,-0.22479841,3.1748195,-0.17250237,6.714745,7.1497235,1,1683969701.928769
-1.1284804,-0.86925805,1.2683057,2.5315783,-0.22479841,3.1748195,-0.17250237,6.714745,7.1497235,1,1683969701.9339027
-1.1284804,-0.86925805,1.2683057,2.5315783,-0.22479841,3.1748195,-0.015630193,6.8452787,7.0269494,1,1683969701.9441538
-1.1284804,-0.86925805,1.2683057,2.5315783,-0.22479841,3.1748195,0.18649812,6.98903,6.881482,1,1683969701.954422
-0.51942056,-0.4873455,1.0093272,2.5315783,-0.22479841,3.1748195,0.18649812,6.98903,6.881482,1,1683969701.9698224
-0.51942056,-0.4873455,1.0093272,2.9177978,0.010231993,4.062712,0.18649812,6.98903,6.881482,1,1683969701.9800777
-0.51942056,-0.4873455,1.0093272,2.8732047,0.33460143,4.5233045,0.18649812,6.98903,6.881482,1,1683969702.0005617
0.17537609,0.13323948,0.61174303,2.8732047,0.33460143,4.5233045,0.18649812,6.98903,6.881482,1,1683969702.0056944
0.17537609,0.13323948,0.61174303,2.8732047,0.33460143,4.5233045,0.5761494,7.214049,6.622813,1,1683969702.0159624
0.17537609,0.13323948,0.61174303,2.5686884,0.34284812,4.4312167,0.5761494,7.214049,6.622813,1,1683969702.0364501
0.6587579,0.7272375,0.34136137,2.5686884,0.34284812,4.4312167,0.5761494,7.214049,6.622813,1,1683969702.04158
0.6587579,0.7272375,0.34136137,2.6849055,0.32421672,3.8440223,0.5761494,7.214049,6.622813,1,1683969702.046727
0.6587579,0.7272375,0.34136137,2.6849055,0.32421672,3.8440223,0.55978656,6.8929815,6.9576974,1,1683969702.0518563
0.6587579,0.7272375,0.34136137,2.4226916,0.4642576,4.0552287,0.55978656,6.8929815,6.9576974,1,1683969702.0723245
0.957251,1.3719703,0.42612243,2.4226916,0.4642576,4.0552287,0.55978656,6.8929815,6.9576974,1,1683969702.0774133
0.957251,1.3719703,0.42612243,1.9882137,0.5296202,3.7804923,0.55978656,6.8929815,6.9576974,1,1683969702.092807
0.957251,1.3719703,0.42612243,1.9882137,0.5296202,3.7804923,1.2648935,7.2213717,6.5182776,1,1683969702.1030755
0.957251,1.3719703,0.42612243,1.9118555,0.44837508,3.2607987,1.2648935,7.2213717,6.5182776,1,1683969702.1132967
1.2303157,1.6833909,0.3000175,1.9118555,0.44837508,3.2607987,1.2648935,7.2213717,6.5182776,1,1683969702.1183953
1.2303157,1.6833909,0.3000175,1.9118555,0.44837508,3.2607987,1.4980032,7.2960954,6.3842845,1,1683969702.1286428
1.2303157,1.6833909,0.3000175,1.678505,0.11438452,2.166739,1.4980032,7.2960954,6.3842845,1,1683969702.1594412
1.2303157,1.6833909,0.3000175,1.678505,0.11438452,2.166739,1.7985187,7.396562,6.1880784,1,1683969702.164574
1.6438154,2.1202457,0.002500146,1.678505,0.11438452,2.166739,1.7985187,7.396562,6.1880784,1,1683969702.1697168
1.6438154,2.1202457,0.002500146,1.341002,-0.24251351,1.0673343,1.7985187,7.396562,6.1880784,1,1683969702.190221
1.6438154,2.1202457,0.002500146,1.341002,-0.24251351,1.0673343,1.9459317,7.4603095,6.065743,1,1683969702.1953166
1.7702252,2.3720896,-0.26086888,1.341002,-0.24251351,1.0673343,1.9459317,7.4603095,6.065743,1,1683969702.2055783
1.6838787,2.3923347,-0.33306822,1.341002,-0.24251351,1.0673343,1.9459317,7.4603095,6.065743,1,1683969702.2158434
1.6838787,2.3923347,-0.33306822,1.341002,-0.24251351,1.0673343,2.0387747,7.5212116,5.9591002,1,1683969702.2414694
1.6838787,2.3923347,-0.33306822,0.98868537,-0.50518554,0.24083363,2.0387747,7.5212116,5.9591002,1,1683969702.2466016
1.6838787,2.3923347,-0.33306822,0.25457808,-0.6479753,-0.89476484,2.0387747,7.5212116,5.9591002,1,1683969702.2568347
1.3842881,2.2031162,-0.26745462,0.25457808,-0.6479753,-0.89476484,2.0387747,7.5212116,5.9591002,1,1683969702.2619658
1.3842881,2.2031162,-0.26745462,0.25457808,-0.6479753,-0.89476484,2.0744348,7.5737057,5.8797803,1,1683969702.2825067
1.0931126,1.899928,-0.25092927,0.25457808,-0.6479753,-0.89476484,2.0744348,7.5737057,5.8797803,1,1683969702.2927744
1.0931126,1.899928,-0.25092927,-0.59620446,-0.39263365,-1.6633861,2.0744348,7.5737057,5.8797803,1,1683969702.3133323
1.0931126,1.899928,-0.25092927,2.5867088,0.8689558,4.240932,2.0744348,7.5737057,5.8797803,1,1683969702.3184323
1.0931126,1.899928,-0.25092927,2.5867088,0.8689558,4.240932,1.2394387,7.016296,6.7432556,1,1683969702.3438861
0.82602376,1.0239011,0.4785645,2.5867088,0.8689558,4.240932,1.2394387,7.016296,6.7432556,1,1683969702.3490078
0.82602376,1.0239011,0.4785645,2.5867088,0.8689558,4.240932,1.4638352,7.1267705,6.58046,1,1683969702.3643303
1.1976918,1.5386264,0.31764048,2.5867088,0.8689558,4.240932,1.4638352,7.1267705,6.58046,1,1683969702.374597
1.1976918,1.5386264,0.31764048,2.5266914,0.7496844,3.7044396,1.4638352,7.1267705,6.58046,1,1683969702.3848276
1.1976918,1.5386264,0.31764048,2.3854287,0.23136522,2.7178922,1.4638352,7.1267705,6.58046,1,1683969702.395095
1.5455171,1.937491,-0.11476279,2.3854287,0.23136522,2.7178922,1.4638352,7.1267705,6.58046,1,1683969702.4104965
1.5455171,1.937491,-0.11476279,2.3854287,0.23136522,2.7178922,1.664675,7.2324862,6.4153028,1,1683969702.4207268
1.5455171,1.937491,-0.11476279,2.1960607,-0.32055154,1.9631681,1.664675,7.2324862,6.4153028,1,1683969702.4309762
1.7030262,2.192445,-0.36392367,2.1960607,-0.32055154,1.9631681,1.664675,7.2324862,6.4153028,1,1683969702.4463367
1.7030262,2.192445,-0.36392367,2.1960607,-0.32055154,1.9631681,1.8427337,7.334734,6.2483683,1,1683969702.4514298
1.7030262,2.192445,-0.36392367,2.1960607,-0.32055154,1.9631681,1.9945264,7.432119,6.084536,1,1683969702.4616933
1.7030262,2.192445,-0.36392367,1.6942347,-1.2583824,0.52534413,1.9945264,7.432119,6.084536,1,1683969702.4668195
1.5460049,2.2997072,-0.4106337,1.6942347,-1.2583824,0.52534413,1.9945264,7.432119,6.084536,1,1683969702.4975793
1.5460049,2.2997072,-0.4106337,0.9236283,-1.6403259,-0.77518797,1.9945264,7.432119,6.084536,1,1683969702.5027146
1.5460049,2.2997072,-0.4106337,0.9236283,-1.6403259,-0.77518797,2.1408298,7.5620317,5.870999,1,1683969702.5078447
1.3312362,2.1199408,-0.3275801,0.9236283,-1.6403259,-0.77518797,2.1408298,7.5620317,5.870999,1,1683969702.5437052
1.3312362,2.1199408,-0.3275801,0.9236283,-1.6403259,-0.77518797,2.164335,7.625823,5.779151,1,1683969702.5539644
1.3312362,2.1199408,-0.3275801,0.17073683,-1.4416419,-1.4941764,2.164335,7.625823,5.779151,1,1683969702.5591035
1.0631719,1.806142,-0.21550037,0.17073683,-1.4416419,-1.4941764,2.164335,7.625823,5.779151,1,1683969702.5796275
1.0631719,1.806142,-0.21550037,-0.9243918,-0.81092364,-2.1621575,2.164335,7.625823,5.779151,1,1683969702.5898585
1.0631719,1.806142,-0.21550037,-0.9243918,-0.81092364,-2.1621575,2.1243927,7.6602488,5.748362,1,1683969702.594994
0.84486634,1.4680735,-0.14421573,-0.9243918,-0.81092364,-2.1621575,2.1243927,7.6602488,5.748362,1,1683969702.600125
0.29337075,0.8659651,0.77858204,-0.9243918,-0.81092364,-2.1621575,2.1243927,7.6602488,5.748362,1,1683969702.605259
0.29337075,0.8659651,0.77858204,-0.9243918,-0.81092364,-2.1621575,1.6842086,6.004739,7.572493,1,1683969702.6257575
0.29337075,0.8659651,0.77858204,-2.4295638,1.3988814,-0.14767668,1.6842086,6.004739,7.572493,1,1683969702.6359994
0.21800053,0.7591906,0.8733436,-2.4295638,1.3988814,-0.14767668,1.6842086,6.004739,7.572493,1,1683969702.646179
0.21800053,0.7591906,0.8733436,-2.4295638,1.3988814,-0.14767668,1.5843643,5.8430877,7.7190814,1,1683969702.6512735
0.21800053,0.7591906,0.8733436,-2.2510383,1.0809261,-0.17928895,1.5843643,5.8430877,7.7190814,1,1683969702.6666641
0.21800053,0.7591906,0.8733436,-1.9062049,0.73639804,-0.14385876,1.5843643,5.8430877,7.7190814,1,1683969702.6872065
0.21800053,0.7591906,0.8733436,-1.9062049,0.73639804,-0.14385876,1.5009918,5.688909,7.8498054,1,1683969702.7026045
0.13586158,0.670283,1.0774409,-1.9062049,0.73639804,-0.14385876,1.5009918,5.688909,7.8498054,1,1683969702.7077386
0.12378771,0.59887636,1.2422066,-1.9062049,0.73639804,-0.14385876,1.5009918,5.688909,7.8498054,1,1683969702.7128742
0.12378771,0.59887636,1.2422066,-1.374905,0.5308419,-0.081397794,1.5009918,5.688909,7.8498054,1,1683969702.728236
0.12378771,0.59887636,1.2422066,-1.374905,0.5308419,-0.081397794,1.4413708,5.5555406,7.955786,1,1683969702.7384543
0.12378771,0.59887636,1.2422066,-1.374905,0.5308419,-0.081397794,1.3775818,5.424434,8.056915,1,1683969702.7589064
0.12378771,0.59887636,1.2422066,-0.62995476,0.48288897,-0.02321288,1.3775818,5.424434,8.056915,1,1683969702.764034
0.14567922,0.5368606,1.2104975,-0.62995476,0.48288897,-0.02321288,1.3775818,5.424434,8.056915,1,1683969702.7691696
0.14567922,0.5368606,1.2104975,-0.057268616,0.3733914,0.0012217305,1.3775818,5.424434,8.056915,1,1683969702.7793891
0.14567922,0.5368606,1.2104975,-0.057268616,0.3733914,0.0012217305,1.342753,5.3877077,8.087381,1,1683969702.7947607
0.15683842,0.55893505,1.042012,-0.057268616,0.3733914,0.0012217305,1.342753,5.3877077,8.087381,1,1683969702.799896
0.18421806,0.57978994,0.91962683,-0.057268616,0.3733914,0.0012217305,1.342753,5.3877077,8.087381,1,1683969702.8101556
0.18421806,0.57978994,0.91962683,-0.057268616,0.3733914,0.0012217305,1.3166087,5.3835387,8.094453,1,1683969702.8255227
0.18421806,0.57978994,0.91962683,0.22311853,0.22082779,-0.018325957,1.3166087,5.3835387,8.094453,1,1683969702.835809
0.18421806,0.57978994,0.91962683,0.3678936,0.053450707,-0.07162395,1.3166087,5.3835387,8.094453,1,1683969702.8614724
0.20684133,0.58143634,0.8446834,0.3678936,0.053450707,-0.07162395,1.3166087,5.3835387,8.094453,1,1683969702.8666117
0.20684133,0.58143634,0.8446834,0.3678936,0.053450707,-0.07162395,1.3014967,5.4005003,8.085593,1,1683969702.8717465
0.20684133,0.58143634,0.8446834,-0.2182316,-0.017104227,0.018020526,1.3014967,5.4005003,8.085593,1,1683969702.876883
