acc_x,acc_y,acc_z,gyr_x,gyr_y,gyr_z,grav_x,grav_y,grav_z,label,timestamp
0.044313483,0.2946801,0.9683906,3.6618996,-8.674431,0.54260254,-1.1347558,3.3716779,9.138627,1,1683900576.383278
0.044313483,0.2946801,0.9683906,5.0169373,-10.92535,0.30187607,-1.1347558,3.3716779,9.138627,1,1683900576.39908
0.41333467,0.46723273,0.9971898,5.0169373,-10.92535,0.30187607,-0.17002416,3.7998402,9.038954,1,1683900576.4043143
0.41333467,0.46723273,0.9971898,5.0169373,-10.92535,0.30187607,0.9403698,4.333399,8.746871,1,1683900576.4095047
1.0098075,0.83502555,1.8594373,6.302681,-12.743683,-0.29039383,1.4801941,4.634128,8.514944,1,1683900576.4147089
1.0098075,0.83502555,1.8594373,6.89188,-12.741547,-0.81350327,1.4801941,4.634128,8.514944,1,1683900576.4198377
1.1481923,0.85942674,1.4865186,6.89188,-12.741547,-0.81350327,1.4801941,4.634128,8.514944,1,1683900576.4249492
1.5316056,0.8857843,1.3854864,6.89188,-12.741547,-0.81350327,1.4801941,4.634128,8.514944,1,1683900576.4402754
1.5316056,0.8857843,1.3854864,8.245716,-13.149567,-2.9236984,1.4801941,4.634128,8.514944,1,1683900576.4556942
1.5316056,0.8857843,1.3854864,8.245716,-13.149567,-2.9236984,2.918834,5.647294,7.4671855,1,1683900576.4660044
1.5316056,0.8857843,1.3854864,8.652668,-13.1388855,-4.5258713,2.918834,5.647294,7.4671855,1,1683900576.4814734
1.5316056,0.8857843,1.3854864,8.652668,-13.1388855,-4.5258713,3.607463,6.375255,6.5201783,1,1683900576.4866097
1.2665588,0.80011463,1.1131146,8.652668,-13.1388855,-4.5258713,3.607463,6.375255,6.5201783,1,1683900576.4917057
0.67495406,0.64538145,1.1870614,8.652668,-13.1388855,-4.5258713,3.607463,6.375255,6.5201783,1,1683900576.496885
0.67495406,0.64538145,1.1870614,8.5227585,-13.126202,-5.8158875,3.607463,6.375255,6.5201783,1,1683900576.5071478
0.67495406,0.64538145,1.1870614,8.5227585,-13.126202,-5.8158875,4.025247,7.0934906,5.4451966,1,1683900576.5225325
0.67495406,0.64538145,1.1870614,8.5227585,-13.126202,-5.8158875,4.190719,7.7359605,4.3316483,1,1683900576.532779
0.67495406,0.64538145,1.1870614,8.136101,-12.381592,-6.044998,4.190719,7.7359605,4.3316483,1,1683900576.5534031
0.37623996,0.3012619,1.0298866,8.136101,-12.381592,-6.044998,4.190719,7.7359605,4.3316483,1,1683900576.5585382
0.2903276,0.2422076,1.0423374,8.136101,-12.381592,-6.044998,4.190719,7.7359605,4.3316483,1,1683900576.5688453
0.2903276,0.2422076,1.0423374,7.8622627,-12.035389,-5.8947945,4.190719,7.7359605,4.3316483,1,1683900576.5739813
0.2903276,0.2422076,1.0423374,7.8622627,-12.035389,-5.8947945,4.2025933,8.014685,3.778019,1,1683900576.584278
0.2903276,0.2422076,1.0423374,7.8622627,-12.035389,-5.8947945,3.9975605,8.6721115,2.2325706,1,1683900576.604903
0.2903276,0.2422076,1.0423374,6.905632,-9.983673,-5.2736855,3.9975605,8.6721115,2.2325706,1,1683900576.6254623
0.2903276,0.2422076,1.0423374,6.905632,-9.983673,-5.2736855,3.7148402,8.971607,1.371349,1,1683900576.6408205
0.2903276,0.2422076,1.0423374,5.9596825,-7.9574585,-4.6611214,3.7148402,8.971607,1.371349,1,1683900576.65111
-0.3774077,0.37253958,0.59912676,5.9596825,-7.9574585,-4.6611214,3.7148402,8.971607,1.371349,1,1683900576.6562417
-0.98047745,0.30737358,0.2035205,5.9596825,-7.9574585,-4.6611214,3.7148402,8.971607,1.371349,1,1683900576.6818905
-0.98047745,0.30737358,0.2035205,5.9596825,-7.9574585,-4.6611214,3.4121444,9.165069,0.727436,1,1683900576.6973658
-0.98047745,0.30737358,0.2035205,4.490757,-5.026951,-3.4403992,3.4121444,9.165069,0.727436,1,1683900576.7024553
-1.3682886,0.18705082,-0.7112147,4.490757,-5.026951,-3.4403992,3.4121444,9.165069,0.727436,1,1683900576.7127202
-1.3682886,0.18705082,-0.7112147,4.490757,-5.026951,-3.4403992,3.1686463,9.273558,0.3622335,1,1683900576.7332928
-1.3682886,0.18705082,-0.7112147,0.79961777,1.0918808,-0.45768738,3.1686463,9.273558,0.3622335,1,1683900576.7384255
-0.7227556,0.2746617,-0.6394669,0.79961777,1.0918808,-0.45768738,3.1686463,9.273558,0.3622335,1,1683900576.7796295
-0.7227556,0.2746617,-0.6394669,-3.9227867,6.912575,2.0872307,3.1686463,9.273558,0.3622335,1,1683900576.7898543
-0.10089582,0.5043275,0.096133865,-3.9227867,6.912575,2.0872307,3.1686463,9.273558,0.3622335,1,1683900576.8206193
-0.10089582,0.5043275,0.096133865,-3.9227867,6.912575,2.0872307,3.3897574,9.0354185,1.7438893,1,1683900576.8360267
-0.10089582,0.5043275,0.096133865,-6.4645004,10.283012,2.9309082,3.3897574,9.0354185,1.7438893,1,1683900576.841145
-0.04037046,0.49480355,0.39022252,-6.4645004,10.283012,2.9309082,3.3897574,9.0354185,1.7438893,1,1683900576.8514287
-0.04037046,0.49480355,0.39022252,-8.111401,12.471046,3.2430649,3.3897574,9.0354185,1.7438893,1,1683900576.8668401
-0.04037046,0.49480355,0.39022252,-8.111401,12.471046,3.2430649,3.3923857,8.750885,2.8432612,1,1683900576.8771226
-0.12969503,0.40719268,1.1421565,-8.111401,12.471046,3.2430649,3.3923857,8.750885,2.8432612,1,1683900576.882262
-0.12969503,0.40719268,1.1421565,-8.925171,13.897514,3.4167671,3.3923857,8.750885,2.8432612,1,1683900576.887356
-0.12969503,0.40719268,1.1421565,-8.925171,13.897514,3.4167671,3.0422382,8.08538,4.641317,1,1683900576.8976917
-0.12969503,0.40719268,1.1421565,-7.5936317,12.993088,3.6286545,3.0422382,8.08538,4.641317,1,1683900576.9491253
-0.07381031,0.37595183,1.409645,-7.5936317,12.993088,3.6286545,3.0422382,8.08538,4.641317,1,1683900576.9594817
-0.07381031,0.37595183,1.409645,-7.5936317,12.993088,3.6286545,2.341867,7.261497,6.160901,1,1683900576.9646792
-0.07381031,0.37595183,1.409645,-7.5936317,12.993088,3.6286545,1.5884355,6.559237,7.1150317,1,1683900576.9852855
0.2737366,0.49480355,1.2517421,-7.5936317,12.993088,3.6286545,1.5884355,6.559237,7.1150317,1,1683900577.005929
0.2737366,0.49480355,1.2517421,-5.9116173,11.270485,3.5285187,1.5884355,6.559237,7.1150317,1,1683900577.01626
0.93658864,0.7801114,0.79511005,-5.9116173,11.270485,3.5285187,1.5884355,6.559237,7.1150317,1,1683900577.036899
0.93658864,0.7801114,0.79511005,-3.9983559,8.07682,2.6369095,1.5884355,6.559237,7.1150317,1,1683900577.047209
0.93658864,0.7801114,0.79511005,-3.9983559,8.07682,2.6369095,1.3931481,6.3960314,7.302077,1,1683900577.0523622
1.4310434,1.1213039,0.8104878,-3.9983559,8.07682,2.6369095,1.3931481,6.3960314,7.302077,1,1683900577.0575347
1.4310434,1.1213039,0.8104878,-1.4992332,2.7259636,0.94314575,1.2273893,6.223673,7.478623,1,1683900577.0627294
1.4310434,1.1213039,0.8104878,0.021896362,-0.33124924,-0.08584976,1.2273893,6.223673,7.478623,1,1683900577.0987456
1.0617946,1.0710305,1.3991504,0.021896362,-0.33124924,-0.08584976,1.2273893,6.223673,7.478623,1,1683900577.1193383
1.0617946,1.0710305,1.3991504,4.749508,-8.824635,-2.8949928,1.2273893,6.223673,7.478623,1,1683900577.1244788
1.0617946,1.0710305,1.3991504,4.749508,-8.824635,-2.8949928,1.7417845,6.615947,7.0260816,1,1683900577.1347945
0.5783197,0.68273395,1.3193498,7.5639915,-12.200413,-4.3159866,1.7417845,6.615947,7.0260816,1,1683900577.139963
0.42602816,0.64612454,1.1741253,7.947445,-12.39748,-4.5386887,2.4593515,7.3916607,5.9569564,1,1683900577.1451285
0.42602816,0.64612454,1.1741253,7.947445,-12.39748,-4.5386887,2.644737,7.6732306,5.504297,1,1683900577.1502388
0.14974378,0.62733454,0.50810367,7.947445,-12.39748,-4.5386887,2.644737,7.6732306,5.504297,1,1683900577.165616
0.14974378,0.62733454,0.50810367,7.947445,-12.39748,-4.5386887,2.944676,8.440946,4.0310926,1,1683900577.175944
0.14974378,0.62733454,0.50810367,7.8868294,-12.030048,-4.7496414,2.944676,8.440946,4.0310926,1,1683900577.18624
0.14974378,0.62733454,0.50810367,7.8868294,-12.030048,-4.7496414,2.9637368,8.654266,3.5341668,1,1683900577.2067568
0.14974378,0.62733454,0.50810367,7.8868294,-12.030048,-4.7496414,2.888823,9.005225,2.5944207,1,1683900577.2376723
0.02820776,0.5531299,0.35922432,7.8868294,-12.030048,-4.7496414,2.888823,9.005225,2.5944207,1,1683900577.242822
0.02820776,0.5531299,0.35922432,6.7363358,-11.069145,-4.7081184,2.888823,9.005225,2.5944207,1,1683900577.2479773
0.02820776,0.5531299,0.35922432,5.8947945,-9.857903,-4.5057106,2.888823,9.005225,2.5944207,1,1683900577.2583427
-0.28003025,0.54287803,0.504191,5.8947945,-9.857903,-4.5057106,2.888823,9.005225,2.5944207,1,1683900577.2738261
-0.28003025,0.54287803,0.504191,5.8947945,-9.857903,-4.5057106,2.5504014,9.366218,1.3927693,1,1683900577.2841077
-0.28003025,0.54287803,0.504191,5.516548,-9.009953,-4.205303,2.5504014,9.366218,1.3927693,1,1683900577.2892587
-0.57998794,0.55777055,0.5720413,5.516548,-9.009953,-4.205303,2.5504014,9.366218,1.3927693,1,1683900577.3098016
-0.57998794,0.55777055,0.5720413,5.516548,-9.009953,-4.205303,2.1770399,9.546585,0.54184306,1,1683900577.3354669
-0.57998794,0.55777055,0.5720413,3.8899422,-4.5305443,-2.1630669,2.1770399,9.546585,0.54184306,1,1683900577.340593
-1.4551716,0.4110902,0.19326866,3.8899422,-4.5305443,-2.1630669,2.1770399,9.546585,0.54184306,1,1683900577.35088
-1.4551716,0.4110902,0.19326866,3.8899422,-4.5305443,-2.1630669,2.0984733,9.575429,0.2792199,1,1683900577.361171
-1.4551716,0.4110902,0.19326866,1.733818,-0.37490845,-0.1594162,2.0984733,9.575429,0.2792199,1,1683900577.3663285
-1.6838516,0.22317494,-0.22187072,1.733818,-0.37490845,-0.1594162,2.0984733,9.575429,0.2792199,1,1683900577.3766446
-1.4607829,0.24317819,-0.3119384,1.733818,-0.37490845,-0.1594162,2.0984733,9.575429,0.2792199,1,1683900577.397325
-1.4607829,0.24317819,-0.3119384,-0.88666916,4.022522,1.8890953,2.0984733,9.575429,0.2792199,1,1683900577.4127374
-1.4607829,0.24317819,-0.3119384,-0.88666916,4.022522,1.8890953,2.1645994,9.557961,0.36092597,1,1683900577.4229667
-1.4607829,0.24317819,-0.3119384,-0.88666916,4.022522,1.8890953,2.394992,9.478186,0.7735706,1,1683900577.4537075
-0.6112136,0.35960343,-0.1423127,-0.88666916,4.022522,1.8890953,2.394992,9.478186,0.7735706,1,1683900577.4588387
-0.6112136,0.35960343,-0.1423127,-3.3070183,7.8915024,3.4689713,2.394992,9.478186,0.7735706,1,1683900577.463965
-0.6112136,0.35960343,-0.1423127,-5.0784874,10.288353,4.471264,2.394992,9.478186,0.7735706,1,1683900577.484458
-0.34618202,0.359103,0.01851703,-5.0784874,10.288353,4.471264,2.394992,9.478186,0.7735706,1,1683900577.4947228
-0.34618202,0.359103,0.01851703,-5.0784874,10.288353,4.471264,2.672722,9.322081,1.4579947,1,1683900577.4998527
-0.34618202,0.359103,0.01851703,-6.6924095,12.064095,4.9549866,2.672722,9.322081,1.4579947,1,1683900577.5049796
0.52193457,0.5850987,0.5144428,-6.6924095,12.064095,4.9549866,2.672722,9.322081,1.4579947,1,1683900577.5203166
0.52193457,0.5850987,0.5144428,-6.6924095,12.064095,4.9549866,2.9744065,8.910128,2.8165445,1,1683900577.5305326
0.7420764,0.6824913,0.6120629,-6.6924095,12.064095,4.9549866,2.9744065,8.910128,2.8165445,1,1683900577.5664392
1.0517855,0.8330692,0.7443512,-6.6924095,12.064095,4.9549866,2.9744065,8.910128,2.8165445,1,1683900577.5921059
1.0517855,0.8330692,0.7443512,-6.6924095,12.064095,4.9549866,2.936998,8.329085,4.26272,1,1683900577.5972354
1.0517855,0.8330692,0.7443512,-6.9236565,11.982117,4.192219,2.936998,8.329085,4.26272,1,1683900577.6126728
1.3797992,0.9987822,0.49541017,-6.9236565,11.982117,4.192219,2.936998,8.329085,4.26272,1,1683900577.617781
1.3797992,0.9987822,0.49541017,-6.41016,10.58342,2.9672241,2.936998,8.329085,4.26272,1,1683900577.6229167
1.3797992,0.9987822,0.49541017,3.7759209,-2.0132637,-0.9594345,2.936998,8.329085,4.26272,1,1683900577.6434865
-0.13189402,0.6446535,-0.5433027,-2.683773,8.353863,2.9490662,2.9506297,9.351613,-0.10724081,1,1683900577.6594672
0.70156944,0.8228173,0.0668342,-8.033562,12.782135,4.1826057,3.492734,8.930823,2.0522127,1,1683900577.6802242
0.70156944,0.8228173,0.0668342,-7.873745,10.975418,3.1407928,3.492734,8.930823,2.0522127,1,1683900577.7366846
0.70156944,0.8228173,0.0668342,-6.086254,7.338619,1.4416885,3.492734,8.930823,2.0522127,1,1683900577.7571628
0.70156944,0.8228173,0.0668342,-6.086254,7.338619,1.4416885,3.2846506,8.003911,4.617236,1,1683900577.767406
1.0510576,0.93898475,0.8097447,-6.086254,7.338619,1.4416885,3.2846506,8.003911,4.617236,1,1683900577.782724
1.0510576,0.93898475,0.8097447,-6.086254,7.338619,1.4416885,3.0734303,7.683419,5.2620807,1,1683900577.7981162
1.0510576,0.93898475,0.8097447,-3.8311958,2.891121,0.23378372,3.0734303,7.683419,5.2620807,1,1683900577.8339484
0.62810796,0.7683885,0.94691634,-3.8311958,2.891121,0.23378372,3.0734303,7.683419,5.2620807,1,1683900577.8390815
0.62810796,0.7683885,0.94691634,-3.8311958,2.891121,0.23378372,3.5241718,8.458362,3.4938126,1,1683900577.8441732
0.62810796,0.7683885,0.94691634,-6.2833214,6.9678497,1.21912,3.5241718,8.458362,3.4938126,1,1683900577.8493152
0.5475642,0.802071,0.73385674,-6.2833214,6.9678497,1.21912,3.5241718,8.458362,3.4938126,1,1683900577.8595393
0.5475642,0.802071,0.73385674,-6.2833214,6.9678497,1.21912,3.3425386,8.141199,4.3265114,1,1683900577.8646677
0.72035944,0.78596526,1.0952952,-6.2833214,6.9678497,1.21912,3.3425386,8.141199,4.3265114,1,1683900577.869801
0.72035944,0.78596526,1.0952952,-2.65934,0.9864044,-0.11255264,3.3425386,8.141199,4.3265114,1,1683900577.8749201
0.72035944,0.78596526,1.0952952,-2.65934,0.9864044,-0.11255264,3.319651,8.080522,4.45595,1,1683900577.900566
0.95586395,1.0141599,1.5436318,-2.65934,0.9864044,-0.11255264,3.319651,8.080522,4.45595,1,1683900577.9262192
0.95586395,1.0141599,1.5436318,-2.65934,0.9864044,-0.11255264,3.433731,8.1224575,4.2901697,1,1683900577.931313
0.95586395,1.0141599,1.5436318,1.7881584,-5.283699,-1.325798,3.433731,8.1224575,4.2901697,1,1683900577.9364479
0.95586395,1.0514973,1.5624218,1.7881584,-5.283699,-1.325798,3.433731,8.1224575,4.2901697,1,1683900577.9467103
0.95586395,1.0514973,1.5624218,5.7072067,-9.365768,-2.56361,3.433731,8.1224575,4.2901697,1,1683900577.9877188
0.95586395,1.0514973,1.5624218,5.7072067,-9.365768,-2.56361,3.6481297,8.478825,3.3122594,1,1683900577.9928422
0.8470214,0.95339197,1.306899,5.7072067,-9.365768,-2.56361,3.6481297,8.478825,3.3122594,1,1683900577.9979646
0.8470214,0.95339197,1.306899,7.2774696,-10.259514,-3.4680367,3.6481297,8.478825,3.3122594,1,1683900578.013403
0.518037,0.8501455,0.7409238,7.2774696,-10.259514,-3.4680367,3.6481297,8.478825,3.3122594,1,1683900578.0288928
0.518037,0.8501455,0.7409238,7.2774696,-10.259514,-3.4680367,3.633007,8.913673,1.8756493,1,1683900578.0351841
0.34841132,0.8003573,0.5390867,7.2774696,-10.259514,-3.4680367,3.633007,8.913673,1.8756493,1,1683900578.0507102
0.950738,1.0146452,1.5553395,0.6791878,-4.487953,-1.3641167,3.551426,9.038159,1.3672719,1,1683900578.0642335
0.87459224,0.95948845,1.3696233,6.168499,-9.748154,-3.040924,3.5848944,8.830147,2.3124487,1,1683900578.070552
0.6034489,0.8843133,0.9373924,6.168499,-9.748154,-3.040924,3.5848944,8.830147,2.3124487,1,1683900578.0811458
0.6034489,0.8843133,0.9373924,6.168499,-9.748154,-3.040924,3.4605439,9.076631,1.3452871,1,1683900578.1122634
0.6034489,0.8843133,0.9373924,7.2753334,-10.118923,-3.665104,3.4605439,9.076631,1.3452871,1,1683900578.1175575
-0.2536727,0.5680224,0.07758651,7.2753334,-10.118923,-3.665104,3.4605439,9.076631,1.3452871,1,1683900578.138241
-0.2536727,0.5680224,0.07758651,6.9002914,-8.831043,-3.919716,3.4605439,9.076631,1.3452871,1,1683900578.1587892
-0.2536727,0.5680224,0.07758651,6.9002914,-8.831043,-3.919716,2.7934465,9.3827095,-0.5760357,1,1683900578.1639307
-0.2536727,0.5680224,0.07758651,5.403595,-6.32658,-2.7544022,2.7934465,9.3827095,-0.5760357,1,1683900578.1742597
-0.2536727,0.5680224,0.07758651,5.403595,-6.32658,-2.7544022,2.1818755,9.410223,-1.6904174,1,1683900578.1949253
-0.96485704,0.52384543,-0.085457385,5.403595,-6.32658,-2.7544022,2.1818755,9.410223,-1.6904174,1,1683900578.2054033
-1.2696829,0.4823527,-0.48374793,5.403595,-6.32658,-2.7544022,2.1818755,9.410223,-1.6904174,1,1683900578.2105439
-1.2696829,0.4823527,-0.48374793,3.7598991,-2.994461,-1.2778664,2.1818755,9.410223,-1.6904174,1,1683900578.2157533
-1.2696829,0.4823527,-0.48374793,3.7598991,-2.994461,-1.2778664,1.9191606,9.368198,-2.1734893,1,1683900578.2311378
-0.72665316,0.57827425,-1.2644962,3.7598991,-2.994461,-1.2778664,1.9191606,9.368198,-2.1734893,1,1683900578.2568893
-0.72665316,0.57827425,-1.2644962,-0.5320549,3.9404106,1.580143,1.9191606,9.368198,-2.1734893,1,1683900578.2671587
-0.72665316,0.57827425,-1.2644962,-0.5320549,3.9404106,1.580143,1.9858394,9.375192,-2.081494,1,1683900578.2825577
-0.72665316,0.57827425,-1.2644962,-0.5320549,3.9404106,1.580143,2.5232217,9.370896,-1.4106829,1,1683900578.2979376
-0.0023051503,0.68761724,-1.1746712,-0.5320549,3.9404106,1.580143,2.5232217,9.370896,-1.4106829,1,1683900578.3030744
-0.0023051503,0.68761724,-1.1746712,-4.6982384,8.439045,2.9725647,2.5232217,9.370896,-1.4106829,1,1683900578.3082378
-0.0023051503,0.68761724,-1.1746712,-4.6982384,8.439045,2.9725647,3.2167184,9.253367,0.44531655,1,1683900578.3598175
-0.0023051503,0.68761724,-1.1746712,-7.9909706,10.38208,3.0012703,3.2167184,9.253367,0.44531655,1,1683900578.3700993
0.45456958,0.77912563,-0.434445,-7.9909706,10.38208,3.0012703,3.2167184,9.253367,0.44531655,1,1683900578.3803535
0.45456958,0.77912563,-0.434445,-8.372421,9.8345375,2.6220894,3.2167184,9.253367,0.44531655,1,1683900578.4112933
0.45456958,0.77912563,-0.434445,-8.372421,9.8345375,2.6220894,3.3712568,9.080159,1.534834,1,1683900578.4164698
0.42651346,0.7249546,0.11345282,-8.372421,9.8345375,2.6220894,3.3712568,9.080159,1.534834,1,1683900578.4215918
0.42651346,0.7249546,0.11345282,-8.255196,9.323177,2.4175453,3.3712568,9.080159,1.534834,1,1683900578.442128
0.42651346,0.7249546,0.11345282,-8.255196,9.323177,2.4175453,3.3977685,8.964527,2.0646572,1,1683900578.452383
0.40772346,0.7081058,0.35823855,-8.255196,9.323177,2.4175453,3.3977685,8.964527,2.0646572,1,1683900578.462685
0.35694948,0.7142175,1.0540451,-8.255196,9.323177,2.4175453,3.3977685,8.964527,2.0646572,1,1683900578.4678564
0.35694948,0.7142175,1.0540451,-8.255196,9.323177,2.4175453,3.3361814,8.549148,3.457219,1,1683900578.4832823
0.35694948,0.7142175,1.0540451,-6.8287277,7.041416,1.7825508,3.3361814,8.549148,3.457219,1,1683900578.4987023
0.35694948,0.7142175,1.0540451,-6.8287277,7.041416,1.7825508,2.5774586,9.362785,-1.3657745,1,1683900578.5345724
0.35694948,0.7142175,1.0540451,6.6062927,-7.091484,-2.344246,2.5774586,9.362785,-1.3657745,1,1683900578.5499902
-0.81280816,0.60463184,-0.37123537,6.6062927,-7.091484,-2.344246,2.5774586,9.362785,-1.3657745,1,1683900578.5807958
-0.81280816,0.60463184,-0.37123537,6.6062927,-7.091484,-2.344246,2.279062,9.269811,-2.2465243,1,1683900578.5859377
-0.81280816,0.60463184,-0.37123537,5.2300262,-4.2035675,-1.1330032,2.279062,9.269811,-2.2465243,1,1683900578.596194
-0.81280816,0.60463184,-0.37123537,0.032577515,4.217453,1.4416885,2.279062,9.269811,-2.2465243,1,1683900578.601327
-0.2129231,0.6280625,-1.2857279,0.032577515,4.217453,1.4416885,2.279062,9.269811,-2.2465243,1,1683900578.60646
-0.2129231,0.6280625,-1.2857279,0.032577515,4.217453,1.4416885,2.4494681,9.18233,-2.419773,1,1683900578.6218832
0.069943115,0.72959524,-1.3962841,0.032577515,4.217453,1.4416885,2.4494681,9.18233,-2.419773,1,1683900578.6424031
0.069943115,0.72959524,-1.3962841,-1.4992332,6.2169647,1.8710709,2.4494681,9.18233,-2.419773,1,1683900578.6578038
0.069943115,0.72959524,-1.3962841,-1.4992332,6.2169647,1.8710709,2.605073,9.173405,-2.2874944,1,1683900578.662937
0.069943115,0.72959524,-1.3962841,-5.3544617,10.2244,2.1618652,2.605073,9.173405,-2.2874944,1,1683900578.6731937
0.76550704,1.0219702,-1.2227609,-5.3544617,10.2244,2.1618652,2.605073,9.173405,-2.2874944,1,1683900578.6783185
0.76550704,1.0219702,-1.2227609,-5.3544617,10.2244,2.1618652,3.1649358,9.182386,-1.3554834,1,1683900578.6988204
0.76550704,1.0219702,-1.2227609,-5.3544617,10.2244,2.1618652,3.4389768,9.174569,-0.41366166,1,1683900578.709075
0.8416528,1.0866508,-0.9052416,-5.3544617,10.2244,2.1618652,3.4389768,9.174569,-0.41366166,1,1683900578.7142038
0.8416528,1.0866508,-0.9052416,-6.961975,10.906258,1.7080498,3.4389768,9.174569,-0.41366166,1,1683900578.7295895
0.8416528,1.0866508,-0.9052416,-7.597904,10.241489,1.1018944,3.4389768,9.174569,-0.41366166,1,1683900578.7603073
0.6344471,1.0593076,-0.38344356,-7.597904,10.241489,1.1018944,3.4389768,9.174569,-0.41366166,1,1683900578.7654378
0.6344471,1.0593076,-0.38344356,-7.597904,10.241489,1.1018944,3.549203,9.120547,0.6238327,1,1683900578.7705712
0.6344471,1.0593076,-0.38344356,-7.3358154,8.783112,0.6885338,3.549203,9.120547,0.6238327,1,1683900578.7962255
0.36183277,0.9243501,0.069533646,-7.3358154,8.783112,0.6885338,3.549203,9.120547,0.6238327,1,1683900578.8013399
0.36183277,0.9243501,0.069533646,-7.3358154,8.783112,0.6885338,3.5184197,9.009467,1.6188343,1,1683900578.8064752
0.36183277,0.9243501,0.069533646,-7.8056526,9.208221,1.3490295,3.5184197,9.009467,1.6188343,1,1683900578.8167303
0.36183277,0.9243501,0.069533646,-7.8056526,9.208221,1.3490295,3.240462,9.125146,1.5496806,1,1683900578.8321707
0.22907431,0.7381334,0.38411084,-6.6115,6.537533,0.8877373,3.240462,9.125146,1.5496806,1,1683900578.8321803
0.23345713,0.7574087,0.5935155,-6.6115,6.537533,0.8877373,3.240462,9.125146,1.5496806,1,1683900578.8372993
0.23345713,0.7574087,0.5935155,-6.6115,6.537533,0.8877373,3.2229156,9.052391,1.958934,1,1683900578.8578343
0.23345713,0.7574087,0.5935155,-4.5118523,3.8956833,0.45848846,3.2229156,9.052391,1.958934,1,1683900578.868101
0.23345713,0.7574087,0.5935155,-4.5118523,3.8956833,0.45848846,3.126058,8.825854,2.9158952,1,1683900578.8834867
0.22760326,0.7264105,0.9752302,-4.5118523,3.8956833,0.45848846,3.126058,8.825854,2.9158952,1,1683900578.898869
0.22760326,0.7264105,0.9752302,-2.7264977,1.7406273,0.15594482,3.126058,8.825854,2.9158952,1,1683900578.9040031
0.3030211,0.74984115,1.0984647,-2.7264977,1.7406273,0.15594482,3.126058,8.825854,2.9158952,1,1683900578.9091344
0.3030211,0.74984115,1.0984647,-2.7264977,1.7406273,0.15594482,3.073717,8.714054,3.2844949,1,1683900578.9193616
0.3030211,0.74984115,1.0984647,-2.7264977,1.7406273,0.15594482,3.0652373,8.682239,3.3754177,1,1683900578.9552479
0.47507328,0.80426997,1.1763242,-2.7264977,1.7406273,0.15594482,3.0652373,8.682239,3.3754177,1,1683900578.9603872
0.47507328,0.80426997,1.1763242,-0.62150955,-0.9203148,-0.21789551,3.0652373,8.682239,3.3754177,1,1683900578.9706662
0.47507328,0.80426997,1.1763242,-0.62150955,-0.9203148,-0.21789551,3.1272736,8.7190695,3.219994,1,1683900578.9757612
0.70131165,0.9175105,1.1536216,-0.62150955,-0.9203148,-0.21789551,3.1272736,8.7190695,3.219994,1,1683900578.9859886
0.70131165,0.9175105,1.1536216,1.7316818,-3.8625717,-0.76343536,3.1272736,8.7190695,3.219994,1,1683900578.9962647
0.70131165,0.9175105,1.1536216,2.9130173,-5.316677,-1.0936165,3.1272736,8.7190695,3.219994,1,1683900579.0218916
0.7733173,0.96045905,1.1448407,2.9130173,-5.316677,-1.0936165,3.1272736,8.7190695,3.219994,1,1683900579.0270233
0.7733173,0.96045905,1.1448407,2.9130173,-5.316677,-1.0936165,3.166032,8.777375,3.0173352,1,1683900579.032157
0.036745917,0.80695426,-0.7895595,2.9130173,-5.316677,-1.0936165,3.166032,8.777375,3.0173352,1,1683900579.047515
0.15292852,0.78816426,-0.3639256,2.9130173,-5.316677,-1.0936165,3.166032,8.777375,3.0173352,1,1683900579.0731726
0.15292852,0.78816426,-0.3639256,2.9130173,-5.316677,-1.0936165,2.471206,9.400815,-1.2993087,1,1683900579.0834298
0.15292852,0.78816426,-0.3639256,-6.6327286,7.9969788,2.08189,2.471206,9.400815,-1.2993087,1,1683900579.0936887
0.15292852,0.78816426,-0.3639256,-6.6327286,7.9969788,2.08189,2.736395,9.404152,-0.49442226,1,1683900579.0988042
0.15292852,0.78816426,-0.3639256,-5.798664,7.743435,2.058525,2.736395,9.404152,-0.49442226,1,1683900579.1039393
0.1780577,0.7739997,-0.19234356,-5.798664,7.743435,2.058525,2.736395,9.404152,-0.49442226,1,1683900579.1295662
0.1780577,0.7739997,-0.19234356,-6.8053627,7.9128647,2.0425034,2.736395,9.404152,-0.49442226,1,1683900579.1347017
0.1780577,0.7739997,-0.19234356,-6.8053627,7.9128647,2.0425034,2.8423038,9.385466,-0.0688065,1,1683900579.1398337
0.1780577,0.7739997,-0.19234356,-6.57732,6.9327354,1.8145943,2.8423038,9.385466,-0.0688065,1,1683900579.155187
0.1780577,0.7739997,-0.19234356,-6.57732,6.9327354,1.8145943,3.044605,9.244575,1.199417,1,1683900579.1654747
0.1780577,0.7739997,-0.19234356,-6.57732,6.9327354,1.8145943,3.0787494,9.173679,1.5922655,1,1683900579.1757376
0.24126734,0.7478848,0.5122438,-6.57732,6.9327354,1.8145943,3.0787494,9.173679,1.5922655,1,1683900579.180832
0.24126734,0.7478848,0.5122438,-6.287594,6.4172363,1.7187309,3.0787494,9.173679,1.5922655,1,1683900579.2013514
0.39502996,0.7898628,0.9256847,-6.287594,6.4172363,1.7187309,3.0787494,9.173679,1.5922655,1,1683900579.2219155
0.39502996,0.7898628,0.9256847,-6.287594,6.4172363,1.7187309,3.1162174,8.933084,2.580619,1,1683900579.2270484
0.39502996,0.7898628,0.9256847,-4.7812843,4.557247,1.3107109,3.1162174,8.933084,2.580619,1,1683900579.2321854
0.39502996,0.7898628,0.9256847,-3.2984734,2.8528023,0.834465,3.1162174,8.933084,2.580619,1,1683900579.2424154
0.39502996,0.7898628,0.9256847,-3.2984734,2.8528023,0.834465,3.112172,8.793572,3.0261948,1,1683900579.2526546
0.55170435,0.8391657,0.9820547,-3.2984734,2.8528023,0.834465,3.112172,8.793572,3.0261948,1,1683900579.2629209
0.55170435,0.8391657,0.9820547,-2.404728,1.6703987,0.5308533,3.112172,8.793572,3.0261948,1,1683900579.2937028
0.6493396,0.87357616,0.98084146,-2.404728,1.6703987,0.5308533,3.112172,8.793572,3.0261948,1,1683900579.298839
0.6493396,0.87357616,0.98084146,-2.404728,1.6703987,0.5308533,3.1125925,8.744519,3.1647332,1,1683900579.3039758
0.745246,0.9419117,0.95448387,-2.404728,1.6703987,0.5308533,3.1125925,8.744519,3.1647332,1,1683900579.324495
0.745246,0.9419117,0.95448387,-0.36689758,-2.3690796,-0.19773483,3.1125925,8.744519,3.1647332,1,1683900579.3296804
0.745246,0.9419117,0.95448387,-0.36689758,-2.3690796,-0.19773483,3.1926022,8.583226,3.5079746,1,1683900579.3451173
0.8421381,0.9860887,1.1218954,-0.36689758,-2.3690796,-0.19773483,3.1926022,8.583226,3.5079746,1,1683900579.3655918
0.8421381,0.9860887,1.1218954,-0.36689758,-2.3690796,-0.19773483,3.245002,8.602376,3.411667,1,1683900579.3707242
0.8421381,0.9860887,1.1218954,0.8379364,-4.1960907,-0.5673027,3.245002,8.602376,3.411667,1,1683900579.3758535
0.8421381,0.9860887,1.1218954,4.295826,-8.097115,-1.6997719,3.245002,8.602376,3.411667,1,1683900579.4014635
0.9031488,0.9999954,1.4870039,4.295826,-8.097115,-1.6997719,3.245002,8.602376,3.411667,1,1683900579.4117224
0.9031488,0.9999954,1.4870039,4.295826,-8.097115,-1.6997719,3.4071715,8.797054,2.6783202,1,1683900579.4168572
0.9031488,0.9999954,1.4870039,4.295826,-8.097115,-1.6997719,3.4260516,8.987602,1.9119524,1,1683900579.4322603
0.9031488,0.9999954,1.4870039,5.904274,-8.871498,-2.2824287,3.4260516,8.987602,1.9119524,1,1683900579.4373949
0.84360915,0.93678576,1.2612509,5.904274,-8.871498,-2.2824287,3.4260516,8.987602,1.9119524,1,1683900579.4425335
0.84360915,0.93678576,1.2612509,5.904274,-8.871498,-2.2824287,3.3906734,9.082004,1.480184,1,1683900579.4732735
0.84360915,0.93678576,1.2612509,6.4273834,-8.900204,-2.5445175,3.3906734,9.082004,1.480184,1,1683900579.483532
0.3637891,0.7164013,0.32065853,6.4273834,-8.900204,-2.5445175,3.3906734,9.082004,1.480184,1,1683900579.4886286
0.3637891,0.7164013,0.32065853,7.0643806,-8.254662,-3.1943321,3.3906734,9.082004,1.480184,1,1683900579.5091522
0.3637891,0.7164013,0.32065853,7.0643806,-8.254662,-3.1943321,3.088019,9.306944,0.12385617,1,1683900579.514278
0.16634996,0.6517357,0.10295832,7.0643806,-8.254662,-3.1943321,3.088019,9.306944,0.12385617,1,1683900579.534781
0.16634996,0.6517357,0.10295832,6.997223,-7.929821,-3.2976723,3.088019,9.306944,0.12385617,1,1683900579.5501447
0.16634996,0.6517357,0.10295832,6.997223,-7.929821,-3.2976723,2.9306934,9.353084,-0.31820768,1,1683900579.5552375
-0.6485662,0.52336013,-0.36977947,6.997223,-7.929821,-3.2976723,2.9306934,9.353084,-0.31820768,1,1683900579.570595
-0.6485662,0.52336013,-0.36977947,6.033249,-6.436329,-2.86829,2.9306934,9.353084,-0.31820768,1,1683900579.5757213
-0.6485662,0.52336013,-0.36977947,6.033249,-6.436329,-2.86829,2.3785932,9.392982,-1.5114776,1,1683900579.5911207
-0.6485662,0.52336013,-0.36977947,6.033249,-6.436329,-2.86829,1.6680304,9.411924,-2.1917434,1,1683900579.6065118
-0.6485662,0.52336013,-0.36977947,6.033249,-6.436329,-2.86829,1.4382699,9.346158,-2.5982893,1,1683900579.611618
-0.6485662,0.52336013,-0.36977947,3.2869911,-2.8335762,-0.9860039,1.4382699,9.346158,-2.5982893,1,1683900579.6218615
-0.6485662,0.52336013,-0.36977947,3.2869911,-2.8335762,-0.9860039,1.391822,9.316519,-2.7268465,1,1683900579.6475027
-0.9365431,0.6534343,-0.68265814,3.2869911,-2.8335762,-0.9860039,1.391822,9.316519,-2.7268465,1,1683900579.6525977
-0.9365431,0.6534343,-0.68265814,2.4230194,-1.3017654,-0.35007477,1.391822,9.316519,-2.7268465,1,1683900579.6628542
-0.9365431,0.6534343,-0.68265814,2.4230194,-1.3017654,-0.35007477,1.5652832,9.278089,-2.7635758,1,1683900579.6935394
-0.61316997,0.7222703,-1.190049,2.4230194,-1.3017654,-0.35007477,1.5652832,9.278089,-2.7635758,1,1683900579.6986315
-0.61316997,0.7222703,-1.190049,-0.7588959,3.5323906,1.4821434,1.5652832,9.278089,-2.7635758,1,1683900579.703766
-0.3471526,0.72471195,-1.1043944,-0.7588959,3.5323906,1.4821434,1.5652832,9.278089,-2.7635758,1,1683900579.7242851
-0.3471526,0.72471195,-1.1043944,-0.7588959,3.5323906,1.4821434,1.8997079,9.301864,-2.4569948,1,1683900579.7396865
-0.3471526,0.72471195,-1.1043944,-3.0759048,6.232853,2.3972511,1.8997079,9.301864,-2.4569948,1,1683900579.7447875
-0.3471526,0.72471195,-1.1043944,-3.0759048,6.232853,2.3972511,2.3302352,9.339112,-1.87653,1,1683900579.7499561
-0.110419735,0.7513122,-0.84837115,-3.0759048,6.232853,2.3972511,2.3302352,9.339112,-1.87653,1,1683900579.765436
-0.110419735,0.7513122,-0.84837115,-5.121212,8.374023,3.031044,2.3302352,9.339112,-1.87653,1,1683900579.7705712
-0.110419735,0.7513122,-0.84837115,-6.6412735,9.634266,3.3752441,2.3302352,9.339112,-1.87653,1,1683900579.7859726
-0.110419735,0.7513122,-0.84837115,-6.6412735,9.634266,3.3752441,2.976625,9.325428,-0.58862394,1,1683900579.811642
0.21246813,0.77474284,-0.6052991,-6.6412735,9.634266,3.3752441,2.976625,9.325428,-0.58862394,1,1683900579.8167603
0.37672526,0.77694184,-0.46227363,-6.6412735,9.634266,3.3752441,2.976625,9.325428,-0.58862394,1,1683900579.8373833
0.37672526,0.77694184,-0.46227363,-7.198429,9.951763,3.414631,2.976625,9.325428,-0.58862394,1,1683900579.862998
-0.95997375,0.5489897,-0.97650415,-7.198429,9.951763,3.414631,2.976625,9.325428,-0.58862394,1,1683900579.8834605
-0.95997375,0.5489897,-0.97650415,0.9519577,0.899086,1.3607788,2.976625,9.325428,-0.58862394,1,1683900579.8937223
-0.95997375,0.5489897,-0.97650415,0.9519577,0.899086,1.3607788,1.6900357,9.358487,-2.3943439,1,1683900579.903989
-0.95997375,0.5489897,-0.97650415,0.9519577,0.899086,1.3607788,1.9776286,9.336359,-2.2564962,1,1683900579.914248
-0.95997375,0.5489897,-0.97650415,-1.7048454,4.563656,2.6486588,1.9776286,9.336359,-2.2564962,1,1683900579.924496
-0.40547898,0.60340345,-1.2225182,-1.7048454,4.563656,2.6486588,1.9776286,9.336359,-2.2564962,1,1683900579.9296298
0.115818635,0.75448173,-1.1305094,-1.7048454,4.563656,2.6486588,1.9776286,9.336359,-2.2564962,1,1683900579.9450076
0.115818635,0.75448173,-1.1305094,-4.3946266,7.489891,3.4518814,1.9776286,9.336359,-2.2564962,1,1683900579.9501433
0.115818635,0.75448173,-1.1305094,-4.3946266,7.489891,3.4518814,2.4159715,9.335515,-1.7837135,1,1683900579.9756718
0.115818635,0.75448173,-1.1305094,-6.6690445,9.536266,3.6542892,2.4159715,9.335515,-1.7837135,1,1683900579.980805
0.48605308,0.7793683,-0.772468,-6.6690445,9.536266,3.6542892,2.4159715,9.335515,-1.7837135,1,1683900579.9910696
0.48605308,0.7793683,-0.772468,-6.6690445,9.536266,3.6542892,2.884396,9.320467,-0.98972267,1,1683900580.0115504
0.48605308,0.7793683,-0.772468,-6.6690445,9.536266,3.6542892,3.0925775,9.293207,-0.49259734,1,1683900580.0166898
0.48605308,0.7793683,-0.772468,-7.5318146,10.204239,3.5860634,3.0925775,9.293207,-0.49259734,1,1683900580.0218682
0.556345,0.759365,-0.3622119,-7.5318146,10.204239,3.5860634,3.0925775,9.293207,-0.49259734,1,1683900580.0270033
0.49801862,0.67028314,0.04097708,-7.5318146,10.204239,3.5860634,3.0925775,9.293207,-0.49259734,1,1683900580.0526633
0.49801862,0.67028314,0.04097708,-7.5318146,10.204239,3.5860634,3.497881,9.07998,1.2203261,1,1683900580.0680215
0.49801862,0.67028314,0.04097708,-8.93692,10.779419,3.0789757,3.497881,9.07998,1.2203261,1,1683900580.073154
0.39771426,0.63563,0.41389582,-8.93692,10.779419,3.0789757,3.497881,9.07998,1.2203261,1,1683900580.0987167
0.39771426,0.63563,0.41389582,-8.843193,9.969788,2.6028633,3.497881,9.07998,1.2203261,1,1683900580.1038487
0.39771426,0.63563,0.41389582,-8.843193,9.969788,2.6028633,3.561118,8.820886,2.3834436,1,1683900580.1089427
0.40772346,0.6200096,0.5752108,-8.843193,9.969788,2.6028633,3.561118,8.820886,2.3834436,1,1683900580.134498
0.40772346,0.6200096,0.5752108,-8.843193,9.969788,2.6028633,3.5433922,8.666502,2.916591,1,1683900580.1447532
0.40772346,0.6200096,0.5752108,-8.45974,9.114361,2.3238182,3.5433922,8.666502,2.916591,1,1683900580.1498837
1.0154186,0.84185,1.3225193,-8.45974,9.114361,2.3238182,3.5433922,8.666502,2.916591,1,1683900580.1652393
1.0154186,0.84185,1.3225193,-8.45974,9.114361,2.3238182,3.571616,8.63796,2.9664102,1,1683900580.1703727
1.0154186,0.84185,1.3225193,-5.2393723,5.1005173,1.4949608,3.571616,8.63796,2.9664102,1,1683900580.175493
1.4244616,1.0876215,1.9692656,-5.2393723,5.1005173,1.4949608,3.571616,8.63796,2.9664102,1,1683900580.2011454
1.4244616,1.0876215,1.9692656,-0.9900093,-0.38345337,-0.13057709,3.571616,8.63796,2.9664102,1,1683900580.2062805
1.4244616,1.0876215,1.9692656,-0.9900093,-0.38345337,-0.13057709,3.5680225,8.490849,3.3682475,1,1683900580.2114055
1.4244616,1.0876215,1.9692656,-0.9900093,-0.38345337,-0.13057709,3.5929236,8.4832945,3.360804,1,1683900580.2216003
1.4244616,1.0876215,1.9692656,0.7611656,-2.3435783,-0.74741364,3.5929236,8.4832945,3.360804,1,1683900580.2267272
1.4649686,1.1527874,2.1047235,0.7611656,-2.3435783,-0.74741364,3.5929236,8.4832945,3.360804,1,1683900580.242127
1.0871665,1.0256251,1.4789511,0.7611656,-2.3435783,-0.74741364,3.5929236,8.4832945,3.360804,1,1683900580.2677264
1.0871665,1.0256251,1.4789511,0.7611656,-2.3435783,-0.74741364,3.6145515,8.629273,2.9395669,1,1683900580.2728584
1.0871665,1.0256251,1.4789511,4.073124,-5.459404,-1.9627953,3.6145515,8.629273,2.9395669,1,1683900580.2831311
1.0871665,1.0256251,1.4789511,4.073124,-5.459404,-1.9627953,3.6021376,8.740755,2.606567,1,1683900580.3036098
1.0871665,1.0256251,1.4789511,5.3152084,-6.460762,-2.4773598,3.6021376,8.740755,2.606567,1,1683900580.313881
0.2498055,0.7906059,0.07464441,5.3152084,-6.460762,-2.4773598,3.6021376,8.740755,2.606567,1,1683900580.3343887
0.2498055,0.7906059,0.07464441,5.3152084,-6.460762,-2.4773598,3.2775216,9.199987,0.88796115,1,1683900580.3497477
0.2498055,0.7906059,0.07464441,6.92379,-7.970276,-3.6992836,3.2775216,9.199987,0.88796115,1,1683900580.3548806
0.2498055,0.7906059,0.07464441,6.659565,-7.8744125,-3.776989,3.2775216,9.199987,0.88796115,1,1683900580.380443
0.2498055,0.7906059,0.07464441,6.659565,-7.8744125,-3.776989,2.9579716,9.34982,0.04070614,1,1683900580.3855813
0.07799597,0.72568256,-0.10594592,6.659565,-7.8744125,-3.776989,2.9579716,9.34982,0.04070614,1,1683900580.390713
0.07799597,0.72568256,-0.10594592,6.659565,-7.8744125,-3.776989,2.7762887,9.399403,-0.33740407,1,1683900580.4061007
-0.22634453,0.63952756,-0.19674155,6.659565,-7.8744125,-3.776989,2.7762887,9.399403,-0.33740407,1,1683900580.4163291
-0.22634453,0.63952756,-0.19674155,5.8276367,-7.292824,-3.6789894,2.7762887,9.399403,-0.33740407,1,1683900580.421461
-0.22634453,0.63952756,-0.19674155,4.8337555,-5.649128,-2.201519,2.7762887,9.399403,-0.33740407,1,1683900580.426569
-1.0749279,0.57558995,-0.5030384,4.8337555,-5.649128,-2.201519,2.7762887,9.399403,-0.33740407,1,1683900580.4419243
-1.0749279,0.57558995,-0.5030384,4.0476227,-4.352703,-1.5581131,2.7762887,9.399403,-0.33740407,1,1683900580.44705
-1.0749279,0.57558995,-0.5030384,4.0476227,-4.352703,-1.5581131,1.712938,9.381774,-2.2844133,1,1683900580.4573157
-1.0558953,0.6070735,-0.9774747,4.0476227,-4.352703,-1.5581131,1.712938,9.381774,-2.2844133,1,1683900580.4778488
-1.0558953,0.6070735,-0.9774747,0.87625504,0.7850647,0.56503296,1.712938,9.381774,-2.2844133,1,1683900580.488114
-0.52019054,0.6661278,-1.271806,0.87625504,0.7850647,0.56503296,1.712938,9.381774,-2.2844133,1,1683900580.5034952
-0.52019054,0.6661278,-1.271806,0.87625504,0.7850647,0.56503296,1.6998572,9.344343,-2.4421604,1,1683900580.508629
-0.52019054,0.6661278,-1.271806,0.87625504,0.7850647,0.56503296,1.9025017,9.339008,-2.3095005,1,1683900580.524019
-0.52019054,0.6661278,-1.271806,-2.9544067,5.6341743,2.415409,1.9025017,9.339008,-2.3095005,1,1683900580.534292
-0.27052152,0.71397483,-1.106093,-2.9544067,5.6341743,2.415409,1.9025017,9.339008,-2.3095005,1,1683900580.5393903
-0.27052152,0.71397483,-1.106093,-2.9544067,5.6341743,2.415409,2.2629037,9.355819,-1.8757119,1,1683900580.5496597
-0.27052152,0.71397483,-1.106093,-4.1262627,6.761303,2.8393173,2.2629037,9.355819,-1.8757119,1,1683900580.5547538
-0.27052152,0.71397483,-1.106093,-6.0457993,8.558407,3.3016777,2.2629037,9.355819,-1.8757119,1,1683900580.5905588
0.13803604,0.7569234,-0.6333552,-6.0457993,8.558407,3.3016777,2.2629037,9.355819,-1.8757119,1,1683900580.595707
0.13803604,0.7569234,-0.6333552,-6.0457993,8.558407,3.3016777,2.683147,9.360035,-1.1665616,1,1683900580.6059725
0.3140009,0.7647336,-0.39637968,-6.0457993,8.558407,3.3016777,2.683147,9.360035,-1.1665616,1,1683900580.611112
0.3140009,0.7647336,-0.39637968,-6.7510223,9.214497,3.3581543,2.683147,9.360035,-1.1665616,1,1683900580.6264439
0.3140009,0.7647336,-0.39637968,-6.7510223,9.214497,3.3581543,2.884776,9.344577,-0.7261806,1,1683900580.641828
0.3140009,0.7647336,-0.39637968,-6.7510223,9.214497,3.3581543,3.3336065,9.189478,0.7816416,1,1683900580.6469486
0.6698282,0.82697266,0.21791252,-6.7510223,9.214497,3.3581543,3.3336065,9.189478,0.7816416,1,1683900580.6572096
0.6698282,0.82697266,0.21791252,-7.7352905,9.879265,3.0066109,3.3336065,9.189478,0.7816416,1,1683900580.6674643
0.7000984,0.8740614,0.550567,-7.7352905,9.879265,3.0066109,3.3336065,9.189478,0.7816416,1,1683900580.69307
0.7000984,0.8740614,0.550567,-7.7352905,9.879265,3.0066109,3.455688,8.999218,1.8007464,1,1683900580.6982064
0.7000984,0.8740614,0.550567,-7.7352905,9.879265,3.0066109,3.3616922,8.709811,3.001432,1,1683900580.7135522
0.8377401,0.8303849,1.21489,-7.7352905,9.879265,3.0066109,3.3616922,8.709811,3.001432,1,1683900580.7238393
0.8377401,0.8303849,1.21489,-5.7262993,6.220169,1.7623901,3.3616922,8.709811,3.001432,1,1683900580.728986
1.4007883,1.1542434,1.7369307,-5.7262993,6.220169,1.7623901,3.3616922,8.709811,3.001432,1,1683900580.7443202
1.4007883,1.1542434,1.7369307,0.018692017,-1.654377,-0.29359818,3.3616922,8.709811,3.001432,1,1683900580.749452
1.4007883,1.1542434,1.7369307,0.018692017,-1.654377,-0.29359818,3.384881,8.487991,3.5590692,1,1683900580.7699811
1.1269606,1.0995718,1.5216721,0.018692017,-1.654377,-0.29359818,3.384881,8.487991,3.5590692,1,1683900580.8110065
1.1269606,1.0995718,1.5216721,4.6643257,-6.908169,-2.071476,3.384881,8.487991,3.5590692,1,1683900580.826365
1.1269606,1.0995718,1.5216721,4.6643257,-6.908169,-2.071476,3.4757469,8.699792,2.8988278,1,1683900580.8365707
0.57319385,0.9094576,0.7480061,4.6643257,-6.908169,-2.071476,3.4757469,8.699792,2.8988278,1,1683900580.8468182
0.57319385,0.9094576,0.7480061,6.833267,-8.583908,-3.1560135,3.4757469,8.699792,2.8988278,1,1683900580.8622112
0.57319385,0.9094576,0.7480061,6.833267,-8.583908,-3.1560135,3.389401,9.050857,1.66263,1,1683900580.867307
-0.13847584,0.67516637,-0.12059576,6.833267,-8.583908,-3.1560135,3.389401,9.050857,1.66263,1,1683900580.9134197
-0.13847584,0.67516637,-0.12059576,6.4199066,-7.91914,-3.4691048,3.389401,9.050857,1.66263,1,1683900580.9185543
-0.41988617,0.6348869,-0.19966848,6.4199066,-7.91914,-3.4691048,3.389401,9.050857,1.66263,1,1683900580.9236908
-0.41988617,0.6348869,-0.19966848,6.4199066,-7.91914,-3.4691048,2.5190694,9.438789,-0.8566937,1,1683900580.9287934
-0.41988617,0.6348869,-0.19966848,6.4199066,-7.91914,-3.4691048,2.873885,9.375456,-0.109550394,1,1683900580.9647079
-0.41988617,0.6348869,-0.19966848,5.585842,-7.02219,-3.1708336,2.873885,9.375456,-0.109550394,1,1683900580.9698434
-0.34618202,0.68907315,-0.2914347,5.585842,-7.02219,-3.1708336,2.873885,9.375456,-0.109550394,1,1683900580.9852364
-0.34618202,0.68907315,-0.2914347,5.1416397,-7.244892,-2.8012657,2.873885,9.375456,-0.109550394,1,1683900580.9903662
-0.34618202,0.68907315,-0.2914347,5.1416397,-7.244892,-2.8012657,2.5725727,9.2317295,-2.0802512,1,1683900581.000674
-0.7459436,0.6392849,-0.56673336,5.1416397,-7.244892,-2.8012657,2.5725727,9.2317295,-2.0802512,1,1683900581.0314937
-0.7459436,0.6392849,-0.56673336,3.27631,-4.056568,-1.6784096,2.5725727,9.2317295,-2.0802512,1,1683900581.036626
-0.7459436,0.6392849,-0.56673336,3.27631,-4.056568,-1.6784096,2.0650215,9.164153,-2.8150249,1,1683900581.0417569
-0.7459436,0.6392849,-0.56673336,3.27631,-4.056568,-1.6784096,1.9514459,9.103832,-3.0793626,1,1683900581.0930827
-0.8608978,0.64001286,-1.0101867,3.27631,-4.056568,-1.6784096,1.9514459,9.103832,-3.0793626,1,1683900581.0982192
-0.8608978,0.64001286,-1.0101867,-0.26996613,1.8045807,0.7886696,1.9514459,9.103832,-3.0793626,1,1683900581.1135912
-0.8608978,0.64001286,-1.0101867,-2.4207497,4.7372246,2.0403671,1.9514459,9.103832,-3.0793626,1,1683900581.123826
-0.5467908,0.70517886,-1.1817535,-2.4207497,4.7372246,2.0403671,1.9514459,9.103832,-3.0793626,1,1683900581.12897
-0.5467908,0.70517886,-1.1817535,-2.4207497,4.7372246,2.0403671,2.209691,9.120646,-2.8463047,1,1683900581.144325
-0.32200825,0.73276484,-1.1243978,-2.4207497,4.7372246,2.0403671,2.209691,9.120646,-2.8463047,1,1683900581.1545434
-0.32200825,0.73276484,-1.1243978,-2.4207497,4.7372246,2.0403671,2.4001627,9.137312,-2.6304247,1,1683900581.1596754
-0.32200825,0.73276484,-1.1243978,-3.4869957,5.9612846,2.5570679,2.4001627,9.137312,-2.6304247,1,1683900581.1648068
0.22540426,0.7940181,-0.63214195,-3.4869957,5.9612846,2.5570679,2.4001627,9.137312,-2.6304247,1,1683900581.2058094
0.22540426,0.7940181,-0.63214195,-3.4869957,5.9612846,2.5570679,3.088727,9.172801,-1.5779337,1,1683900581.2160716
0.22540426,0.7940181,-0.63214195,-6.3036156,9.009018,3.425312,3.088727,9.172801,-1.5779337,1,1683900581.2212038
0.22540426,0.7940181,-0.63214195,-6.3036156,9.009018,3.425312,2.978475,9.305151,-0.844528,1,1683900581.2776277
0.22540426,0.7940181,-0.63214195,-6.339798,8.59993,3.6574936,2.978475,9.305151,-0.844528,1,1683900581.2878523
0.23394242,0.7154307,-0.38735625,-6.339798,8.59993,3.6574936,2.978475,9.305151,-0.844528,1,1683900581.2929845
0.23394242,0.7154307,-0.38735625,-6.339798,8.59993,3.6574936,3.6072235,9.0313015,1.2625082,1,1683900581.2981172
0.5946681,0.718115,0.49686605,-6.339798,8.59993,3.6574936,3.6072235,9.0313015,1.2625082,1,1683900581.303196
0.5946681,0.718115,0.49686605,-8.303127,10.924282,3.379383,3.6072235,9.0313015,1.2625082,1,1683900581.323736
0.7074233,0.7325222,0.8927301,-8.303127,10.924282,3.379383,3.6072235,9.0313015,1.2625082,1,1683900581.3339977
0.7074233,0.7325222,0.8927301,-8.296719,10.866737,2.7285004,3.6072235,9.0313015,1.2625082,1,1683900581.3494081
0.7074233,0.7325222,0.8927301,-8.296719,10.866737,2.7285004,3.672409,8.764557,2.4220529,1,1683900581.3596377
0.7608664,0.72665316,1.086029,-8.296719,10.866737,2.7285004,3.672409,8.764557,2.4220529,1,1683900581.3647668
0.7608664,0.72665316,1.086029,-7.891903,10.202103,2.2917747,3.672409,8.764557,2.4220529,1,1683900581.3852434
0.7608664,0.72665316,1.086029,-7.891903,10.202103,2.2917747,3.638936,8.612805,2.9577222,1,1683900581.3954978
1.0525135,0.78499466,1.7352171,-7.891903,10.202103,2.2917747,3.638936,8.612805,2.9577222,1,1683900581.4005895
1.0525135,0.78499466,1.7352171,-4.4958305,4.954586,0.75141907,3.638936,8.612805,2.9577222,1,1683900581.4261425
1.0525135,0.78499466,1.7352171,-4.4958305,4.954586,0.75141907,3.4436078,8.210756,4.110405,1,1683900581.4312525
1.124519,0.86259633,1.9983075,-4.4958305,4.954586,0.75141907,3.4436078,8.210756,4.110405,1,1683900581.4516892
1.2226244,1.039547,2.1503565,-4.4958305,4.954586,0.75141907,3.4436078,8.210756,4.110405,1,1683900581.4619927
1.2226244,1.039547,2.1503565,1.663456,-3.1712341,-0.85609436,3.4436078,8.210756,4.110405,1,1683900581.4671345
1.2226244,1.039547,2.1503565,1.663456,-3.1712341,-0.85609436,3.453852,8.167125,4.188002,1,1683900581.472262
0.9358607,0.9426548,1.3173934,1.663456,-3.1712341,-0.85609436,3.453852,8.167125,4.188002,1,1683900581.5083284
0.9358607,0.9426548,1.3173934,6.321907,-8.237705,-2.5029945,3.453852,8.167125,4.188002,1,1683900581.5237744
0.9358607,0.9426548,1.3173934,6.5189743,-8.375092,-3.3104897,3.453852,8.167125,4.188002,1,1683900581.5289187
0.9358607,0.9426548,1.3173934,6.5189743,-8.375092,-3.3104897,3.470651,8.981166,1.8610828,1,1683900581.5546222
0.5685532,0.927277,0.4993077,6.5189743,-8.375092,-3.3104897,3.470651,8.981166,1.8610828,1,1683900581.5598614
0.5685532,0.927277,0.4993077,7.086811,-9.383926,-4.1083717,3.470651,8.981166,1.8610828,1,1683900581.570163
0.018941663,0.7000529,-0.0268732,7.086811,-9.383926,-4.1083717,3.470651,8.981166,1.8610828,1,1683900581.5804636
0.018941663,0.7000529,-0.0268732,6.6841316,-9.354019,-4.3022346,3.470651,8.981166,1.8610828,1,1683900581.5907395
0.018941663,0.7000529,-0.0268732,6.6841316,-9.354019,-4.3022346,3.0990095,9.293301,0.44842625,1,1683900581.6061883
0.018941663,0.7000529,-0.0268732,6.6841316,-9.354019,-4.3022346,2.6961725,9.41751,-0.45995575,1,1683900581.6164463
0.29154086,0.7989014,0.07001894,6.6841316,-9.354019,-4.3022346,2.6961725,9.41751,-0.45995575,1,1683900581.6215713
-0.14971344,0.66491455,0.006566645,6.403885,-9.101543,-4.286213,2.4609487,9.452275,-0.8767093,1,1683900581.6370568
-0.7071352,0.53506786,-0.095694065,6.403885,-9.101543,-4.286213,1.712616,9.459488,-1.9378867,1,1683900581.6422026
-0.7071352,0.53506786,-0.095694065,5.337639,-7.17453,-3.6492157,1.712616,9.459488,-1.9378867,1,1683900581.647405
-1.2198946,0.50188583,-0.6177348,5.337639,-7.17453,-3.6492157,1.712616,9.459488,-1.9378867,1,1683900581.6783583
-1.2198946,0.50188583,-0.6177348,2.9397202,-2.7355766,-1.4770699,1.712616,9.459488,-1.9378867,1,1683900581.683494
-1.2201372,0.55020297,-0.97333455,2.9397202,-2.7355766,-1.4770699,1.712616,9.459488,-1.9378867,1,1683900581.7092435
-1.2201372,0.55020297,-0.97333455,1.3067055,-0.1640892,-0.10187149,1.712616,9.459488,-1.9378867,1,1683900581.7143793
-1.2201372,0.55020297,-0.97333455,1.3067055,-0.1640892,-0.10187149,0.89741117,9.292771,-3.0015721,1,1683900581.7246637
-1.2201372,0.55020297,-0.97333455,1.3067055,-0.1640892,-0.10187149,1.2401266,9.120998,-3.3822849,1,1683900581.729808
-1.2201372,0.55020297,-0.97333455,-1.6611862,4.139614,2.048912,1.2401266,9.120998,-3.3822849,1,1683900581.7349293
-0.6424545,0.6134126,-1.4075066,-1.6611862,4.139614,2.048912,1.2401266,9.120998,-3.3822849,1,1683900581.7452407
-0.6424545,0.6134126,-1.4075066,-1.6611862,4.139614,2.048912,1.3931223,9.131749,-3.2925286,1,1683900581.7504005
0.03212045,0.6822335,-0.9467343,-1.6611862,4.139614,2.048912,1.3931223,9.131749,-3.2925286,1,1683900581.7864048
0.03212045,0.6822335,-0.9467343,-5.049782,7.5346184,3.2708359,1.3931223,9.131749,-3.2925286,1,1683900581.7915726
0.03212045,0.6822335,-0.9467343,-5.049782,7.5346184,3.2708359,2.0703647,9.223565,-2.609563,1,1683900581.7967255
0.03212045,0.6822335,-0.9467343,-5.949936,8.428364,3.4412003,2.0703647,9.223565,-2.609563,1,1683900581.8070006
0.03212045,0.6822335,-0.9467343,-7.6734734,10.157375,3.303814,2.0703647,9.223565,-2.609563,1,1683900581.8431897
0.03212045,0.6822335,-0.9467343,-7.6734734,10.157375,3.303814,3.0408332,9.283791,-0.8572912,1,1683900581.8483636
0.55610234,0.79474604,-0.008811134,-7.6734734,10.157375,3.303814,3.0408332,9.283791,-0.8572912,1,1683900581.853545
0.55610234,0.79474604,-0.008811134,-7.6734734,10.157375,3.303814,3.3599179,9.210507,0.2188635,1,1683900581.8690135
0.5917412,0.8093959,0.40120232,-7.943039,10.4460335,2.8979301,3.3599179,9.210507,0.2188635,1,1683900581.8742
0.63176286,0.82965696,0.564959,-6.1598206,7.5549126,1.4258003,3.5294666,8.888047,2.171603,1,1683900581.8793566
0.8350559,0.8613831,0.94374675,-6.1598206,7.5549126,1.4258003,3.5294666,8.888047,2.171603,1,1683900581.8896987
0.8350559,0.8613831,0.94374675,-6.1598206,7.5549126,1.4258003,3.5099895,8.808166,2.5033119,1,1683900581.8948612
0.94195724,0.98804504,1.7769524,-3.9429474,3.6763191,0.37757874,3.4210217,8.795809,2.6647246,1,1683900581.90525
0.94195724,0.98804504,1.7769524,-0.7524872,-0.15554428,-0.39266586,3.4210217,8.795809,2.6647246,1,1683900581.9206462
0.94195724,0.98804504,1.7769524,1.0030937,-2.1028519,-0.8038902,3.4210217,8.795809,2.6647246,1,1683900581.92581
0.95123845,1.0439298,1.7869616,1.0030937,-2.1028519,-0.8038902,3.4210217,8.795809,2.6647246,1,1683900581.9309754
0.95123845,1.0439298,1.7869616,1.0030937,-2.1028519,-0.8038902,3.417499,8.816241,2.6009517,1,1683900581.956599
0.95123845,1.0439298,1.7869616,5.287571,-6.3926697,-1.9916344,3.417499,8.816241,2.6009517,1,1683900581.9668229
0.72352904,0.9343442,1.1177553,5.287571,-6.3926697,-1.9916344,3.417499,8.816241,2.6009517,1,1683900581.987256
0.72352904,0.9343442,1.1177553,5.287571,-6.3926697,-1.9916344,3.3868651,9.01856,1.8344177,1,1683900581.9923933
0.72352904,0.9343442,1.1177553,6.126976,-7.1873474,-2.3335648,3.3868651,9.01856,1.8344177,1,1683900581.997555
0.72352904,0.9343442,1.1177553,6.126976,-7.1873474,-2.3335648,3.3429089,9.105217,1.4458086,1,1683900582.0130165
0.62272424,0.9087297,0.81731224,6.126976,-7.1873474,-2.3335648,3.3429089,9.105217,1.4458086,1,1683900582.0284011
0.62272424,0.9087297,0.81731224,7.1048355,-8.296318,-3.0963326,3.3429089,9.105217,1.4458086,1,1683900582.0335045
0.62272424,0.9087297,0.81731224,7.1048355,-8.296318,-3.0963326,3.038407,9.323448,0.10860292,1,1683900582.0540261
0.14998643,0.7949887,0.045602545,7.1048355,-8.296318,-3.0963326,3.038407,9.323448,0.10860292,1,1683900582.064304
0.14998643,0.7949887,0.045602545,7.1048355,-8.296318,-3.0963326,2.7041855,9.394171,-0.77931184,1,1683900582.0900643
-0.08406216,0.68053496,-0.27972695,7.1048355,-8.296318,-3.0963326,2.7041855,9.394171,-0.77931184,1,1683900582.0951931
-0.08406216,0.68053496,-0.27972695,6.7938805,-8.24091,-3.2326508,2.7041855,9.394171,-0.77931184,1,1683900582.100349
-0.17045979,0.6436829,-0.35904232,6.7938805,-8.24091,-3.2326508,2.7041855,9.394171,-0.77931184,1,1683900582.110666
-0.17045979,0.6436829,-0.35904232,6.7938805,-8.24091,-3.2326508,2.5110748,9.404812,-1.1892918,1,1683900582.1210124
-0.17045979,0.6436829,-0.35904232,6.457157,-8.047047,-3.2007408,2.5110748,9.404812,-1.1892918,1,1683900582.1313407
-0.17045979,0.6436829,-0.35904232,3.919716,-4.75111,-2.1748161,2.5110748,9.404812,-1.1892918,1,1683900582.1364892
-0.17045979,0.6436829,-0.35904232,3.919716,-4.75111,-2.1748161,2.2988284,9.285297,-2.1607933,1,1683900582.1468887
-0.17045979,0.6436829,-0.35904232,3.410492,-3.893547,-1.7147255,2.2988284,9.285297,-2.1607933,1,1683900582.1830246
-0.17045979,0.6436829,-0.35904232,3.410492,-3.893547,-1.7147255,2.1645913,9.26728,-2.3669522,1,1683900582.19336
-0.740575,0.59535056,-0.46471527,3.410492,-3.893547,-1.7147255,2.1645913,9.26728,-2.3669522,1,1683900582.198519
-0.740575,0.59535056,-0.46471527,1.3215256,-0.39840698,0.10053635,2.1645913,9.26728,-2.3669522,1,1683900582.2190413
-0.94118375,0.5897393,-0.76001716,1.3215256,-0.39840698,0.10053635,2.1645913,9.26728,-2.3669522,1,1683900582.2241893
-0.94118375,0.5897393,-0.76001716,1.3215256,-0.39840698,0.10053635,1.9886651,9.207507,-2.7271607,1,1683900582.2293289
-0.80598366,0.56386703,-0.97796,1.3215256,-0.39840698,0.10053635,1.9886651,9.207507,-2.7271607,1,1683900582.2396426
-0.80598366,0.56386703,-0.97796,1.3215256,-0.39840698,0.10053635,2.1174119,9.187341,-2.6980965,1,1683900582.2499182
-0.80598366,0.56386703,-0.97796,-0.62257767,2.6003265,1.4683914,2.1174119,9.187341,-2.6980965,1,1683900582.2653067
-0.80598366,0.56386703,-0.97796,-0.62257767,2.6003265,1.4683914,2.258331,9.186423,-2.5845578,1,1683900582.2859576
-0.6141557,0.55240196,-1.0563048,-0.62257767,2.6003265,1.4683914,2.258331,9.186423,-2.5845578,1,1683900582.2910678
-0.6141557,0.55240196,-1.0563048,-1.7367554,4.138546,2.1032524,2.258331,9.186423,-2.5845578,1,1683900582.3013477
0.045541883,0.6712537,-0.8151891,-1.7367554,4.138546,2.1032524,2.258331,9.186423,-2.5845578,1,1683900582.306515
0.045541883,0.6712537,-0.8151891,-1.7367554,4.138546,2.1032524,2.8899572,9.194216,-1.8124379,1,1683900582.3219805
0.045541883,0.6712537,-0.8151891,-4.958191,7.805252,3.4315872,2.8899572,9.194216,-1.8124379,1,1683900582.3271298
0.045541883,0.6712537,-0.8151891,-4.958191,7.805252,3.4315872,3.1260703,9.185922,-1.4201764,1,1683900582.368385
0.045541883,0.6712537,-0.8151891,-4.958191,7.805252,3.4315872,3.7393184,9.065619,0.049302623,1,1683900582.399313
0.045541883,0.6712537,-0.8151891,4.056034,-5.0770187,-3.049469,0.98098314,9.315861,-2.9022052,1,1683900582.4047203
-1.2667559,0.32299402,-0.2540973,4.056034,-5.0770187,-3.049469,0.98098314,9.315861,-2.9022052,1,1683900582.404742
-1.2667559,0.32299402,-0.2540973,4.056034,-5.0770187,-3.049469,0.6714865,9.239597,-3.217038,1,1683900582.4151063
-1.454201,0.359103,-0.5896787,4.056034,-5.0770187,-3.049469,0.6714865,9.239597,-3.217038,1,1683900582.4254217
-1.454201,0.359103,-0.5896787,2.6371765,-2.5044632,-1.5217972,0.592632,9.193897,-3.3602703,1,1683900582.436059
-1.454201,0.359103,-0.5896787,0.89761734,0.28345108,0.09946823,0.592632,9.193897,-3.3602703,1,1683900582.441208
-1.4349105,0.4162161,-0.9225606,0.89761734,0.28345108,0.09946823,0.592632,9.193897,-3.3602703,1,1683900582.4567173
-1.4349105,0.4162161,-0.9225606,-1.0763931,2.9294395,1.6483688,0.592632,9.193897,-3.3602703,1,1683900582.4773788
-1.2240499,0.47113025,-1.1209855,-1.0763931,2.9294395,1.6483688,0.592632,9.193897,-3.3602703,1,1683900582.4876926
-1.2240499,0.47113025,-1.1209855,-1.0763931,2.9294395,1.6483688,0.75225663,9.199305,-3.3131986,1,1683900582.492848
-1.0693167,0.4762562,-1.1309947,-2.0872307,4.105568,2.3482513,0.91334665,9.220989,-3.2108474,1,1683900582.4981067
-1.0693167,0.4762562,-1.1309947,-4.8452377,6.8240547,3.9728546,0.91334665,9.220989,-3.2108474,1,1683900582.5032573
-0.47869784,0.42085674,-0.82152826,-4.8452377,6.8240547,3.9728546,1.6312888,9.321415,-2.5730314,1,1683900582.5084038
-0.15897955,0.4123186,-0.41736868,-4.8452377,6.8240547,3.9728546,1.6312888,9.321415,-2.5730314,1,1683900582.5136476
-0.15897955,0.4123186,-0.41736868,-4.8452377,6.8240547,3.9728546,2.213999,9.367536,-1.8755989,1,1683900582.5188093
-0.15897955,0.4123186,-0.41736868,-6.315365,8.1567955,4.591694,2.213999,9.367536,-1.8755989,1,1683900582.5239344
0.11216376,0.3874169,0.054155868,-6.315365,8.1567955,4.591694,2.213999,9.367536,-1.8755989,1,1683900582.5342717
0.11216376,0.3874169,0.054155868,-6.315365,8.1567955,4.591694,2.7890787,9.349746,-0.9867611,1,1683900582.539438
0.11216376,0.3874169,0.054155868,-7.3529053,9.119701,4.8505783,2.7890787,9.349746,-0.9867611,1,1683900582.5446208
0.11216376,0.3874169,0.054155868,-7.3529053,9.119701,4.8505783,1.9556909,9.301661,-2.4134564,1,1683900582.5760105
-0.5807159,0.5592416,-0.14011371,-7.3529053,9.119701,4.8505783,1.9556909,9.301661,-2.4134564,1,1683900582.5813565
-0.5807159,0.5592416,-0.14011371,6.1045456,-8.68618,-4.5770073,1.9556909,9.301661,-2.4134564,1,1683900582.587067
-1.2164824,0.50017214,-0.48154894,6.1045456,-8.68618,-4.5770073,1.9556909,9.301661,-2.4134564,1,1683900582.6078598
-1.2164824,0.50017214,-0.48154894,4.3735313,-5.299721,-2.9099464,1.9556909,9.301661,-2.4134564,1,1683900582.6182551
-1.3997722,0.49528885,-0.8874222,2.590313,-2.1582603,-1.3141823,0.8508542,9.085238,-3.592336,1,1683900582.6389284
-1.3997722,0.49528885,-0.8874222,2.590313,-2.1582603,-1.3141823,1.1453058,9.174786,-3.2683299,1,1683900582.6441503
-1.3997722,0.49528885,-0.8874222,2.590313,-2.1582603,-1.3141823,0.82733476,9.046933,-3.6930895,1,1683900582.6599126
-1.2979968,0.54215014,-1.2708354,2.590313,-2.1582603,-1.3141823,0.82733476,9.046933,-3.6930895,1,1683900582.665154
-1.2979968,0.54215014,-1.2708354,0.32016754,1.2900162,0.36262512,0.82733476,9.046933,-3.6930895,1,1683900582.675445
-1.0114757,0.56045485,-1.4289808,-2.1214104,4.218521,1.8081856,1.248249,9.119697,-3.3828094,1,1683900582.6859941
-0.72616786,0.45014125,-1.1495421,-3.2761765,5.351925,2.404728,1.248249,9.119697,-3.3828094,1,1683900582.6965365
-0.72616786,0.45014125,-1.1495421,-6.172638,7.938366,3.7608337,1.248249,9.119697,-3.3828094,1,1683900582.7017078
-0.42622533,0.3974261,-0.6489756,-6.172638,7.938366,3.7608337,1.248249,9.119697,-3.3828094,1,1683900582.7068899
-0.42622533,0.3974261,-0.6489756,-6.172638,7.938366,3.7608337,2.0034947,9.266608,-2.507267,1,1683900582.7121222
-0.42622533,0.3974261,-0.6489756,-7.4669266,9.081383,4.214649,2.0034947,9.266608,-2.507267,1,1683900582.7296498
-0.08381951,0.36105934,-0.109373316,-7.4669266,9.081383,4.214649,2.0034947,9.266608,-2.507267,1,1683900582.7400806
-0.08381951,0.36105934,-0.109373316,-7.4669266,9.081383,4.214649,1.8211393,9.247987,-2.7071352,1,1683900582.7452548
-0.97974956,0.46503374,0.19789413,-7.4669266,9.081383,4.214649,1.8211393,9.247987,-2.7071352,1,1683900582.7659974
-0.97974956,0.46503374,0.19789413,6.8247223,-10.099697,-4.2637825,1.8211393,9.247987,-2.7071352,1,1683900582.7712023
-0.97974956,0.46503374,0.19789413,1.8521118,-0.40161133,0.42230606,1.8211393,9.247987,-2.7071352,1,1683900582.8073428
-1.804417,0.28271455,-1.2518028,1.8521118,-0.40161133,0.42230606,1.8211393,9.247987,-2.7071352,1,1683900582.8126638
-0.97974956,0.46503374,0.19789413,1.8521118,-0.40161133,0.42230606,1.8211393,9.247987,-2.7071352,1,1683900582.817794
-0.97974956,0.46503374,0.19789413,6.8247223,-10.099697,-4.2637825,1.8211393,9.247987,-2.7071352,1,1683900582.8281236
-0.97974956,0.46503374,0.19789413,6.8247223,-10.099697,-4.2637825,0.95509416,8.9599285,-3.870123,1,1683900582.8333936
-1.6059922,0.33835664,-1.4799975,6.8247223,-10.099697,-4.2637825,0.95509416,8.9599285,-3.870123,1,1683900582.8489926
-1.6059922,0.33835664,-1.4799975,0.36382675,1.7012405,1.4758682,0.95509416,8.9599285,-3.870123,1,1683900582.8541543
-1.6059922,0.33835664,-1.4799975,0.36382675,1.7012405,1.4758682,1.0327661,8.941553,-3.892611,1,1683900582.8697515
-0.62342185,0.38571838,-1.2744904,0.36382675,1.7012405,1.4758682,1.0327661,8.941553,-3.892611,1,1683900582.8748925
-0.62342185,0.38571838,-1.2744904,-3.8896751,6.385193,3.7820625,1.0327661,8.941553,-3.892611,1,1683900582.8800688
-0.62342185,0.38571838,-1.2744904,-3.8896751,6.385193,3.7820625,1.691168,9.006963,-3.4906938,1,1683900582.8905463
-0.07697989,0.33030376,-0.43908563,-3.8896751,6.385193,3.7820625,1.691168,9.006963,-3.4906938,1,1683900582.8957005
-0.07697989,0.33030376,-0.43908563,-3.8896751,6.385193,3.7820625,2.6467245,9.12078,-2.4447145,1,1683900582.9008896
-0.07697989,0.33030376,-0.43908563,-6.7424774,8.711815,4.6790123,2.6467245,9.12078,-2.4447145,1,1683900582.9060833
-0.07697989,0.33030376,-0.43908563,-7.3017693,9.1207695,4.786625,2.6467245,9.12078,-2.4447145,1,1683900582.9164386
0.096785985,0.32030973,-0.15304984,-7.3017693,9.1207695,4.786625,2.6467245,9.12078,-2.4447145,1,1683900582.9215806
0.096785985,0.32030973,-0.15304984,-7.3017693,9.1207695,4.786625,2.9645543,9.13426,-1.986732,1,1683900582.9473162
0.096785985,0.32030973,-0.15304984,-7.8653336,9.338131,4.745102,2.9645543,9.13426,-1.986732,1,1683900582.9628704
0.533157,0.3869316,0.21986887,-7.8653336,9.338131,4.745102,2.9645543,9.13426,-1.986732,1,1683900582.9784408
2.05583,1.1564423,2.789793,-4.450035,0.8543587,-0.5236435,4.6657505,8.289933,2.3828924,1,1683900582.9836981
2.05583,1.1564423,2.789793,-4.450035,0.8543587,-0.5236435,4.635774,8.280209,2.4734879,1,1683900582.9888668
1.2602044,0.9121419,2.7844243,2.5509262,-4.188614,-2.3985863,4.551108,8.389689,2.2518668,1,1683900582.994177
0.78869504,0.7818099,1.6600418,2.5509262,-4.188614,-2.3985863,4.551108,8.389689,2.2518668,1,1683900582.999343
0.50217396,0.7271536,0.7301867,6.80336,-7.0275307,-3.6267853,4.045191,8.927583,0.32417232,1,1683900583.0046413
0.50217396,0.7271536,0.7301867,7.036743,-7.7518463,-4.0166473,4.045191,8.927583,0.32417232,1,1683900583.009804
0.50217396,0.7271536,0.7301867,7.036743,-7.7518463,-4.0166473,3.6663601,9.075015,-0.6101503,1,1683900583.015019
0.4367653,0.75595284,-0.009554242,7.036743,-7.7518463,-4.0166473,3.6663601,9.075015,-0.6101503,1,1683900583.0253701
0.4599533,0.7818099,-0.42152402,6.686268,-8.361206,-4.400234,3.4324436,9.12413,-1.0672252,1,1683900583.0305882
0.4599533,0.7818099,-0.42152402,6.686268,-8.361206,-4.400234,2.8774617,9.177094,-1.9161254,1,1683900583.0563467
0.4599533,0.7818099,-0.42152402,6.0471344,-8.640385,-4.796505,2.8774617,9.177094,-1.9161254,1,1683900583.061548
0.4599533,0.7818099,-0.42152402,-4.45858,6.499214,3.4923363,2.8774617,9.177094,-1.9161254,1,1683900583.0823426
0.4599533,0.7818099,-0.42152402,-4.45858,6.499214,3.4923363,0.84614867,9.128755,-3.4814186,1,1683900583.0874968
-1.0051365,0.36301568,-0.9618543,-4.45858,6.499214,3.4923363,0.84614867,9.128755,-3.4814186,1,1683900583.0926611
-0.5343399,0.15239774,-0.37466276,-4.45858,6.499214,3.4923363,0.84614867,9.128755,-3.4814186,1,1683900583.1032403
-0.5343399,0.15239774,-0.37466276,-4.45858,6.499214,3.4923363,1.4569896,9.2578125,-2.8879879,1,1683900583.1084452
-0.5343399,0.15239774,-0.37466276,-6.0267067,8.021412,4.4372177,1.4569896,9.2578125,-2.8879879,1,1683900583.1137347
-0.5343399,0.15239774,-0.37466276,-7.3454285,9.314632,5.0795555,1.4569896,9.2578125,-2.8879879,1,1683900583.1189961
-0.5343399,0.15239774,-0.37466276,-7.3454285,9.314632,5.0795555,1.7906504,9.309686,-2.5087273,1,1683900583.134535
-0.35130793,0.13385037,-0.17159721,-7.3454285,9.314632,5.0795555,1.7906504,9.309686,-2.5087273,1,1683900583.1396792
0.029921457,0.19217674,0.21669929,-7.3454285,9.314632,5.0795555,1.7906504,9.309686,-2.5087273,1,1683900583.145146
0.029921457,0.19217674,0.21669929,-8.265877,10.076332,5.3512573,1.7906504,9.309686,-2.5087273,1,1683900583.1605754
0.029921457,0.19217674,0.21669929,-8.265877,10.076332,5.3512573,3.0695477,9.298999,-0.5261997,1,1683900583.1657567
0.21588036,0.2568423,0.42414767,-8.265877,10.076332,5.3512573,3.0695477,9.298999,-0.5261997,1,1683900583.1760604
0.21588036,0.2568423,0.42414767,-8.519421,10.193558,5.32135,3.0695477,9.298999,-0.5261997,1,1683900583.1967902
0.21588036,0.2568423,0.42414767,-8.247719,9.338131,4.415989,3.0695477,9.298999,-0.5261997,1,1683900583.2224474
0.9434283,0.55777055,1.0001167,-8.247719,9.338131,4.415989,3.0695477,9.298999,-0.5261997,1,1683900583.2276843
0.9434283,0.55777055,1.0001167,-8.247719,9.338131,4.415989,3.701425,9.006568,1.1625687,1,1683900583.232864
0.9434283,0.55777055,1.0001167,-5.5153465,5.1750183,2.2119331,3.701425,9.006568,1.1625687,1,1683900583.2431786
1.7895701,0.96314335,1.8384484,-5.5153465,5.1750183,2.2119331,3.701425,9.006568,1.1625687,1,1683900583.2534738
1.7895701,0.96314335,1.8384484,-5.5153465,5.1750183,2.2119331,3.8987164,8.743202,2.1276338,1,1683900583.258628
2.0302157,1.065404,2.1425462,-5.5153465,5.1750183,2.2119331,3.8987164,8.743202,2.1276338,1,1683900583.2896078
2.0302157,1.065404,2.1425462,-5.5153465,5.1750183,2.2119331,1.577568,9.041329,-3.4548585,1,1683900583.305194
-0.10358011,0.49992946,-0.5223137,-2.916088,4.497566,2.771225,1.577568,9.041329,-3.4548585,1,1683900583.3052106
-0.10358011,0.49992946,-0.5223137,-2.916088,4.497566,2.771225,2.3256755,9.139289,-2.6898003,1,1683900583.3206577
0.3957579,0.64172655,0.15591612,-6.5763855,8.646793,3.989811,2.5991964,9.161185,-2.3424888,1,1683900583.3363035
0.3957579,0.64172655,0.15591612,-6.5763855,8.646793,3.989811,3.3667665,9.145026,-1.0971617,1,1683900583.3620217
0.6991278,0.70029557,0.5617894,-6.5763855,8.646793,3.989811,3.3667665,9.145026,-1.0971617,1,1683900583.4084618
0.6991278,0.70029557,0.5617894,-6.662636,8.706474,3.5104942,3.3667665,9.145026,-1.0971617,1,1683900583.4136097
0.6991278,0.70029557,0.5617894,-6.662636,8.706474,3.5104942,3.9356918,8.976786,0.31312335,1,1683900583.4188144
1.1423233,0.8335545,1.2090361,-6.662636,8.706474,3.5104942,3.9356918,8.976786,0.31312335,1,1683900583.4240355
1.1423233,0.8335545,1.2090361,-5.5813026,6.8997574,2.4111366,3.9356918,8.976786,0.31312335,1,1683900583.4291785
1.1423233,0.8335545,1.2090361,-5.5813026,6.8997574,2.4111366,4.2183733,8.703941,1.6177564,1,1683900583.4395015
1.0222583,0.87260556,0.66429275,-0.91978073,2.622757,1.4821434,3.7194827,6.2882915,6.5416536,1,1683900583.4458978
1.0222583,0.87260556,0.66429275,-0.8665085,2.2594643,0.625782,3.7194827,6.2882915,6.5416536,1,1683900583.451029
1.0437326,0.8772462,0.42780253,-0.8665085,2.2594643,0.625782,3.7194827,6.2882915,6.5416536,1,1683900583.4562857
1.0437326,0.8772462,0.42780253,-0.8665085,2.2594643,0.625782,3.6327274,6.199569,6.673756,1,1683900583.4614391
1.0776578,0.92604864,1.0538025,-0.8665085,2.2594643,0.625782,3.6327274,6.199569,6.673756,1,1683900583.4666233
1.0776578,0.92604864,1.0538025,-0.8665085,2.2594643,0.625782,3.5671651,6.1669545,6.739021,1,1683900583.4717646
1.0776578,0.92604864,1.0538025,-0.7982826,2.3531914,0.23471832,3.5671651,6.1669545,6.739021,1,1683900583.48205
0.785025,0.908487,0.8822356,-0.7982826,2.3531914,0.23471832,3.5671651,6.1669545,6.739021,1,1683900583.4923964
0.785025,0.908487,0.8822356,-0.7982826,2.3531914,0.23471832,3.186594,6.1611857,6.9322276,1,1683900583.4975805
0.785025,0.908487,0.8822356,-0.091991425,3.6592293,-0.97745895,3.186594,6.1611857,6.9322276,1,1683900583.5130255
0.20173098,0.60683084,0.12663162,-0.091991425,3.6592293,-0.97745895,3.186594,6.1611857,6.9322276,1,1683900583.5542595
0.20173098,0.60683084,0.12663162,-0.60014725,1.7906952,-0.22857666,3.186594,6.1611857,6.9322276,1,1683900583.5594547
0.20173098,0.60683084,0.12663162,-0.60014725,1.7906952,-0.22857666,0.7500621,5.202806,8.278805,1,1683900583.57507
-0.08234846,0.4625921,0.9705896,-0.60014725,1.7906952,-0.22857666,0.7500621,5.202806,8.278805,1,1683900583.5802135
-0.08234846,0.4625921,0.9705896,-1.534481,1.4701271,0.14846802,0.7500621,5.202806,8.278805,1,1683900583.5905983
-0.08234846,0.4625921,0.9705896,-1.534481,1.4701271,0.14846802,0.59060746,5.051034,8.385023,1,1683900583.6061184
0.05188105,0.54166484,1.0184214,-1.534481,1.4701271,0.14846802,0.59060746,5.051034,8.385023,1,1683900583.6112597
0.05188105,0.54166484,1.0184214,-1.006031,1.3635826,0.29226303,0.542146,5.0142074,8.410361,1,1683900583.6321003
0.20221628,0.5909677,1.1209248,-1.006031,1.3635826,0.29226303,0.542146,5.0142074,8.410361,1,1683900583.6475062
0.20221628,0.5909677,1.1209248,-1.006031,1.3635826,0.29226303,0.3644223,4.936022,8.466007,1,1683900583.6629303
0.20221628,0.5909677,1.1209248,-0.49467087,1.8238068,0.24326324,0.3644223,4.936022,8.466007,1,1683900583.673386
0.16316521,0.545077,1.0547882,-0.49467087,1.8238068,0.24326324,0.3644223,4.936022,8.466007,1,1683900583.683726
0.16316521,0.545077,1.0547882,-0.49467087,1.8238068,0.24326324,0.21992373,4.9004583,8.491615,1,1683900583.6941233
0.16316521,0.545077,1.0547882,-0.36689758,1.8280792,0.17196655,0.21992373,4.9004583,8.491615,1,1683900583.7044408
0.16316521,0.545077,1.0547882,-0.36689758,1.8280792,0.17196655,0.14889048,4.8865232,8.501183,1,1683900583.7305157
0.1443752,0.5280007,1.0784615,-0.10480881,1.7960358,0.07610321,0.14889048,4.8865232,8.501183,1,1683900583.7409222
0.028935703,0.4818674,1.0367262,-0.10480881,1.7960358,0.07610321,0.14889048,4.8865232,8.501183,1,1683900583.7461002
0.028935703,0.4818674,1.0367262,-0.10480881,1.7960358,0.07610321,-0.07285089,4.861115,8.5167265,1,1683900583.7564347
0.028935703,0.4818674,1.0367262,0.024032593,1.7129898,0.094127655,-0.07285089,4.861115,8.5167265,1,1683900583.771947
0.028935703,0.4818674,1.0367262,0.024032593,1.7129898,0.094127655,-0.14557374,4.8586464,8.517203,1,1683900583.7771134
-0.019866755,0.485037,0.9976751,0.024032593,1.7129898,0.094127655,-0.14557374,4.8586464,8.517203,1,1683900583.7977984
-0.123598516,0.5092107,0.79730904,0.024032593,1.7129898,0.094127655,-0.14557374,4.8586464,8.517203,1,1683900583.8081045
-0.123598516,0.5092107,0.79730904,0.39693832,0.3142929,-0.04219055,-0.14557374,4.8586464,8.517203,1,1683900583.8132496
-0.123598516,0.5092107,0.79730904,0.38412094,0.30361176,-0.030441284,-0.14557374,4.8586464,8.517203,1,1683900583.8286884
-0.123598516,0.5092107,0.79730904,0.38412094,0.30361176,-0.030441284,-0.7940863,5.0924816,8.343047,1,1683900583.844174
-0.123598516,0.5092107,0.79730904,0.32444,0.28131485,-0.038986206,-0.7940863,5.0924816,8.343047,1,1683900583.8493447
-0.108948685,0.50773966,0.8104878,0.31269073,0.28238297,-0.059280396,-0.8075179,5.1055202,8.333784,1,1683900583.859806
-0.12408382,0.47649884,0.7860714,0.08691788,0.35261154,-0.09012222,-0.9565887,5.2133,8.250869,1,1683900583.8706322
-0.08089258,0.53361195,0.8654019,0.028305054,0.42617798,-0.08905411,-0.99936897,5.212484,8.246313,1,1683900583.8758109
-0.08089258,0.53361195,0.8654019,-0.07610321,0.6902695,-0.12844086,-0.99936897,5.212484,8.246313,1,1683900583.8914173
-0.08089258,0.53361195,0.8654019,-0.07610321,0.6902695,-0.12844086,-1.0575598,5.204741,8.243944,1,1683900583.9018798
-0.082105815,0.5294566,0.96911854,-0.07610321,0.6902695,-0.12844086,-1.0575598,5.204741,8.243944,1,1683900583.9122477
-0.082105815,0.5294566,0.96911854,-0.06755829,0.7936096,-0.14873505,-1.0575598,5.204741,8.243944,1,1683900583.9226182
-0.082105815,0.5294566,0.96911854,-0.06755829,0.7936096,-0.14873505,-1.0938458,5.200012,8.242194,1,1683900583.9330294
-0.09893948,0.503827,1.0062133,-0.06755829,0.7936096,-0.14873505,-1.0938458,5.200012,8.242194,1,1683900583.9381764
-0.14067483,0.47161555,0.77412105,-0.017490387,0.88212967,-0.06462097,-1.2389513,5.1972113,8.223404,1,1683900583.959115
-0.14067483,0.47161555,0.77412105,-0.08144379,-0.17784119,0.08878708,-1.2389513,5.1972113,8.223404,1,1683900583.9694593
