acc_x,acc_y,acc_z,gyr_x,gyr_y,gyr_z,grav_x,grav_y,grav_z,label,timestamp
0.8363293,1.419473,0.05683258,-0.926988,-0.7173085,-3.3240232,1.9142797,7.4016914,6.1470823,1,1683969719.0089674
0.7091267,1.1115283,0.08738314,-0.926988,-0.7173085,-3.3240232,1.9142797,7.4016914,6.1470823,1,1683969719.0142846
0.7091267,1.1115283,0.08738314,-1.2299771,-0.66691214,-3.6248744,1.651102,7.413312,6.2090883,1,1683969719.0194502
0.27727225,0.3568501,0.19629194,-1.6617062,-0.60032785,-3.9507709,1.1151898,7.31596,6.4396586,1,1683969719.1166043
0.27727225,0.3568501,0.19629194,-2.1470387,-0.5141958,-4.1625886,1.1151898,7.31596,6.4396586,1,1683969719.1268606
0.03585575,-0.03878275,0.28989497,-2.1470387,-0.5141958,-4.1625886,1.1151898,7.31596,6.4396586,1,1683969719.1422594
0.03585575,-0.03878275,0.28989497,-2.1470387,-0.5141958,-4.1625886,0.99675864,7.268396,6.5125275,1,1683969719.1524792
-0.29733443,-0.62808543,0.53551906,-2.1470387,-0.5141958,-4.1625886,0.99675864,7.268396,6.5125275,1,1683969719.1678693
-0.29733443,-0.62808543,0.53551906,-2.9652927,-0.4802928,-4.2271876,0.99675864,7.268396,6.5125275,1,1683969719.183183
-0.29733443,-0.62808543,0.53551906,-2.9652927,-0.4802928,-4.2271876,0.6163115,7.053065,6.790474,1,1683969719.1883159
-0.7245545,-1.1174433,0.90182096,-2.9652927,-0.4802928,-4.2271876,0.6163115,7.053065,6.790474,1,1683969719.2037084
-0.7245545,-1.1174433,0.90182096,-2.9652927,-0.4802928,-4.2271876,0.3770206,6.8649445,6.9976077,1,1683969719.2088413
-0.7245545,-1.1174433,0.90182096,-3.1186197,-0.5867361,-3.823711,0.3770206,6.8649445,6.9976077,1,1683969719.2139719
-0.7245545,-1.1174433,0.90182096,-2.6777277,-0.5279403,-2.5772405,0.3770206,6.8649445,6.9976077,1,1683969719.24475
-0.7245545,-1.1174433,0.90182096,-2.6777277,-0.5279403,-2.5772405,0.18483546,6.660792,7.1997085,1,1683969719.2498467
-1.3561767,-1.4331324,1.5042951,-2.6777277,-0.5279403,-2.5772405,0.18483546,6.660792,7.1997085,1,1683969719.2549756
-1.3561767,-1.4331324,1.5042951,-2.6777277,-0.5279403,-2.5772405,0.05735417,6.477392,7.3672395,1,1683969719.2805958
-1.6645483,-1.4102043,1.8671212,-2.6777277,-0.5279403,-2.5772405,0.05735417,6.477392,7.3672395,1,1683969719.285726
-1.6645483,-1.4102043,1.8671212,-1.6604844,-0.30558532,-1.1769847,0.05735417,6.477392,7.3672395,1,1683969719.2959871
-1.6645483,-1.4102043,1.8671212,-1.6604844,-0.30558532,-1.1769847,0.0015176449,6.3594065,7.4695425,1,1683969719.3062484
-1.7196734,-1.370019,1.9054161,-1.6604844,-0.30558532,-1.1769847,0.0015176449,6.3594065,7.4695425,1,1683969719.3113408
-1.7196734,-1.370019,1.9054161,-0.2751948,-0.18173242,0.37843102,0.0015176449,6.3594065,7.4695425,1,1683969719.316433
-1.7196734,-1.370019,1.9054161,-0.364992,-0.46593747,-2.3472497,0.0015176449,6.3594065,7.4695425,1,1683969719.3369079
-1.7196734,-1.370019,1.9054161,-0.364992,-0.46593747,-2.3472497,2.1637366,7.4325914,6.0258555,1,1683969719.3471975
1.0386581,1.9535896,-0.2329404,-0.364992,-0.46593747,-2.3472497,2.1637366,7.4325914,6.0258555,1,1683969719.367715
0.8850516,1.6535112,-0.2587346,-0.364992,-0.46593747,-2.3472497,2.1637366,7.4325914,6.0258555,1,1683969719.3728468
0.8850516,1.6535112,-0.2587346,-0.93874717,-0.43783766,-2.7983737,2.1637366,7.4325914,6.0258555,1,1683969719.377943
0.8850516,1.6535112,-0.2587346,-0.93874717,-0.43783766,-2.7983737,2.0362797,7.4642143,6.0311847,1,1683969719.403549
0.8850516,1.6535112,-0.2587346,-1.7398969,-0.30604348,-3.2609513,2.0362797,7.4642143,6.0311847,1,1683969719.4189363
0.7394943,1.3093448,-0.18897444,-1.7398969,-0.30604348,-3.2609513,2.0362797,7.4642143,6.0311847,1,1683969719.4240694
0.7394943,1.3093448,-0.18897444,-1.7398969,-0.30604348,-3.2609513,1.8767024,7.4689198,6.0769506,1,1683969719.4292
0.7394943,1.3093448,-0.18897444,-1.7398969,-0.30604348,-3.2609513,1.687888,7.439101,6.1682186,1,1683969719.4548333
0.7394943,1.3093448,-0.18897444,-2.217899,-0.17928895,-3.4912477,1.687888,7.439101,6.1682186,1,1683969719.4650965
0.6074135,1.0373776,-0.1086039,-2.217899,-0.17928895,-3.4912477,1.687888,7.439101,6.1682186,1,1683969719.4702334
0.28934616,0.45996585,0.08232188,-2.217899,-0.17928895,-3.4912477,1.687888,7.439101,6.1682186,1,1683969719.480462
0.28934616,0.45996585,0.08232188,-2.9804115,0.04428773,-3.7856846,1.687888,7.439101,6.1682186,1,1683969719.4907198
0.28934616,0.45996585,0.08232188,-2.9804115,0.04428773,-3.7856846,1.354258,7.3173985,6.392008,1,1683969719.5009778
-0.007256521,-0.08037054,0.32026258,-2.9804115,0.04428773,-3.7856846,1.354258,7.3173985,6.392008,1,1683969719.521416
-0.007256521,-0.08037054,0.32026258,-3.6216674,0.18219055,-3.98895,1.354258,7.3173985,6.392008,1,1683969719.536711
-0.007256521,-0.08037054,0.32026258,-3.6216674,0.18219055,-3.98895,1.1039836,7.171769,6.601745,1,1683969719.5469263
-0.41386563,-0.6843692,0.696687,-3.6216674,0.18219055,-3.98895,1.1039836,7.171769,6.601745,1,1683969719.5572066
-0.41386563,-0.6843692,0.696687,-3.6216674,0.18219055,-3.98895,0.6970672,6.8509254,6.9867744,1,1683969719.5674596
-0.41386563,-0.6843692,0.696687,-3.9232821,0.08078693,-3.8997638,0.6970672,6.8509254,6.9867744,1,1683969719.5726016
-0.6184507,-0.90322345,0.907248,-3.9232821,0.08078693,-3.8997638,0.6970672,6.8509254,6.9867744,1,1683969719.6084633
-0.6184507,-0.90322345,0.907248,-3.9232821,0.08078693,-3.8997638,0.5701369,6.7281785,7.116366,1,1683969719.613597
-0.6184507,-0.90322345,0.907248,-3.8875463,-0.014049901,-3.706425,0.5701369,6.7281785,7.116366,1,1683969719.6187322
-1.1373835,-1.2592199,1.5225278,-3.8875463,-0.014049901,-3.706425,0.5701369,6.7281785,7.116366,1,1683969719.6341212
-1.1373835,-1.2592199,1.5225278,-3.8875463,-0.014049901,-3.706425,0.3521154,6.4789395,7.3576803,1,1683969719.6391966
-1.1373835,-1.2592199,1.5225278,-3.1994066,-0.08964448,-2.7835603,0.3521154,6.4789395,7.3576803,1,1683969719.654591
-1.1373835,-1.2592199,1.5225278,-3.1994066,-0.08964448,-2.7835603,0.13271616,6.1774235,7.6195765,1,1683969719.680244
-1.5521637,-1.3797147,1.9083431,-3.1994066,-0.08964448,-2.7835603,0.13271616,6.1774235,7.6195765,1,1683969719.6853807
-1.5521637,-1.3797147,1.9083431,-1.6533068,-0.08277224,-1.3231341,0.13271616,6.1774235,7.6195765,1,1683969719.6905174
-1.618631,-1.358067,1.9127334,-1.6533068,-0.08277224,-1.3231341,0.13271616,6.1774235,7.6195765,1,1683969719.710961
-1.618631,-1.358067,1.9127334,-1.6533068,-0.08277224,-1.3231341,0.078387044,6.0828114,7.696062,1,1683969719.7160892
-1.618631,-1.358067,1.9127334,0.22861631,-0.23060162,0.40103304,0.078387044,6.0828114,7.696062,1,1683969719.726315
-1.618631,-1.358067,1.9127334,1.5448782,-0.38912117,1.7585284,0.078387044,6.0828114,7.696062,1,1683969719.7365718
-1.4790497,-1.2179369,1.665768,1.5448782,-0.38912117,1.7585284,0.078387044,6.0828114,7.696062,1,1683969719.751935
-1.4790497,-1.2179369,1.665768,1.5448782,-0.38912117,1.7585284,0.10924178,6.0904517,7.6896415,1,1683969719.7622018
-1.4790497,-1.2179369,1.665768,2.6589437,-0.547488,3.268587,0.10924178,6.0904517,7.6896415,1,1683969719.7826767
-1.0409144,-0.9394451,1.3150157,2.6589437,-0.547488,3.268587,0.10924178,6.0904517,7.6896415,1,1683969719.787813
-1.0409144,-0.9394451,1.3150157,2.6589437,-0.547488,3.268587,0.22655126,6.184333,7.611755,1,1683969719.792938
-0.5324701,-0.61345047,1.0696356,2.6589437,-0.547488,3.268587,0.22655126,6.184333,7.611755,1,1683969719.8185916
-0.5324701,-0.61345047,1.0696356,3.1236594,-0.44409904,4.2551346,0.22655126,6.184333,7.611755,1,1683969719.8237267
-0.5324701,-0.61345047,1.0696356,3.1236594,-0.44409904,4.2551346,0.5478296,6.415347,7.4013042,1,1683969719.8288598
-0.5324701,-0.61345047,1.0696356,3.1236594,-0.44409904,4.2551346,0.8304912,6.5819693,7.2266226,1,1683969719.8493972
-0.5324701,-0.61345047,1.0696356,3.2464433,-0.09437868,4.9018884,0.8304912,6.5819693,7.2266226,1,1683969719.8596625
0.049637042,-0.17379062,0.872368,3.2464433,-0.09437868,4.9018884,0.8304912,6.5819693,7.2266226,1,1683969719.8647954
0.049637042,-0.17379062,0.872368,3.2464433,-0.09437868,4.9018884,1.1381408,6.734691,7.0416384,1,1683969719.8853073
0.7097975,0.4875894,0.6343053,3.2464433,-0.09437868,4.9018884,1.1381408,6.734691,7.0416384,1,1683969719.8904397
0.7097975,0.4875894,0.6343053,3.003319,0.39293906,5.0689597,1.1381408,6.734691,7.0416384,1,1683969719.8955796
0.7097975,0.4875894,0.6343053,2.573728,0.7431176,4.7563496,1.1381408,6.734691,7.0416384,1,1683969719.9160736
0.7097975,0.4875894,0.6343053,2.573728,0.7431176,4.7563496,1.4380827,6.862513,6.861046,1,1683969719.9365869
1.0896977,1.030426,0.47819862,2.573728,0.7431176,4.7563496,1.4380827,6.862513,6.861046,1,1683969719.9417272
1.0896977,1.030426,0.47819862,2.1945333,0.97433007,4.339434,1.4380827,6.862513,6.861046,1,1683969719.9519906
1.7903484,2.6305192,-0.15049659,2.1945333,0.97433007,4.339434,1.4380827,6.862513,6.861046,1,1683969719.9775507
1.7903484,2.6305192,-0.15049659,2.1945333,0.97433007,4.339434,2.1730068,7.1167855,6.392615,1,1683969719.9826837
1.7903484,2.6305192,-0.15049659,0.8197812,0.57009,0.5299256,2.1730068,7.1167855,6.392615,1,1683969719.987818
1.7903484,2.6305192,-0.15049659,0.8197812,0.57009,0.5299256,2.1810484,7.163031,6.3379908,1,1683969720.008329
1.5608228,2.573077,-0.1967188,0.8197812,0.57009,0.5299256,2.1810484,7.163031,6.3379908,1,1683969720.0185935
1.5608228,2.573077,-0.1967188,0.55771995,0.084910266,-0.54519725,2.1810484,7.163031,6.3379908,1,1683969720.0237274
1.5608228,2.573077,-0.1967188,0.55771995,0.084910266,-0.54519725,2.147285,7.2152104,6.2901506,1,1683969720.039122
1.3409929,2.3554423,-0.1475086,0.55771995,0.084910266,-0.54519725,2.147285,7.2152104,6.2901506,1,1683969720.0442123
1.3409929,2.3554423,-0.1475086,0.25610524,-0.40026945,-1.5864171,2.147285,7.2152104,6.2901506,1,1683969720.0493438
1.3409929,2.3554423,-0.1475086,0.25610524,-0.40026945,-1.5864171,2.0798876,7.2691803,6.250537,1,1683969720.0801208
1.3409929,2.3554423,-0.1475086,0.040011674,-0.56596667,-2.0444133,2.0798876,7.2691803,6.250537,1,1683969720.0852506
1.1515306,2.1022568,-0.15622863,0.040011674,-0.56596667,-2.0444133,2.0798876,7.2691803,6.250537,1,1683969720.100609
1.1515306,2.1022568,-0.15622863,-0.45845437,-0.660498,-2.6360362,2.0798876,7.2691803,6.250537,1,1683969720.1159687
1.1515306,2.1022568,-0.15622863,-0.45845437,-0.660498,-2.6360362,1.9241595,7.335561,6.2228026,1,1683969720.1262376
0.95371425,1.7751646,-0.14586218,-0.45845437,-0.660498,-2.6360362,1.9241595,7.335561,6.2228026,1,1683969720.136461
0.7974856,1.369775,-0.1243975,-0.45845437,-0.660498,-2.6360362,1.9241595,7.335561,6.2228026,1,1683969720.1518521
0.7974856,1.369775,-0.1243975,-0.45845437,-0.660498,-2.6360362,1.784977,7.355782,6.2403874,1,1683969720.1621122
0.7974856,1.369775,-0.1243975,-1.1178834,-0.58551437,-3.1341968,1.784977,7.355782,6.2403874,1,1683969720.1723342
0.72083473,1.18824,-0.0918956,-1.1178834,-0.58551437,-3.1341968,1.784977,7.355782,6.2403874,1,1683969720.1877332
0.72083473,1.18824,-0.0918956,-1.1178834,-0.58551437,-3.1341968,1.7042762,7.3554244,6.2633295,1,1683969720.192866
0.72083473,1.18824,-0.0918956,-1.4158329,-0.5296202,-3.3166928,1.7042762,7.3554244,6.2633295,1,1683969720.203136
0.45228252,0.7114439,0.048722353,-1.4158329,-0.5296202,-3.3166928,1.7042762,7.3554244,6.2633295,1,1683969720.228807
0.45228252,0.7114439,0.048722353,-1.4158329,-0.5296202,-3.3166928,1.4203539,7.301226,6.396156,1,1683969720.2390742
0.45228252,0.7114439,0.048722353,-2.1627684,-0.3491095,-3.6829066,1.4203539,7.301226,6.396156,1,1683969720.2441957
0.14769155,0.19141361,0.3030055,-2.1627684,-0.3491095,-3.6829066,1.4203539,7.301226,6.396156,1,1683969720.2647362
0.14769155,0.19141361,0.3030055,-2.1627684,-0.3491095,-3.6829066,1.2003423,7.211756,6.541091,1,1683969720.2749941
0.14769155,0.19141361,0.3030055,-2.8280005,-0.06658431,-3.9051087,1.2003423,7.211756,6.541091,1,1683969720.2801287
-0.1934869,-0.35672814,0.559118,-2.8280005,-0.06658431,-3.9051087,1.2003423,7.211756,6.541091,1,1683969720.2955174
-0.1934869,-0.35672814,0.559118,-2.8280005,-0.06658431,-3.9051087,0.81692785,6.976579,6.848071,1,1683969720.3006544
-0.1934869,-0.35672814,0.559118,-3.287524,0.22174409,-3.9640572,0.81692785,6.976579,6.848071,1,1683969720.3057842
-0.5036879,-0.89108855,0.8444395,-3.287524,0.22174409,-3.9640572,0.81692785,6.976579,6.848071,1,1683969720.336473
-0.5036879,-0.89108855,0.8444395,-3.3820555,0.3239113,-3.7113118,0.81692785,6.976579,6.848071,1,1683969720.3415666
-0.5036879,-0.89108855,0.8444395,-3.3820555,0.3239113,-3.7113118,0.5455137,6.772296,7.076337,1,1683969720.3466778
-0.8565744,-1.2004359,1.1676291,-3.3820555,0.3239113,-3.7113118,0.5455137,6.772296,7.076337,1,1683969720.3670876
-0.8565744,-1.2004359,1.1676291,-3.3820555,0.3239113,-3.7113118,0.293112,6.55017,7.2969494,1,1683969720.3773453
-0.8565744,-1.2004359,1.1676291,-3.0702088,0.17852537,-3.2146783,0.293112,6.55017,7.2969494,1,1683969720.3875659
-0.8565744,-1.2004359,1.1676291,-3.0702088,0.17852537,-3.2146783,0.08641484,6.3373036,7.4878054,1,1683969720.3978417
-1.2351941,-1.3222723,1.5521637,-3.0702088,0.17852537,-3.2146783,0.08641484,6.3373036,7.4878054,1,1683969720.4029734
-1.2351941,-1.3222723,1.5521637,-2.303573,-0.02321288,-2.3762658,0.08641484,6.3373036,7.4878054,1,1683969720.418357
-1.2351941,-1.3222723,1.5521637,-2.303573,-0.02321288,-2.3762658,1.8593237,7.14494,6.459788,1,1683969720.4542158
-1.2351941,-1.3222723,1.5521637,1.8500054,0.6391178,2.8742738,1.8593237,7.14494,6.459788,1,1683969720.459299
1.8977938,2.2828772,-0.031282313,1.8500054,0.6391178,2.8742738,1.8593237,7.14494,6.459788,1,1683969720.4644158
1.8598037,2.4580092,-0.13659334,1.8500054,0.6391178,2.8742738,1.8593237,7.14494,6.459788,1,1683969720.4900656
1.8598037,2.4580092,-0.13659334,1.0821478,0.6204864,1.5705346,1.8593237,7.14494,6.459788,1,1683969720.5054517
1.8598037,2.4580092,-0.13659334,1.0821478,0.6204864,1.5705346,2.039264,7.201882,6.3411674,1,1683969720.5157049
1.6522915,2.497341,-0.08848077,1.0821478,0.6204864,1.5705346,2.039264,7.201882,6.3411674,1,1683969720.520798
1.6522915,2.497341,-0.08848077,0.5890268,0.43325618,0.50854534,2.039264,7.201882,6.3411674,1,1683969720.5259283
1.6522915,2.497341,-0.08848077,0.5890268,0.43325618,0.50854534,2.15296,7.2605605,6.235796,1,1683969720.5413132
1.3262969,2.4095309,-0.038294915,0.5890268,0.43325618,0.50854534,2.15296,7.2605605,6.235796,1,1683969720.5617292
1.3262969,2.4095309,-0.038294915,0.5890268,0.43325618,0.50854534,2.1545691,7.2908397,6.1998067,1,1683969720.5719373
1.3262969,2.4095309,-0.038294915,0.16462818,0.24037547,-0.5348125,2.1545691,7.2908397,6.1998067,1,1683969720.5770476
1.1583602,2.2222028,-0.06445498,0.16462818,0.24037547,-0.5348125,2.1545691,7.2908397,6.1998067,1,1683969720.5923193
1.1583602,2.2222028,-0.06445498,0.16462818,0.24037547,-0.5348125,2.111828,7.31874,6.1816134,1,1683969720.6076627
1.1583602,2.2222028,-0.06445498,-0.09911288,0.03573562,-1.1429288,2.111828,7.31874,6.1816134,1,1683969720.6127534
1.053781,2.0307283,-0.07183346,-0.09911288,0.03573562,-1.1429288,2.111828,7.31874,6.1816134,1,1683969720.6435173
1.053781,2.0307283,-0.07183346,-0.3904956,-0.16508633,-1.6607898,2.111828,7.31874,6.1816134,1,1683969720.648631
1.053781,2.0307283,-0.07183346,-0.3904956,-0.16508633,-1.6607898,2.0401406,7.342863,6.1770782,1,1683969720.6537209
1.053781,2.0307283,-0.07183346,-0.8872818,-0.27580565,-2.303573,2.0401406,7.342863,6.1770782,1,1683969720.6844327
0.96389776,1.7347963,-0.07207738,-0.8872818,-0.27580565,-2.303573,2.0401406,7.342863,6.1770782,1,1683969720.689567
0.96389776,1.7347963,-0.07207738,-0.8872818,-0.27580565,-2.303573,1.8858666,7.3609934,6.2044654,1,1683969720.694696
0.96389776,1.7347963,-0.07207738,-1.25319,-0.2753475,-2.676506,1.8858666,7.3609934,6.2044654,1,1683969720.7049613
0.96389776,1.7347963,-0.07207738,-1.25319,-0.2753475,-2.676506,1.8198025,7.358735,6.2268333,1,1683969720.7151783
0.8773073,1.5033194,-0.06713806,-1.25319,-0.2753475,-2.676506,1.8198025,7.358735,6.2268333,1,1683969720.7254305
0.8773073,1.5033194,-0.06713806,-1.25319,-0.2753475,-2.676506,2.2431967,7.5786567,5.811037,1,1683969720.7305613
0.8773073,1.5033194,-0.06713806,-1.4947872,-0.6731735,-3.1358767,2.2431967,7.5786567,5.811037,1,1683969720.7356825
0.85651344,1.3464811,-0.05860098,-1.4947872,-0.6731735,-3.1358767,2.2431967,7.5786567,5.811037,1,1683969720.756149
0.6872962,0.9476772,0.04268542,-1.4947872,-0.6731735,-3.1358767,2.2431967,7.5786567,5.811037,1,1683969720.7817118
0.6872962,0.9476772,0.04268542,-1.4947872,-0.6731735,-3.1358767,2.0700068,7.5649486,5.8925996,1,1683969720.7919292
0.6872962,0.9476772,0.04268542,-2.2052236,-0.35995236,-3.5732563,2.0700068,7.5649486,5.8925996,1,1683969720.7970634
0.42026842,0.4179512,0.25123417,-2.2052236,-0.35995236,-3.5732563,2.0700068,7.5649486,5.8925996,1,1683969720.8021917
0.42026842,0.4179512,0.25123417,-2.2052236,-0.35995236,-3.5732563,1.7483555,7.4808545,6.100507,1,1683969720.8175488
0.42026842,0.4179512,0.25123417,-2.6723828,-0.17073683,-3.8428006,1.7483555,7.4808545,6.100507,1,1683969720.822682
0.42026842,0.4179512,0.25123417,-2.9594893,-0.082924955,-4.0167446,1.7483555,7.4808545,6.100507,1,1683969720.8431988
0.16238752,0.0031099375,0.50356597,-2.9594893,-0.082924955,-4.0167446,1.7483555,7.4808545,6.100507,1,1683969720.8483312
0.16238752,0.0031099375,0.50356597,-2.9594893,-0.082924955,-4.0167446,1.5019208,7.374223,6.292946,1,1683969720.8585489
0.16238752,0.0031099375,0.50356597,-2.9588785,-0.021227567,-3.9695551,1.5019208,7.374223,6.292946,1,1683969720.879063
0.16238752,0.0031099375,0.50356597,-2.9588785,-0.021227567,-3.9695551,1.2368433,7.235101,6.508427,1,1683969720.8944643
-0.23348923,-0.49954134,0.92048055,-2.9588785,-0.021227567,-3.9695551,1.2368433,7.235101,6.508427,1,1683969720.8995953
-0.23348923,-0.49954134,0.92048055,-2.9588785,-0.021227567,-3.9695551,0.9741928,7.082839,6.717176,1,1683969720.9098537
-0.23348923,-0.49954134,0.92048055,-2.6117544,0.03573562,-3.5932622,0.9741928,7.082839,6.717176,1,1683969720.9303007
-0.5785094,-0.85041547,1.2443409,-2.6117544,0.03573562,-3.5932622,0.9741928,7.082839,6.717176,1,1683969720.9405553
-1.0781727,-1.1053693,1.5874097,-2.6117544,0.03573562,-3.5932622,0.9741928,7.082839,6.717176,1,1683969720.9662101
-1.0781727,-1.1053693,1.5874097,-1.7505871,0.0720821,-2.6358836,0.9741928,7.082839,6.717176,1,1683969720.9713078
-1.0781727,-1.1053693,1.5874097,-1.7505871,0.0720821,-2.6358836,0.63441664,6.872864,6.971182,1,1683969720.9764364
-1.3096496,-1.1350052,1.7086363,-1.7505871,0.0720821,-2.6358836,0.63441664,6.872864,6.971182,1,1683969720.9866552
-1.3096496,-1.1350052,1.7086363,-1.0364856,0.10919216,-1.8280143,0.63441664,6.872864,6.971182,1,1683969721.0072067
-1.7243079,-1.3696531,1.8807195,-1.0364856,0.10919216,-1.8280143,0.63441664,6.872864,6.971182,1,1683969721.012337
-1.7243079,-1.3696531,1.8807195,-1.0364856,0.10919216,-1.8280143,0.13296321,6.4963255,7.3495703,1,1683969721.0277245
-1.7243079,-1.3696531,1.8807195,-0.841925,-0.25885415,-0.8979719,0.13296321,6.4963255,7.3495703,1,1683969721.0328562
-1.7243079,-1.3696531,1.8807195,0.55970526,-0.3987423,0.65377855,0.13296321,6.4963255,7.3495703,1,1683969721.0585248
-1.7243079,-1.3696531,1.8807195,0.55970526,-0.3987423,0.65377855,0.115211494,6.457348,7.3841386,1,1683969721.0636559
-1.7493094,-1.2388527,1.8104715,0.55970526,-0.3987423,0.65377855,0.115211494,6.457348,7.3841386,1,1683969721.0739188
-1.5125273,-1.0805509,1.5552737,0.55970526,-0.3987423,0.65377855,0.115211494,6.457348,7.3841386,1,1683969721.0893004
-1.5125273,-1.0805509,1.5552737,0.55970526,-0.3987423,0.65377855,0.19897959,6.5088496,7.3369884,1,1683969721.0995772
-1.5125273,-1.0805509,1.5552737,1.845882,-0.6197228,2.1297817,0.19897959,6.5088496,7.3369884,1,1683969721.104709
-1.5125273,-1.0805509,1.5552737,2.9290988,-0.75625116,3.65893,0.19897959,6.5088496,7.3369884,1,1683969721.1354866
-1.5125273,-1.0805509,1.5552737,2.9290988,-0.75625116,3.65893,0.38145527,6.6314344,7.21905,1,1683969721.1457477
-0.9457869,-0.7921194,1.1887889,2.9290988,-0.75625116,3.65893,0.38145527,6.6314344,7.21905,1,1683969721.150878
-0.36550912,-0.47222266,0.93950605,2.9290988,-0.75625116,3.65893,0.38145527,6.6314344,7.21905,1,1683969721.1713593
-0.36550912,-0.47222266,0.93950605,2.9290988,-0.75625116,3.65893,0.6438165,6.790087,7.050981,1,1683969721.1764915
0.29568797,0.054210484,0.608816,2.9290988,-0.75625116,3.65893,0.6438165,6.790087,7.050981,1,1683969721.2072034
0.29568797,0.054210484,0.608816,3.3394475,-0.29428434,5.073083,0.6438165,6.790087,7.050981,1,1683969721.2123365
0.29568797,0.054210484,0.608816,3.3394475,-0.29428434,5.073083,1.131587,7.02515,6.752991,1,1683969721.21747
0.29568797,0.054210484,0.608816,3.019354,-0.08552113,5.0982814,1.131587,7.02515,6.752991,1,1683969721.2328649
0.29568797,0.054210484,0.608816,3.019354,-0.08552113,5.0982814,1.3099797,7.0941763,6.6477604,1,1683969721.2379553
0.6552211,0.42045137,0.4666126,3.019354,-0.08552113,5.0982814,1.3099797,7.0941763,6.6477604,1,1683969721.2430816
0.6552211,0.42045137,0.4666126,2.554333,0.20662516,4.7940702,1.3099797,7.0941763,6.6477604,1,1683969721.2687397
0.6552211,0.42045137,0.4666126,2.554333,0.20662516,4.7940702,1.8321075,7.249313,6.35035,1,1683969721.2738707
1.1017106,1.033231,0.33392194,2.554333,0.20662516,4.7940702,1.8321075,7.249313,6.35035,1,1683969721.2841313
-1.375812,-1.3094057,1.5993006,2.554333,0.20662516,4.7940702,1.8321075,7.249313,6.35035,1,1683969721.289264
-1.375812,-1.3094057,1.5993006,-0.9502009,-0.09972375,-0.81397796,1.8321075,7.249313,6.35035,1,1683969721.3097813
-1.375812,-1.3094057,1.5993006,-0.9502009,-0.09972375,-0.81397796,0.28135413,6.463283,7.3744783,1,1683969721.3200357
-1.5561883,-1.2481216,1.7796769,-0.9502009,-0.09972375,-0.81397796,0.28135413,6.463283,7.3744783,1,1683969721.3251584
-1.5561883,-1.2481216,1.7796769,0.59498274,-0.08933904,0.9282097,0.28135413,6.463283,7.3744783,1,1683969721.3354106
-1.5561883,-1.2481216,1.7796769,0.59498274,-0.08933904,0.9282097,0.23717858,6.3889966,7.440469,1,1683969721.3508
-1.5419192,-1.1202483,1.6879033,0.59498274,-0.08933904,0.9282097,0.23717858,6.3889966,7.440469,1,1683969721.3610697
-1.4071553,-1.0204864,1.5005144,0.59498274,-0.08933904,0.9282097,0.23717858,6.3889966,7.440469,1,1683969721.3866816
-1.4071553,-1.0204864,1.5005144,0.59498274,-0.08933904,0.9282097,0.26307487,6.4038196,7.426843,1,1683969721.391814
-1.4071553,-1.0204864,1.5005144,1.6436857,-0.17516561,2.2704334,0.26307487,6.4038196,7.426843,1,1683969721.4020731
-1.4071553,-1.0204864,1.5005144,1.6436857,-0.17516561,2.2704334,0.3777028,6.482006,7.35371,1,1683969721.4123366
-1.4071553,-1.0204864,1.5005144,2.3612995,-0.17837265,3.4443636,0.3777028,6.482006,7.35371,1,1683969721.4277272
-0.9326154,-0.7321159,1.1780565,2.3612995,-0.17837265,3.4443636,0.3777028,6.482006,7.35371,1,1683969721.4379861
-0.9326154,-0.7321159,1.1780565,2.3612995,-0.17837265,3.4443636,0.68772525,6.668662,7.16185,1,1683969721.4431224
-0.4065481,-0.40874338,0.9851185,2.3612995,-0.17837265,3.4443636,0.68772525,6.668662,7.16185,1,1683969721.4482572
-0.4065481,-0.40874338,0.9851185,2.7945557,-0.032528576,4.348902,0.68772525,6.668662,7.16185,1,1683969721.4533846
0.23879443,0.1276294,0.7356527,2.7945557,-0.032528576,4.348902,0.68772525,6.668662,7.16185,1,1683969721.4892547
0.23879443,0.1276294,0.7356527,2.7945557,-0.032528576,4.348902,0.9592361,6.8042097,7.001336,1,1683969721.504645
0.23879443,0.1276294,0.7356527,2.994767,0.30543262,4.986493,0.9592361,6.8042097,7.001336,1,1683969721.5097747
0.80833983,0.7587028,0.485943,2.994767,0.30543262,4.986493,0.9592361,6.8042097,7.001336,1,1683969721.5251641
0.80833983,0.7587028,0.485943,2.994767,0.30543262,4.986493,1.4140092,6.9936614,6.7324133,1,1683969721.5354116
0.80833983,0.7587028,0.485943,2.8339565,0.50320023,5.017494,1.4140092,6.9936614,6.7324133,1,1683969721.5405412
1.1803128,1.3247725,0.33361703,2.8339565,0.50320023,5.017494,1.4140092,6.9936614,6.7324133,1,1683969721.5508058
1.1803128,1.3247725,0.33361703,2.8339565,0.50320023,5.017494,1.7097554,7.093298,6.557284,1,1683969721.5559366
-1.5635668,-1.0757335,1.6973552,2.8339565,0.50320023,5.017494,1.7097554,7.093298,6.557284,1,1683969721.5764246
-1.5635668,-1.0757335,1.6973552,1.5233452,-0.46685377,1.1061243,1.7097554,7.093298,6.557284,1,1683969721.581525
-1.5635668,-1.0757335,1.6973552,1.5233452,-0.46685377,1.1061243,0.20342946,6.31925,7.500787,1,1683969721.5917838
-1.5635668,-1.0757335,1.6973552,2.656042,-0.5001459,2.819296,0.20342946,6.31925,7.500787,1,1683969721.6123285
-1.2416579,-0.8599282,1.3664212,2.656042,-0.5001459,2.819296,0.20342946,6.31925,7.500787,1,1683969721.6225832
-1.2416579,-0.8599282,1.3664212,2.656042,-0.5001459,2.819296,0.3661401,6.478011,7.357814,1,1683969721.6328492
-0.7838872,-0.60857207,1.1234192,2.656042,-0.5001459,2.819296,0.3661401,6.478011,7.357814,1,1683969721.6482565
-0.7838872,-0.60857207,1.1234192,2.656042,-0.5001459,2.819296,0.57271975,6.637523,7.2007914,1,1683969721.6533868
-0.7838872,-0.60857207,1.1234192,3.1700852,-0.29016098,3.9887974,0.57271975,6.637523,7.2007914,1,1683969721.658521
-0.7838872,-0.60857207,1.1234192,3.3953416,0.08827003,4.8446198,0.57271975,6.637523,7.2007914,1,1683969721.6841648
-0.204829,-0.24403864,0.8933448,3.3953416,0.08827003,4.8446198,0.57271975,6.637523,7.2007914,1,1683969721.6944158
-0.204829,-0.24403864,0.8933448,3.3953416,0.08827003,4.8446198,0.83559275,6.8049474,7.0164523,1,1683969721.6995423
-0.204829,-0.24403864,0.8933448,3.3953416,0.08827003,4.8446198,1.1374532,6.9607496,6.8183775,1,1683969721.7097905
-0.204829,-0.24403864,0.8933448,3.2798882,0.58261275,5.288108,1.1374532,6.9607496,6.8183775,1,1683969721.7251823
0.5279576,0.360021,0.56917953,3.2798882,0.58261275,5.288108,1.1374532,6.9607496,6.8183775,1,1683969721.7405603
1.0341457,0.930908,0.31684774,3.2798882,0.58261275,5.288108,1.1374532,6.9607496,6.8183775,1,1683969721.7457035
1.0341457,0.930908,0.31684774,3.2798882,0.58261275,5.288108,1.4518255,7.0953326,6.61699,1,1683969721.7559285
1.0341457,0.930908,0.31684774,2.8970284,0.7678576,5.063004,1.4518255,7.0953326,6.61699,1,1683969721.7662024
1.0341457,0.930908,0.31684774,2.276084,0.93111134,4.1254783,1.4518255,7.0953326,6.61699,1,1683969721.786675
1.0341457,0.930908,0.31684774,2.276084,0.93111134,4.1254783,1.8743404,7.233952,6.3555403,1,1683969721.796942
1.4728909,1.6446692,0.15433827,2.276084,0.93111134,4.1254783,1.8743404,7.233952,6.3555403,1,1683969721.8123274
1.6625971,2.049083,-0.008354146,2.276084,0.93111134,4.1254783,1.8743404,7.233952,6.3555403,1,1683969721.827713
1.6625971,2.049083,-0.008354146,1.842675,0.9799806,3.0906727,1.8743404,7.233952,6.3555403,1,1683969721.8379734
1.6625971,2.049083,-0.008354146,1.842675,0.9799806,3.0906727,2.0818279,7.2937155,6.22124,1,1683969721.843116
1.6625971,2.049083,-0.008354146,1.842675,0.9799806,3.0906727,0.6558753,6.396892,7.408489,1,1683969721.8482459
1.6625971,2.049083,-0.008354146,3.2623258,-0.44623706,4.692667,0.6558753,6.396892,7.408489,1,1683969721.8790135
1.6625971,2.049083,-0.008354146,3.2623258,-0.44623706,4.692667,1.0599644,6.616259,7.1650333,1,1683969721.8892744
-0.23672113,-0.35002044,1.1529942,3.2623258,-0.44623706,4.692667,1.0599644,6.616259,7.1650333,1,1683969721.8944066
-0.23672113,-0.35002044,1.1529942,3.2623258,-0.44623706,4.692667,1.3742664,6.7594943,6.9754386,1,1683969721.8995376
0.28843147,0.07219934,0.98981386,3.2623258,-0.44623706,4.692667,1.3742664,6.7594943,6.9754386,1,1683969721.9149194
0.28843147,0.07219934,0.98981386,3.315013,0.09040806,5.234504,1.3742664,6.7594943,6.9754386,1,1683969721.9302711
0.9685931,0.71961516,0.761081,3.315013,0.09040806,5.234504,1.3742664,6.7594943,6.9754386,1,1683969721.9456391
0.9685931,0.71961516,0.761081,3.315013,0.09040806,5.234504,1.6957831,6.881306,6.7829237,1,1683969721.9558945
0.9685931,0.71961516,0.761081,3.0039299,0.7820602,5.3453765,1.6957831,6.881306,6.7829237,1,1683969721.9610276
0.9685931,0.71961516,0.761081,2.6876543,1.1847731,5.059797,1.6957831,6.881306,6.7829237,1,1683969721.9814615
0.9685931,0.71961516,0.761081,2.6876543,1.1847731,5.059797,1.993143,6.972403,6.6067452,1,1683969721.9865596
1.3064177,1.1838496,0.5763751,2.6876543,1.1847731,5.059797,1.993143,6.972403,6.6067452,1,1683969722.0018744
1.7969952,1.8914518,0.28824854,2.6876543,1.1847731,5.059797,1.993143,6.972403,6.6067452,1,1683969722.0121272
1.7969952,1.8914518,0.28824854,2.6876543,1.1847731,5.059797,2.2343814,7.0338774,6.4628344,1,1683969722.0275126
1.7969952,1.8914518,0.28824854,2.106416,1.6129897,3.9918516,2.2343814,7.0338774,6.4628344,1,1683969722.037771
2.0649376,2.3922737,-0.015610667,2.106416,1.6129897,3.9918516,2.2343814,7.0338774,6.4628344,1,1683969722.0582461
2.0649376,2.3922737,-0.015610667,2.106416,1.6129897,3.9918516,2.4019883,7.0780787,6.353531,1,1683969722.0633402
2.0649376,2.3922737,-0.015610667,1.5610662,1.5088371,2.3484714,2.4019883,7.0780787,6.353531,1,1683969722.0684674
1.9851159,2.6025298,-0.14153264,1.5610662,1.5088371,2.3484714,2.4019883,7.0780787,6.353531,1,1683969722.0838497
1.9851159,2.6025298,-0.14153264,1.2284501,1.0192287,0.9069822,2.4019883,7.0780787,6.353531,1,1683969722.094106
1.9851159,2.6025298,-0.14153264,1.2284501,1.0192287,0.9069822,2.5110326,7.146242,6.233944,1,1683969722.1043062
1.9851159,2.6025298,-0.14153264,1.2284501,1.0192287,0.9069822,2.506698,7.2085342,6.1635714,1,1683969722.1248264
1.9851159,2.6025298,-0.14153264,-3.3942728,0.08200866,-3.6943603,2.506698,7.2085342,6.1635714,1,1683969722.1555407
1.9851159,2.6025298,-0.14153264,-3.3942728,0.08200866,-3.6943603,1.1880517,7.5940137,6.095539,1,1683969722.1606784
0.019635292,0.06372323,0.3975232,-3.3942728,0.08200866,-3.6943603,1.1880517,7.5940137,6.095539,1,1683969722.1658096
0.019635292,0.06372323,0.3975232,-3.6711473,0.42256603,-3.6377025,1.1880517,7.5940137,6.095539,1,1683969722.1913831
0.019635292,0.06372323,0.3975232,-3.6711473,0.42256603,-3.6377025,0.92552835,7.422505,6.3471203,1,1683969722.1965165
-0.29568797,-0.506371,0.8305972,-3.6711473,0.42256603,-3.6377025,0.92552835,7.422505,6.3471203,1,1683969722.2016056
-0.6855888,-0.9459089,1.165068,-3.6711473,0.42256603,-3.6377025,0.92552835,7.422505,6.3471203,1,1683969722.211852
-0.6855888,-0.9459089,1.165068,-3.5259142,0.6021604,-3.2365167,0.92552835,7.422505,6.3471203,1,1683969722.2221165
-0.6855888,-0.9459089,1.165068,-3.5259142,0.6021604,-3.2365167,0.51836824,7.109824,6.739275,1,1683969722.2323134
-0.6855888,-0.9459089,1.165068,-3.5259142,0.6021604,-3.2365167,0.27756003,6.894772,6.9728904,1,1683969722.252846
-1.1088451,-1.281965,1.4970995,-3.5259142,0.6021604,-3.2365167,0.27756003,6.894772,6.9728904,1,1683969722.2682452
-1.1088451,-1.281965,1.4970995,-3.0040824,0.6302602,-2.4297166,0.27756003,6.894772,6.9728904,1,1683969722.2785177
-1.1088451,-1.281965,1.4970995,-3.0040824,0.6302602,-2.4297166,0.09762541,6.708938,7.1565857,1,1683969722.2938278
-1.4888064,-1.431486,1.8720604,-3.0040824,0.6302602,-2.4297166,0.09762541,6.708938,7.1565857,1,1683969722.2989225
-1.4888064,-1.431486,1.8720604,-1.7437148,0.6178902,-0.93783087,0.09762541,6.708938,7.1565857,1,1683969722.3142467
-1.4888064,-1.431486,1.8720604,-0.34025195,0.6122397,0.44012842,0.09762541,6.708938,7.1565857,1,1683969722.334679
-1.4888064,-1.431486,1.8720604,-0.34025195,0.6122397,0.44012842,-0.0063021295,6.587903,7.2688103,1,1683969722.339809
-1.5808849,-1.3656284,1.9429792,-0.34025195,0.6122397,0.44012842,-0.0063021295,6.587903,7.2688103,1,1683969722.350027
-1.5808849,-1.3656284,1.9429792,-0.34025195,0.6122397,0.44012842,-0.027178884,6.5585823,7.29523,1,1683969722.3704991
-1.5808849,-1.3656284,1.9429792,1.091158,0.49373183,1.7675385,-0.027178884,6.5585823,7.29523,1,1683969722.380754
-1.507344,-1.2301328,1.776994,1.091158,0.49373183,1.7675385,-0.027178884,6.5585823,7.29523,1,1683969722.3858886
-1.507344,-1.2301328,1.776994,1.091158,0.49373183,1.7675385,2.1169443,7.6378236,5.780858,1,1683969722.4113777
0.8190721,1.5820435,-0.1770835,1.091158,0.49373183,1.7675385,2.1169443,7.6378236,5.780858,1,1683969722.4165075
0.8190721,1.5820435,-0.1770835,-1.7631098,-0.26450464,-2.6574166,2.1169443,7.6378236,5.780858,1,1683969722.42673
0.8190721,1.5820435,-0.1770835,-1.7631098,-0.26450464,-2.6574166,1.8647373,7.573562,5.949794,1,1683969722.4523358
0.8190721,1.5820435,-0.1770835,-2.329382,-0.26099217,-3.1267138,1.8647373,7.573562,5.949794,1,1683969722.457464
0.7038825,1.1573846,-0.04835648,-2.329382,-0.26099217,-3.1267138,1.8647373,7.573562,5.949794,1,1683969722.4728143
0.56728923,0.79644895,0.06366225,-2.329382,-0.26099217,-3.1267138,1.8647373,7.573562,5.949794,1,1683969722.4933012
0.56728923,0.79644895,0.06366225,-2.329382,-0.26099217,-3.1267138,1.771793,7.5410104,6.0191374,1,1683969722.50348
0.56728923,0.79644895,0.06366225,-2.6141977,-0.26908615,-3.3576207,1.771793,7.5410104,6.0191374,1,1683969722.5085657
0.56728923,0.79644895,0.06366225,-2.951548,-0.2556471,-3.640146,1.771793,7.5410104,6.0191374,1,1683969722.5187826
0.39593774,0.39849886,0.24727054,-2.951548,-0.2556471,-3.640146,1.771793,7.5410104,6.0191374,1,1683969722.5239131
0.39593774,0.39849886,0.24727054,-2.951548,-0.2556471,-3.640146,1.467994,7.400793,6.269718,1,1683969722.5392594
0.19934091,-0.030855458,0.46899077,-2.951548,-0.2556471,-3.640146,1.467994,7.400793,6.269718,1,1683969722.5494618
0.19934091,-0.030855458,0.46899077,-3.185204,-0.24846944,-3.8647916,1.467994,7.400793,6.269718,1,1683969722.5648131
0.19934091,-0.030855458,0.46899077,-3.185204,-0.24846944,-3.8647916,1.2465912,7.2629313,6.4754887,1,1683969722.5750668
-0.17263202,-0.59905934,0.7952293,-3.185204,-0.24846944,-3.8647916,1.2465912,7.2629313,6.4754887,1,1683969722.6056743
-0.17263202,-0.59905934,0.7952293,-3.185204,-0.24846944,-3.8647916,1.0069277,7.0932674,6.701326,1,1683969722.610764
-0.17263202,-0.59905934,0.7952293,-3.2371275,-0.26526824,-3.9455786,1.0069277,7.0932674,6.701326,1,1683969722.6158798
-0.17263202,-0.59905934,0.7952293,-3.022256,-0.3408628,-3.6352592,1.0069277,7.0932674,6.701326,1,1683969722.6210084
-0.5947908,-1.0101808,1.1221997,-3.022256,-0.3408628,-3.6352592,1.0069277,7.0932674,6.701326,1,1683969722.6311862
-0.5947908,-1.0101808,1.1221997,-3.022256,-0.3408628,-3.6352592,0.7676788,6.908489,6.922396,1,1683969722.6517057
-0.5947908,-1.0101808,1.1221997,-3.022256,-0.3408628,-3.6352592,0.5589805,6.7241163,7.121089,1,1683969722.6670926
-1.1278098,-1.2922096,1.6064962,-3.022256,-0.3408628,-3.6352592,0.5589805,6.7241163,7.121089,1,1683969722.67731
-0.9926189,-1.3356267,1.5647255,-3.022256,-0.3408628,-3.6352592,0.5589805,6.7241163,7.121089,1,1683969722.692697
-0.9926189,-1.3356267,1.5647255,-2.6265678,-0.22800545,-2.9150488,0.5589805,6.7241163,7.121089,1,1683969722.6978092
-0.9926189,-1.3356267,1.5647255,-2.6265678,-0.22800545,-2.9150488,0.40829325,6.3911695,7.4311748,1,1683969722.7080312
-0.9926189,-1.3356267,1.5647255,-1.212873,-0.18173242,-1.4726434,0.40829325,6.3911695,7.4311748,1,1683969722.7182603
-1.4331324,-1.422583,1.8742558,-1.212873,-0.18173242,-1.4726434,0.40829325,6.3911695,7.4311748,1,1683969722.7284842
-1.4331324,-1.422583,1.8742558,-1.212873,-0.18173242,-1.4726434,0.19470616,6.1441073,7.6451383,1,1683969722.7387426
-1.4331324,-1.422583,1.8742558,-1.212873,-0.18173242,-1.4726434,0.13722904,6.0773306,7.6995664,1,1683969722.7541373
-1.4331324,-1.422583,1.8742558,0.17165314,-0.25885415,-0.13958271,0.13722904,6.0773306,7.6995664,1,1683969722.764366
-1.5593593,-1.3563596,1.8337045,0.17165314,-0.25885415,-0.13958271,0.13722904,6.0773306,7.6995664,1,1683969722.769501
-1.5593593,-1.3563596,1.8337045,0.17165314,-0.25885415,-0.13958271,0.16303632,6.104693,7.677386,1,1683969722.7900195
-1.5084417,-1.229279,1.6239362,0.17165314,-0.25885415,-0.13958271,0.16303632,6.104693,7.677386,1,1683969722.79515
-1.5084417,-1.229279,1.6239362,1.7669277,-0.5699373,1.5312865,0.16303632,6.104693,7.677386,1,1683969722.8155317
-1.5084417,-1.229279,1.6239362,1.7669277,-0.5699373,1.5312865,0.21013287,6.1505017,7.639586,1,1683969722.8309064
-1.5084417,-1.229279,1.6239362,2.4906504,-0.6881397,2.4801128,0.21013287,6.1505017,7.639586,1,1683969722.846293
-1.2896484,-1.0079857,1.4101433,2.4906504,-0.6881397,2.4801128,0.21013287,6.1505017,7.639586,1,1683969722.8513858
-0.78766793,-0.6197923,1.1084183,2.4906504,-0.6881397,2.4801128,0.21013287,6.1505017,7.639586,1,1683969722.8667846
-0.78766793,-0.6197923,1.1084183,3.2708778,-0.5710063,3.8588357,0.21013287,6.1505017,7.639586,1,1683969722.8770442
-0.78766793,-0.6197923,1.1084183,3.2708778,-0.5710063,3.8588357,0.47473896,6.374463,7.4415703,1,1683969722.8872647
-0.78766793,-0.6197923,1.1084183,3.6015089,-0.21578814,4.8679852,0.47473896,6.374463,7.4415703,1,1683969722.8975232
-0.25471,-0.2110489,0.8373049,3.6015089,-0.21578814,4.8679852,0.47473896,6.374463,7.4415703,1,1683969722.9026158
-0.25471,-0.2110489,0.8373049,3.6015089,-0.21578814,4.8679852,0.7289153,6.557179,7.2600417,1,1683969722.9282074
0.47033232,0.45252642,0.49984625,3.6015089,-0.21578814,4.8679852,0.7289153,6.557179,7.2600417,1,1683969722.9487274
0.47033232,0.45252642,0.49984625,3.535688,0.05421429,5.266422,0.7289153,6.557179,7.2600417,1,1683969722.9589846
1.0522565,0.8738315,0.32245782,3.535688,0.05421429,5.266422,0.7289153,6.557179,7.2600417,1,1683969722.9743702
1.0522565,0.8738315,0.32245782,2.5717428,1.1953106,5.4470854,0.7289153,6.557179,7.2600417,1,1683969722.9845884
1.0522565,0.8738315,0.32245782,2.5717428,1.1953106,5.4470854,1.80536,6.9169483,6.718081,1,1683969722.9948485
1.3891054,1.5026487,0.15128931,2.5717428,1.1953106,5.4470854,1.80536,6.9169483,6.718081,1,1683969723.0101602
1.3891054,1.5026487,0.15128931,2.5717428,1.1953106,5.4470854,2.0759308,6.9732127,6.5803447,1,1683969723.0152495
1.3891054,1.5026487,0.15128931,2.0358613,1.4133894,4.862182,2.0759308,6.9732127,6.5803447,1,1683969723.0203304
1.3891054,1.5026487,0.15128931,1.547169,1.382999,3.748269,2.0759308,6.9732127,6.5803447,1,1683969723.0510092
1.3891054,1.5026487,0.15128931,1.547169,1.382999,3.748269,2.2941606,7.0015874,6.4769373,1,1683969723.0561395
1.6475352,2.01713,-0.009756667,1.547169,1.382999,3.748269,2.2941606,7.0015874,6.4769373,1,1683969723.0664
1.6475352,2.01713,-0.009756667,1.547169,1.382999,3.748269,2.4606526,7.019219,6.396238,1,1683969723.0817342
1.6475352,2.01713,-0.009756667,1.258077,1.0600039,2.7307203,2.4606526,7.019219,6.396238,1,1683969723.0971196
1.8098617,2.3314776,-0.15494807,1.258077,1.0600039,2.7307203,2.4606526,7.019219,6.396238,1,1683969723.1022553
1.8098617,2.3314776,-0.15494807,1.0722213,0.6976081,1.8420641,2.4606526,7.019219,6.396238,1,1683969723.1124384
1.8880371,2.5669181,-0.26068595,1.0722213,0.6976081,1.8420641,2.4606526,7.019219,6.396238,1,1683969723.122614
1.8880371,2.5669181,-0.26068595,1.0722213,0.6976081,1.8420641,2.5265248,7.028117,6.360688,1,1683969723.137956
1.8460834,2.7428432,-0.41051176,1.0722213,0.6976081,1.8420641,2.5265248,7.028117,6.360688,1,1683969723.1430655
1.8460834,2.7428432,-0.41051176,1.0722213,0.6976081,1.8420641,2.6518118,7.071093,6.261282,1,1683969723.1533246
1.8460834,2.7428432,-0.41051176,0.7449502,-0.028405234,0.18707748,2.6518118,7.071093,6.261282,1,1683969723.1635747
1.8460834,2.7428432,-0.41051176,0.3371976,-0.6611089,-1.2675453,2.6518118,7.071093,6.261282,1,1683969723.189216
1.5288696,2.5211837,-0.33233646,0.3371976,-0.6611089,-1.2675453,2.6518118,7.071093,6.261282,1,1683969723.194348
1.5288696,2.5211837,-0.33233646,0.3371976,-0.6611089,-1.2675453,2.6623743,7.147227,6.1696854,1,1683969723.2046018
1.5288696,2.5211837,-0.33233646,0.3371976,-0.6611089,-1.2675453,2.6106834,7.2052293,6.124141,1,1683969723.2148657
1.5288696,2.5211837,-0.33233646,-0.17501289,-0.8837693,-2.2062926,2.6106834,7.2052293,6.124141,1,1683969723.2199998
1.1721416,2.156711,-0.23464784,-0.17501289,-0.8837693,-2.2062926,2.6106834,7.2052293,6.124141,1,1683969723.2353547
1.1721416,2.156711,-0.23464784,-0.4915938,-0.45860708,-1.2049317,2.6106834,7.2052293,6.124141,1,1683969723.2404866
1.329163,2.417397,-0.25428313,-0.4915938,-0.45860708,-1.2049317,2.6106834,7.2052293,6.124141,1,1683969723.255853
1.329163,2.417397,-0.25428313,-0.4915938,-0.45860708,-1.2049317,2.2635279,7.0516706,6.4332333,1,1683969723.2661169
1.118297,2.1621993,-0.15946053,-0.4915938,-0.45860708,-1.2049317,2.2635279,7.0516706,6.4332333,1,1683969723.2763364
1.118297,2.1621993,-0.15946053,-0.8232936,-0.6739371,-1.8828394,2.2635279,7.0516706,6.4332333,1,1683969723.2814677
1.118297,2.1621993,-0.15946053,-0.8232936,-0.6739371,-1.8828394,2.2110488,7.055911,6.44682,1,1683969723.2865984
0.88889337,1.6825373,-0.0248795,-0.8232936,-0.6739371,-1.8828394,2.2110488,7.055911,6.44682,1,1683969723.3173125
0.88889337,1.6825373,-0.0248795,-1.5045611,-0.6224717,-2.7214046,2.2110488,7.055911,6.44682,1,1683969723.3223972
0.88889337,1.6825373,-0.0248795,-1.5045611,-0.6224717,-2.7214046,2.0743368,7.0430603,6.506038,1,1683969723.337769
0.8551108,1.5935075,-0.0030489585,-1.5045611,-0.6224717,-2.7214046,2.0743368,7.0430603,6.506038,1,1683969723.353132
0.8551108,1.5935075,-0.0030489585,-1.6142114,-0.5832236,-2.8185322,2.0743368,7.0430603,6.506038,1,1683969723.3736432
0.8551108,1.5935075,-0.0030489585,-1.6142114,-0.5832236,-2.8185322,1.8664773,6.9847555,6.630653,1,1683969723.3838644
0.69723576,1.1342735,0.10323773,-1.6142114,-0.5832236,-2.8185322,1.8664773,6.9847555,6.630653,1,1683969723.388954
0.69723576,1.1342735,0.10323773,-2.0535762,-0.40026945,-3.179401,1.8664773,6.9847555,6.630653,1,1683969723.4042654
0.69723576,1.1342735,0.10323773,-2.5401304,-0.27672195,-3.5804338,1.8664773,6.9847555,6.630653,1,1683969723.4247856
0.5023464,0.66955125,0.19677977,-2.5401304,-0.27672195,-3.5804338,1.8664773,6.9847555,6.630653,1,1683969723.4299195
0.5023464,0.66955125,0.19677977,-2.5401304,-0.27672195,-3.5804338,1.6909232,6.9116993,6.75317,1,1683969723.4350483
0.26355198,0.19867012,0.34337372,-2.5401304,-0.27672195,-3.5804338,1.6909232,6.9116993,6.75317,1,1683969723.450439
0.26355198,0.19867012,0.34337372,-2.8793132,-0.34804046,-3.8734965,1.6909232,6.9116993,6.75317,1,1683969723.465788
0.26355198,0.19867012,0.34337372,-2.8793132,-0.34804046,-3.8734965,1.395811,6.7443566,6.9858055,1,1683969723.4760487
0.26355198,0.19867012,0.34337372,-2.8793132,-0.34804046,-3.8734965,1.1876264,6.588301,7.1707697,1,1683969723.4913938
-0.05232013,-0.27660152,0.53649473,-2.8793132,-0.34804046,-3.8734965,1.1876264,6.588301,7.1707697,1,1683969723.5067446
-0.05232013,-0.27660152,0.53649473,-3.0256155,-0.52656585,-4.0052905,1.1876264,6.588301,7.1707697,1,1683969723.5118775
-0.05232013,-0.27660152,0.53649473,-3.0256155,-0.52656585,-4.0052905,1.9471571,6.9825,6.6097946,1,1683969723.5425699
1.1483598,0.94157934,0.48893097,-3.0256155,-0.52656585,-4.0052905,1.9471571,6.9825,6.6097946,1,1683969723.5476992
1.1483598,0.94157934,0.48893097,2.6363416,2.5399778,5.4434204,1.9471571,6.9825,6.6097946,1,1683969723.557968
1.4749031,1.4270345,0.2992248,2.6363416,2.5399778,5.4434204,1.9471571,6.9825,6.6097946,1,1683969723.568243
1.4749031,1.4270345,0.2992248,2.6363416,2.5399778,5.4434204,2.1519473,7.037782,6.4865136,1,1683969723.578502
1.4749031,1.4270345,0.2992248,1.9602666,2.927419,4.794834,2.1519473,7.037782,6.4865136,1,1683969723.5835826
1.4749031,1.4270345,0.2992248,1.4245378,2.8083003,3.6601517,2.1519473,7.037782,6.4865136,1,1683969723.598961
1.7256494,1.9938968,-0.059149794,1.4245378,2.8083003,3.6601517,2.1519473,7.037782,6.4865136,1,1683969723.6040452
1.7256494,1.9938968,-0.059149794,1.4245378,2.8083003,3.6601517,2.3481624,7.066551,6.3863993,1,1683969723.6193957
1.840656,2.382639,-0.33355603,1.4245378,2.8083003,3.6601517,2.3481624,7.066551,6.3863993,1,1683969723.6551993
1.840656,2.382639,-0.33355603,1.4245378,2.8083003,3.6601517,2.4227343,7.0807614,6.342656,1,1683969723.6603305
1.840656,2.382639,-0.33355603,1.1759156,2.0184515,2.4975226,2.4227343,7.0807614,6.342656,1,1683969723.6654627
1.840656,2.382639,-0.33355603,1.1759156,2.0184515,2.4975226,2.4500504,7.0923924,6.3191247,1,1683969723.6808484
1.8445588,2.5177689,-0.4191098,1.1759156,2.0184515,2.4975226,2.4500504,7.0923924,6.3191247,1,1683969723.6911166
1.8445588,2.5177689,-0.4191098,1.105666,1.478752,1.8532125,2.4500504,7.0923924,6.3191247,1,1683969723.6962495
1.8445588,2.5177689,-0.4191098,0.97249746,-0.29153544,-0.34590244,2.4500504,7.0923924,6.3191247,1,1683969723.7218454
1.8445588,2.5177689,-0.4191098,0.97249746,-0.29153544,-0.34590244,2.499918,7.160247,6.2223296,1,1683969723.726965
1.8445588,2.5177689,-0.4191098,0.97249746,-0.29153544,-0.34590244,2.4993124,7.233045,6.1378016,1,1683969723.7473466
1.8445588,2.5177689,-0.4191098,0.8691085,-0.69806623,-1.0862712,2.4993124,7.233045,6.1378016,1,1683969723.7576072
1.4127654,2.4605703,-0.28056514,0.8691085,-0.69806623,-1.0862712,2.4993124,7.233045,6.1378016,1,1683969723.7627387
1.1204313,2.1850665,-0.24184339,0.8691085,-0.69806623,-1.0862712,2.4993124,7.233045,6.1378016,1,1683969723.778132
1.1204313,2.1850665,-0.24184339,0.56337047,-0.9309586,-1.9384282,2.4993124,7.233045,6.1378016,1,1683969723.788326
1.1204313,2.1850665,-0.24184339,0.56337047,-0.9309586,-1.9384282,2.4620059,7.3165164,6.053365,1,1683969723.803725
1.1204313,2.1850665,-0.24184339,0.86315256,1.9475911,3.528205,2.4620059,7.3165164,6.053365,1,1683969723.814016
1.668146,2.1495767,-0.047319833,0.86315256,1.9475911,3.528205,2.4620059,7.3165164,6.053365,1,1683969723.819146
1.668146,2.1495767,-0.047319833,0.86315256,1.9475911,3.528205,2.120249,6.964982,6.574928,1,1683969723.824238
1.668146,2.1495767,-0.047319833,0.86315256,1.9475911,3.528205,2.2845309,6.954747,6.5305834,1,1683969723.844638
1.668146,2.1495767,-0.047319833,0.63071835,1.0439687,2.1111503,2.2845309,6.954747,6.5305834,1,1683969723.8497677
1.7594929,2.496792,-0.17263202,0.63071835,1.0439687,2.1111503,2.2845309,6.954747,6.5305834,1,1683969723.854902
1.6309489,2.6004567,-0.18183987,0.63071835,1.0439687,2.1111503,2.2845309,6.954747,6.5305834,1,1683969723.8856564
1.6309489,2.6004567,-0.18183987,0.63071835,1.0439687,2.1111503,2.3557708,6.9632697,6.496101,1,1683969723.8907852
1.6309489,2.6004567,-0.18183987,0.5002986,0.13958271,0.63255095,2.3557708,6.9632697,6.496101,1,1683969723.8959324
1.4475235,2.4937432,-0.1220803,0.5002986,0.13958271,0.63255095,2.3557708,6.9632697,6.496101,1,1683969723.9061954
1.4475235,2.4937432,-0.1220803,0.38774672,-0.4005749,-0.38652498,2.3557708,6.9632697,6.496101,1,1683969723.9112911
1.4475235,2.4937432,-0.1220803,0.38774672,-0.4005749,-0.38652498,2.3940117,6.9899607,6.453314,1,1683969723.9215484
1.253,2.265315,-0.11634825,0.38774672,-0.4005749,-0.38652498,2.3940117,6.9899607,6.453314,1,1683969723.9419348
1.253,2.265315,-0.11634825,0.10277808,-0.68294734,-1.3626876,2.3940117,6.9899607,6.453314,1,1683969723.94705
1.253,2.265315,-0.11634825,0.10277808,-0.68294734,-1.3626876,2.398036,7.0307736,6.4073205,1,1683969723.9573078
1.253,2.265315,-0.11634825,-0.30757064,-0.6960809,-1.9981402,2.398036,7.0307736,6.4073205,1,1683969723.9880736
1.109455,2.054815,-0.13647138,-0.30757064,-0.6960809,-1.9981402,2.398036,7.0307736,6.4073205,1,1683969723.9983299
1.109455,2.054815,-0.13647138,-0.30757064,-0.6960809,-1.9981402,2.333089,7.095228,6.3600745,1,1683969724.0034516
0.9670686,1.7760792,-0.16415593,-0.30757064,-0.6960809,-1.9981402,2.333089,7.095228,6.3600745,1,1683969724.0239642
0.9670686,1.7760792,-0.16415593,-0.30757064,-0.6960809,-1.9981402,2.2383797,7.122039,6.364143,1,1683969724.0290549
0.9670686,1.7760792,-0.16415593,-0.86132,-0.6044512,-2.5482244,2.2383797,7.122039,6.364143,1,1683969724.0341911
0.78285056,1.3591037,-0.12348281,-0.86132,-0.6044512,-2.5482244,2.2383797,7.122039,6.364143,1,1683969724.0494988
0.78285056,1.3591037,-0.12348281,-1.6349808,-0.44073927,-3.0914364,2.2383797,7.122039,6.364143,1,1683969724.0648801
0.78285056,1.3591037,-0.12348281,-1.6349808,-0.44073927,-3.0914364,2.1048088,7.1230474,6.4084387,1,1683969724.070011
0.78285056,1.3591037,-0.12348281,-1.6349808,-0.44073927,-3.0914364,2.9847283,6.605725,6.6099854,1,1683969724.1007717
0.78285056,1.3591037,-0.12348281,0.43692136,-0.5896377,-1.3808609,2.9847283,6.605725,6.6099854,1,1683969724.1058974
1.5915563,2.4334347,-0.051832296,0.43692136,-0.5896377,-1.3808609,2.9847283,6.605725,6.6099854,1,1683969724.1161573
1.5915563,2.4334347,-0.051832296,0.43692136,-0.5896377,-1.3808609,2.978932,6.6552825,6.5627193,1,1683969724.1366339
1.5915563,2.4334347,-0.051832296,0.43692136,-0.5896377,-1.3808609,2.903759,6.7702913,6.4782286,1,1683969724.1519668
1.5915563,2.4334347,-0.051832296,0.2761111,-0.968985,-2.3107505,2.903759,6.7702913,6.4782286,1,1683969724.1570919
1.3053811,2.1471374,-0.056649648,0.2761111,-0.968985,-2.3107505,2.903759,6.7702913,6.4782286,1,1683969724.1673086
1.1340295,1.8756582,-0.067077085,0.2761111,-0.968985,-2.3107505,2.903759,6.7702913,6.4782286,1,1683969724.1980035
1.1340295,1.8756582,-0.067077085,0.2761111,-0.968985,-2.3107505,2.8166764,6.8563547,6.4259505,1,1683969724.203138
1.1340295,1.8756582,-0.067077085,0.026419923,-1.1058189,-2.8799243,2.8166764,6.8563547,6.4259505,1,1683969724.2082694
1.1340295,1.8756582,-0.067077085,0.026419923,-1.1058189,-2.8799243,2.761865,6.897814,6.4053392,1,1683969724.2185314
1.1340295,1.8756582,-0.067077085,-0.35979962,-1.097114,-3.335935,2.761865,6.897814,6.4053392,1,1683969724.238963
0.97883755,1.563079,-0.07585809,-0.35979962,-1.097114,-3.335935,2.761865,6.897814,6.4053392,1,1683969724.2440577
0.8387685,1.2248886,-0.07293109,-0.35979962,-1.097114,-3.335935,2.761865,6.897814,6.4053392,1,1683969724.254271
0.8387685,1.2248886,-0.07293109,-1.014189,-0.9260717,-3.7736201,2.761865,6.897814,6.4053392,1,1683969724.2593656
0.8387685,1.2248886,-0.07293109,-1.014189,-0.9260717,-3.7736201,2.5515227,6.9966593,6.385341,1,1683969724.279885
0.8387685,1.2248886,-0.07293109,-1.6108516,-0.77106464,-4.0607266,2.5515227,6.9966593,6.385341,1,1683969724.300327
0.8387685,1.2248886,-0.07293109,-1.6108516,-0.77106464,-4.0607266,2.3737428,7.0275064,6.419939,1,1683969724.3054526
0.65601385,0.8088887,-0.038965687,-1.6108516,-0.77106464,-4.0607266,2.3737428,7.0275064,6.419939,1,1683969724.31058
0.49887055,0.4723446,0.016220458,-1.6108516,-0.77106464,-4.0607266,2.3737428,7.0275064,6.419939,1,1683969724.3208334
0.49887055,0.4723446,0.016220458,-2.3125832,-0.66721755,-4.3482914,2.3737428,7.0275064,6.419939,1,1683969724.3362236
0.49887055,0.4723446,0.016220458,-2.3125832,-0.66721755,-4.3482914,2.1713269,7.0212,6.4980145,1,1683969724.3464754
0.49887055,0.4723446,0.016220458,-2.3125832,-0.66721755,-4.3482914,1.8447776,6.9316535,6.692166,1,1683969724.3567274
0.49887055,0.4723446,0.016220458,-2.3125832,-0.66721755,-4.3482914,0.9825056,6.9458885,6.8575096,1,1683969724.3772392
0.49887055,0.4723446,0.016220458,-2.5390613,-0.5832236,-2.8774807,0.9825056,6.9458885,6.8575096,1,1683969724.3823755
-0.6129016,-0.5628987,0.81870633,-2.5390613,-0.5832236,-2.8774807,0.9825056,6.9458885,6.8575096,1,1683969724.3874989
-0.6129016,-0.5628987,0.81870633,-2.1696405,-0.5694791,-2.0105102,0.9825056,6.9458885,6.8575096,1,1683969724.4028492
-0.6129016,-0.5628987,0.81870633,-2.1696405,-0.5694791,-2.0105102,0.7670635,6.722297,7.1034107,1,1683969724.407976
-0.9196878,-0.7725451,1.1031741,-2.1696405,-0.5694791,-2.0105102,0.7670635,6.722297,7.1034107,1,1683969724.4232998
-0.9196878,-0.7725451,1.1031741,-1.5293012,-0.64858615,-0.9451612,0.7670635,6.722297,7.1034107,1,1683969724.4437544
-1.1458596,-0.8856005,1.4125824,-1.5293012,-0.64858615,-0.9451612,0.7670635,6.722297,7.1034107,1,1683969724.4488394
-1.1458596,-0.8856005,1.4125824,-1.5293012,-0.64858615,-0.9451612,0.6894502,6.589907,7.234216,1,1683969724.4539487
-1.1458596,-0.8856005,1.4125824,-1.5293012,-0.64858615,-0.9451612,0.6865748,6.4993987,7.31591,1,1683969724.469324
-1.340749,-0.8467567,1.698026,-1.5293012,-0.64858615,-0.9451612,0.6865748,6.4993987,7.31591,1,1683969724.4847
-1.340749,-0.8467567,1.698026,-0.19165897,-0.5195409,0.7696902,0.6865748,6.4993987,7.31591,1,1683969724.4898326
-1.340749,-0.8467567,1.698026,-0.19165897,-0.5195409,0.7696902,0.7566816,6.474759,7.330828,1,1683969724.5052214
-1.340749,-0.8467567,1.698026,1.07665,-0.31627548,2.1775818,0.7566816,6.474759,7.330828,1,1683969724.5257394
-1.2580001,-0.7455313,1.6517427,1.07665,-0.31627548,2.1775818,0.7566816,6.474759,7.330828,1,1683969724.5308738
-1.2580001,-0.7455313,1.6517427,2.371379,-0.18936823,3.7299433,0.7566816,6.474759,7.330828,1,1683969724.5410972
-0.9461528,-0.58960754,1.3597134,2.371379,-0.18936823,3.7299433,0.7566816,6.474759,7.330828,1,1683969724.5462263
-0.9461528,-0.58960754,1.3597134,2.371379,-0.18936823,3.7299433,0.99287176,6.566092,7.220578,1,1683969724.5615683
-0.67138064,-0.4601488,1.2427554,2.371379,-0.18936823,3.7299433,0.99287176,6.566092,7.220578,1,1683969724.58207
-0.67138064,-0.4601488,1.2427554,2.371379,-0.18936823,3.7299433,1.1060108,6.62014,7.1544814,1,1683969724.5871925
-0.67138064,-0.4601488,1.2427554,2.8950431,-0.047036625,4.517959,1.1060108,6.62014,7.1544814,1,1683969724.5923235
-0.67138064,-0.4601488,1.2427554,3.379612,0.57711494,5.5594845,1.1060108,6.62014,7.1544814,1,1683969724.617988
-0.072016396,-0.13061738,1.0943322,3.379612,0.57711494,5.5594845,1.1060108,6.62014,7.1544814,1,1683969724.6231241
-0.072016396,-0.13061738,1.0943322,-4.630664,0.32818735,-3.2609513,1.1060108,6.62014,7.1544814,1,1683969724.6590216
-0.072016396,-0.13061738,1.0943322,-4.630664,0.32818735,-3.2609513,0.9875354,7.656171,6.0534225,1,1683969724.6641572
-0.69699186,-0.79370487,0.64887935,-4.630664,0.32818735,-3.2609513,0.9875354,7.656171,6.0534225,1,1683969724.6692886
-1.1264682,-1.1050035,1.1333588,-4.630664,0.32818735,-3.2609513,0.9875354,7.656171,6.0534225,1,1683969724.6846788
-1.1264682,-1.1050035,1.1333588,-4.4498477,0.17394388,-2.2953262,0.9875354,7.656171,6.0534225,1,1683969724.6898096
-1.1264682,-1.1050035,1.1333588,-4.4498477,0.17394388,-2.2953262,0.6306446,7.274291,6.5515714,1,1683969724.6949372
-1.3053811,-1.1842154,1.3945326,-4.4498477,0.17394388,-2.2953262,0.6306446,7.274291,6.5515714,1,1683969724.7205412
-1.3053811,-1.1842154,1.3945326,-4.4498477,0.17394388,-2.2953262,0.5474431,7.1412325,6.7036734,1,1683969724.7256715
-1.3053811,-1.1842154,1.3945326,-3.8757873,0.0067195175,-1.3055718,0.5474431,7.1412325,6.7036734,1,1683969724.7359316
-1.3053811,-1.1842154,1.3945326,-2.0221167,0.29825497,0.7359399,0.5474431,7.1412325,6.7036734,1,1683969724.7512882
-1.3053811,-1.1842154,1.3945326,-2.0221167,0.29825497,0.7359399,0.45597774,6.9005213,6.9578023,1,1683969724.7615094
-1.610094,-1.1338466,1.9543214,-2.0221167,0.29825497,0.7359399,0.45597774,6.9005213,6.9578023,1,1683969724.7717788
-1.610094,-1.1338466,1.9543214,-0.205098,0.3556763,2.3073907,0.45597774,6.9005213,6.9578023,1,1683969724.78204
-1.5331383,-0.85285467,1.8668772,-0.205098,0.3556763,2.3073907,0.45597774,6.9005213,6.9578023,1,1683969724.7872026
-1.5331383,-0.85285467,1.8668772,-0.205098,0.3556763,2.3073907,0.48443556,6.6976976,7.1513834,1,1683969724.7974646
-1.5331383,-0.85285467,1.8668772,1.7502817,0.13439035,3.9371793,0.48443556,6.6976976,7.1513834,1,1683969724.8282452
-1.5331383,-0.85285467,1.8668772,1.7502817,0.13439035,3.9371793,0.6176249,6.6936674,7.144891,1,1683969724.8333743
-1.147506,-0.6229632,1.5005144,1.7502817,0.13439035,3.9371793,0.6176249,6.6936674,7.144891,1,1683969724.8487186
-1.147506,-0.6229632,1.5005144,3.0549371,0.13515393,5.2523723,0.6176249,6.6936674,7.144891,1,1683969724.8742895
-0.47295445,-0.35288644,1.1981187,3.0549371,0.13515393,5.2523723,0.6176249,6.6936674,7.144891,1,1683969724.8794072
-0.47295445,-0.35288644,1.1981187,3.0549371,0.13515393,5.2523723,0.98212194,6.829861,6.97313,1,1683969724.8845363
-0.47295445,-0.35288644,1.1981187,3.637397,0.5514586,5.9928937,0.98212194,6.829861,6.97313,1,1683969724.8896666
-0.47295445,-0.35288644,1.1981187,3.637397,0.5514586,5.9928937,1.3085363,6.962401,6.785928,1,1683969724.9050546
0.20147517,-0.036282603,1.0196327,3.637397,0.5514586,5.9928937,1.3085363,6.962401,6.785928,1,1683969724.9101846
0.36081374,-0.010549396,0.9386523,3.637397,0.5514586,5.9928937,1.3085363,6.962401,6.785928,1,1683969724.9152794
0.36081374,-0.010549396,0.9386523,3.637397,0.5514586,5.9928937,1.4955103,7.0970063,6.6054573,1,1683969724.925534
0.36081374,-0.010549396,0.9386523,4.1085267,0.3643811,5.8975987,1.4955103,7.0970063,6.6054573,1,1683969724.9357927
0.36081374,-0.010549396,0.9386523,4.1085267,0.3643811,5.8975987,1.8609302,7.2340903,6.359322,1,1683969724.9563022
0.36081374,-0.010549396,0.9386523,3.732692,1.1820242,6.0246587,1.8609302,7.2340903,6.359322,1,1683969724.966568
1.0945761,0.61552376,0.67205137,3.732692,1.1820242,6.0246587,1.8609302,7.2340903,6.359322,1,1683969724.9768238
1.8128496,1.5713111,0.3216651,3.732692,1.1820242,6.0246587,1.8609302,7.2340903,6.359322,1,1683969724.997343
1.8128496,1.5713111,0.3216651,3.732692,1.1820242,6.0246587,2.1853778,7.3251424,6.1483755,1,1683969725.0075762
1.8128496,1.5713111,0.3216651,2.8102856,1.902998,5.1399727,2.1853778,7.3251424,6.1483755,1,1683969725.017867
1.8128496,1.5713111,0.3216651,2.2194262,2.0941987,4.0730968,2.1853778,7.3251424,6.1483755,1,1683969725.028129
2.095732,2.066462,0.045978293,2.2194262,2.0941987,4.0730968,2.1853778,7.3251424,6.1483755,1,1683969725.033261
2.095732,2.066462,0.045978293,2.2194262,2.0941987,4.0730968,2.4271672,7.375044,5.99614,1,1683969725.0384014
2.095732,2.066462,0.045978293,2.2194262,2.0941987,4.0730968,2.56907,7.4085584,5.89485,1,1683969725.058878
2.0686574,2.4765468,-0.3498985,2.2194262,2.0941987,4.0730968,2.56907,7.4085584,5.89485,1,1683969725.0844808
2.0686574,2.4765468,-0.3498985,1.5303701,1.564426,2.1736112,2.56907,7.4085584,5.89485,1,1683969725.0896163
2.0686574,2.4765468,-0.3498985,1.2341005,0.25809056,0.58123827,2.56907,7.4085584,5.89485,1,1683969725.0998757
2.0686574,2.4765468,-0.3498985,1.2341005,0.25809056,0.58123827,2.6425705,7.447398,5.812845,1,1683969725.1101365
1.8341315,2.5857606,-0.35349622,1.2341005,0.25809056,0.58123827,2.6425705,7.447398,5.812845,1,1683969725.1203156
1.4656953,2.4692905,-0.18873052,1.2341005,0.25809056,0.58123827,2.6425705,7.447398,5.812845,1,1683969725.1305423
1.4656953,2.4692905,-0.18873052,1.0969613,-0.38637227,-0.356898,2.6425705,7.447398,5.812845,1,1683969725.1408005
1.4656953,2.4692905,-0.18873052,1.0969613,-0.38637227,-0.356898,2.6910899,7.53582,5.6749945,1,1683969725.1510653
1.4656953,2.4692905,-0.18873052,0.7831292,-0.731053,-1.1866057,2.6910899,7.53582,5.6749945,1,1683969725.1766653
1.2571466,2.2896457,-0.20787798,0.7831292,-0.731053,-1.1866057,2.6910899,7.53582,5.6749945,1,1683969725.1920738
1.2571466,2.2896457,-0.20787798,0.7831292,-0.731053,-1.1866057,3.0913985,7.392036,5.66014,1,1683969725.2125053
1.2571466,2.2896457,-0.20787798,-0.034055736,1.5572482,0.38362336,3.0913985,7.392036,5.66014,1,1683969725.2176363
1.5039902,2.4279466,-0.1501917,-0.034055736,1.5572482,0.38362336,3.0913985,7.392036,5.66014,1,1683969725.2227702
1.5039902,2.4279466,-0.1501917,-0.14385876,0.91599244,-0.44837508,3.0913985,7.392036,5.66014,1,1683969725.2330322
1.5039902,2.4279466,-0.1501917,-0.14385876,0.91599244,-0.44837508,3.0368476,7.3921456,5.689451,1,1683969725.2432535
1.5039902,2.4279466,-0.1501917,-0.040317107,0.1572978,-1.2345587,3.0368476,7.3921456,5.689451,1,1683969725.2586057
1.5039902,2.4279466,-0.1501917,-0.040317107,0.1572978,-1.2345587,2.9624116,7.4114585,5.7035546,1,1683969725.2840898
1.2567197,2.2436676,-0.08963938,-0.040317107,0.1572978,-1.2345587,2.9624116,7.4114585,5.7035546,1,1683969725.2891722
1.2567197,2.2436676,-0.08963938,0.034972034,-0.22434026,-1.6459764,2.9624116,7.4114585,5.7035546,1,1683969725.2993436
1.2567197,2.2436676,-0.08963938,0.034972034,-0.22434026,-1.6459764,2.876549,7.4512563,5.695644,1,1683969725.3096106
1.1586652,2.1316488,-0.07829725,0.034972034,-0.22434026,-1.6459764,2.876549,7.4512563,5.695644,1,1683969725.3198764
1.1586652,2.1316488,-0.07829725,-0.008857546,-0.64599,-2.3150265,2.876549,7.4512563,5.695644,1,1683969725.3402994
1.0457318,1.8649869,-0.13055639,-0.008857546,-0.64599,-2.3150265,2.876549,7.4512563,5.695644,1,1683969725.34543
1.0457318,1.8649869,-0.13055639,-0.008857546,-0.64599,-2.3150265,2.7774293,7.507797,5.6705365,1,1683969725.355688
1.0457318,1.8649869,-0.13055639,-0.008857546,-0.64599,-2.3150265,2.6568048,7.57147,5.643611,1,1683969725.3659472
1.0457318,1.8649869,-0.13055639,-0.37415496,-0.80848014,-2.96178,2.6568048,7.57147,5.643611,1,1683969725.3865058
0.910419,1.5155153,-0.17202222,-0.37415496,-0.80848014,-2.96178,2.6568048,7.57147,5.643611,1,1683969725.3967705
0.7947415,1.2036068,-0.1709246,-0.37415496,-0.80848014,-2.96178,2.6568048,7.57147,5.643611,1,1683969725.4224133
0.7947415,1.2036068,-0.1709246,-0.8524625,-0.782213,-3.408628,2.6568048,7.57147,5.643611,1,1683969725.4275343
0.7947415,1.2036068,-0.1709246,-0.8524625,-0.782213,-3.408628,2.4202807,7.652982,5.640054,1,1683969725.4326599
0.7947415,1.2036068,-0.1709246,-1.6105462,-0.6609562,-3.8660135,2.4202807,7.652982,5.640054,1,1683969725.44292
0.5566178,0.7659593,-0.16775368,-1.6105462,-0.6609562,-3.8660135,2.4202807,7.652982,5.640054,1,1683969725.4480476
0.5566178,0.7659593,-0.16775368,-1.6105462,-0.6609562,-3.8660135,2.2225707,7.680733,5.683539,1,1683969725.4531808
1.5436877,1.3767267,0.37093627,-1.6105462,-0.6609562,-3.8660135,2.2225707,7.680733,5.683539,1,1683969725.473691
1.5436877,1.3767267,0.37093627,2.2440135,0.8741482,5.2954383,2.2225707,7.680733,5.683539,1,1683969725.4942093
1.5436877,1.3767267,0.37093627,2.2440135,0.8741482,5.2954383,2.2874222,7.169491,6.2930293,1,1683969725.4993057
1.7546146,1.8369365,0.2309891,2.2440135,0.8741482,5.2954383,2.2874222,7.169491,6.2930293,1,1683969725.5249507
1.7546146,1.8369365,0.2309891,2.2440135,0.8741482,5.2954383,2.5651145,7.1784353,6.1746554,1,1683969725.5300825
1.7546146,1.8369365,0.2309891,1.5599971,1.1992812,4.134794,2.5651145,7.1784353,6.1746554,1,1683969725.5351841
1.7546146,1.8369365,0.2309891,0.9812023,1.1323915,2.6714664,2.5651145,7.1784353,6.1746554,1,1683969725.5403125
1.7358941,2.0685964,0.20751211,0.9812023,1.1323915,2.6714664,2.5651145,7.1784353,6.1746554,1,1683969725.5505748
1.7358941,2.0685964,0.20751211,0.9812023,1.1323915,2.6714664,2.7514136,7.170181,6.103633,1,1683969725.555708
1.6238753,2.1936038,0.3179454,0.9812023,1.1323915,2.6714664,2.7514136,7.170181,6.103633,1,1683969725.5915766
1.6238753,2.1936038,0.3179454,0.9812023,1.1323915,2.6714664,2.8704853,7.1630087,6.0570407,1,1683969725.5967104
1.6238753,2.1936038,0.3179454,0.8562804,0.8393288,1.7683022,2.8704853,7.1630087,6.0570407,1,1683969725.6069694
1.6238753,2.1936038,0.3179454,0.91904676,0.6180429,0.96944314,2.8704853,7.1630087,6.0570407,1,1683969725.6120613
1.5769213,2.3083055,0.36191136,0.91904676,0.6180429,0.96944314,2.8704853,7.1630087,6.0570407,1,1683969725.6325648
1.5769213,2.3083055,0.36191136,0.91904676,0.6180429,0.96944314,2.945062,7.1710334,6.011573,1,1683969725.6428308
1.5769213,2.3083055,0.36191136,0.9272934,0.4100433,-0.09086621,2.945062,7.1710334,6.011573,1,1683969725.6530893
1.5696647,2.3816023,0.17525412,0.9272934,0.4100433,-0.09086621,2.945062,7.1710334,6.011573,1,1683969725.6582413
1.5696647,2.3816023,0.17525412,0.9272934,0.4100433,-0.09086621,2.978136,7.227567,5.926979,1,1683969725.6633346
1.4903919,2.3461735,-0.025123417,0.9272934,0.4100433,-0.09086621,2.978136,7.227567,5.926979,1,1683969725.6991978
1.4903919,2.3461735,-0.025123417,0.763887,0.23457226,-1.0096076,2.978136,7.227567,5.926979,1,1683969725.7043283
1.4903919,2.3461735,-0.025123417,0.763887,0.23457226,-1.0096076,2.9405363,7.29218,5.8663006,1,1683969725.709463
1.2655007,2.0853655,-0.22812307,0.763887,0.23457226,-1.0096076,2.9405363,7.29218,5.8663006,1,1683969725.7299821
1.2655007,2.0853655,-0.22812307,0.33750305,-0.033292156,-2.0732768,2.9405363,7.29218,5.8663006,1,1683969725.735124
1.2655007,2.0853655,-0.22812307,0.33750305,-0.033292156,-2.0732768,2.8522403,7.3693156,5.8132625,1,1683969725.7402532
2.0383508,2.3819072,0.2970905,0.33750305,-0.033292156,-2.0732768,2.8522403,7.3693156,5.8132625,1,1683969725.745386
2.0383508,2.3819072,0.2970905,0.31444287,1.311375,1.7702875,2.8522403,7.3693156,5.8132625,1,1683969725.7556565
2.0383508,2.3819072,0.2970905,0.31444287,1.311375,1.7702875,3.1345596,6.689695,6.45435,1,1683969725.765931
2.0383508,2.3819072,0.2970905,0.31444287,1.311375,1.7702875,3.1609857,6.6589813,6.473193,1,1683969725.7761877
2.0383508,2.3819072,0.2970905,-0.00992656,1.2063061,0.3744604,3.1609857,6.6589813,6.473193,1,1683969725.7915392
1.7719326,2.4187996,0.2678205,-0.00992656,1.2063061,0.3744604,3.1609857,6.6589813,6.473193,1,1683969725.796672
1.7719326,2.4187996,0.2678205,-0.013133603,0.86376345,-0.5290093,3.1609857,6.6589813,6.473193,1,1683969725.8120422
1.7719326,2.4187996,0.2678205,-0.013133603,0.86376345,-0.5290093,3.107847,6.66371,6.4940257,1,1683969725.8274267
1.5060635,2.35654,0.24659975,-0.013133603,0.86376345,-0.5290093,3.107847,6.66371,6.4940257,1,1683969725.8428147
1.5060635,2.35654,0.24659975,0.12782355,0.38438696,-1.2701416,3.107847,6.66371,6.4940257,1,1683969725.858207
1.5060635,2.35654,0.24659975,0.12782355,0.38438696,-1.2701416,3.0256875,6.6956773,6.4999404,1,1683969725.8633053
1.3123327,2.215495,0.20617057,0.12782355,0.38438696,-1.2701416,3.0256875,6.6956773,6.4999404,1,1683969725.8786316
1.1500671,1.9579191,0.15842387,0.12782355,0.38438696,-1.2701416,3.0256875,6.6956773,6.4999404,1,1683969725.8837225
1.1500671,1.9579191,0.15842387,0.31230485,-0.18555032,-2.0349448,3.0256875,6.6956773,6.4999404,1,1683969725.8888552
1.1500671,1.9579191,0.15842387,0.31230485,-0.18555032,-2.0349448,2.929292,6.755371,6.482309,1,1683969725.8990989
1.1500671,1.9579191,0.15842387,0.31948254,-0.4071417,-2.4741569,2.929292,6.755371,6.482309,1,1683969725.94012
1.1500671,1.9579191,0.15842387,0.31948254,-0.4071417,-2.4741569,2.8199246,6.8363543,6.4458036,1,1683969725.9452496
1.0753676,1.7896776,0.13226382,0.31948254,-0.4071417,-2.4741569,2.8199246,6.8363543,6.4458036,1,1683969725.95038
1.0753676,1.7896776,0.13226382,0.31948254,-0.4071417,-2.4741569,2.6886656,6.9268956,6.4051,1,1683969725.9657552
1.0753676,1.7896776,0.13226382,0.10751228,-0.5710063,-3.1430545,2.6886656,6.9268956,6.4051,1,1683969725.9759748
0.9320666,1.4745982,0.098420374,0.10751228,-0.5710063,-3.1430545,2.6886656,6.9268956,6.4051,1,1683969725.9810743
0.9320666,1.4745982,0.098420374,-0.28420505,-0.5688683,-3.6723692,2.6886656,6.9268956,6.4051,1,1683969726.0066192
0.7419945,1.1023204,0.07549221,-0.28420505,-0.5688683,-3.6723692,2.6886656,6.9268956,6.4051,1,1683969726.0117524
0.7419945,1.1023204,0.07549221,-0.28420505,-0.5688683,-3.6723692,2.4390595,7.0534654,6.366768,1,1683969726.0168827
-1.5828363,-1.1425667,1.3453225,-0.28420505,-0.5688683,-3.6723692,2.4390595,7.0534654,6.366768,1,1683969726.022011
-1.40807,-0.92761505,1.2523292,-0.28420505,-0.5688683,-3.6723692,2.4390595,7.0534654,6.366768,1,1683969726.0373933
-1.40807,-0.92761505,1.2523292,-0.28420505,-0.5688683,-3.6723692,0.61105806,6.485925,7.3345413,1,1683969726.0425227
-1.40807,-0.92761505,1.2523292,0.72066826,-0.09208794,2.7296515,0.61105806,6.485925,7.3345413,1,1683969726.047652
-1.004022,-0.6993701,0.9587145,0.72066826,-0.09208794,2.7296515,0.61105806,6.485925,7.3345413,1,1683969726.093772
-1.004022,-0.6993701,0.9587145,0.72066826,-0.09208794,2.7296515,0.7877223,6.51529,7.2915435,1,1683969726.0989008
-1.004022,-0.6993701,0.9587145,1.4796684,-0.15607607,4.2810965,0.7877223,6.51529,7.2915435,1,1683969726.1040316
-0.57228947,-0.51131034,0.7447386,1.4796684,-0.15607607,4.2810965,0.7877223,6.51529,7.2915435,1,1683969726.1193678
-0.57228947,-0.51131034,0.7447386,1.7982346,-0.23793201,5.2775702,0.7877223,6.51529,7.2915435,1,1683969726.129625
-0.57228947,-0.51131034,0.7447386,1.7982346,-0.23793201,5.2775702,1.0417758,6.563984,7.2156024,1,1683969726.1347497
-0.57228947,-0.51131034,0.7447386,1.892766,-0.25381452,6.062532,1.0417758,6.563984,7.2156024,1,1683969726.155198
-0.57228947,-0.51131034,0.7447386,1.892766,-0.25381452,6.062532,1.3660843,6.6068025,7.1218038,1,1683969726.1603243
0.0035367915,-0.25135612,0.6272927,1.892766,-0.25381452,6.062532,1.3660843,6.6068025,7.1218038,1,1683969726.165459
0.8379757,0.30721304,0.47569847,1.892766,-0.25381452,6.062532,1.3660843,6.6068025,7.1218038,1,1683969726.1909528
0.8379757,0.30721304,0.47569847,1.7482964,-0.13744467,6.5894036,1.3660843,6.6068025,7.1218038,1,1683969726.1960735
0.8379757,0.30721304,0.47569847,1.7482964,-0.13744467,6.5894036,1.9643053,6.626024,6.962286,1,1683969726.2012098
0.8379757,0.30721304,0.47569847,1.4524848,-0.01160644,6.388276,1.9643053,6.626024,6.962286,1,1683969726.2319694
0.8379757,0.30721304,0.47569847,1.4524848,-0.01160644,6.388276,2.3830237,6.5997624,6.8556876,1,1683969726.2370975
1.442828,0.98054504,0.47935724,1.4524848,-0.01160644,6.388276,2.3830237,6.5997624,6.8556876,1,1683969726.242196
1.442828,0.98054504,0.47935724,0.93859446,0.42653665,5.1961727,2.3830237,6.5997624,6.8556876,1,1683969726.262684
1.9332834,1.8588889,0.51765215,0.93859446,0.42653665,5.1961727,2.3830237,6.5997624,6.8556876,1,1683969726.2729528
1.9332834,1.8588889,0.51765215,0.93859446,0.42653665,5.1961727,2.7568038,6.541169,6.771208,1,1683969726.2831354
1.9332834,1.8588889,0.51765215,0.47800204,0.7715228,3.6499197,2.7568038,6.541169,6.771208,1,1683969726.2933462
1.1947647,1.7224176,0.056649648,0.47800204,0.7715228,3.6499197,2.7568038,6.541169,6.771208,1,1683969726.303575
1.1947647,1.7224176,0.056649648,-0.8042041,0.25137106,-2.6459627,2.7568038,6.541169,6.771208,1,1683969726.3138268
1.1947647,1.7224176,0.056649648,-0.8042041,0.25137106,-2.6459627,3.138734,7.350764,5.687772,1,1683969726.318955
0.9331032,1.3225162,0.063418336,-0.8042041,0.25137106,-2.6459627,3.138734,7.350764,5.687772,1,1683969726.3240852
0.9331032,1.3225162,0.063418336,-0.8042041,0.25137106,-2.6459627,2.8519547,7.407123,5.7651525,1,1683969726.3393466
0.9331032,1.3225162,0.063418336,-1.0137309,0.046883907,-3.2951598,2.8519547,7.407123,5.7651525,1,1683969726.3546948
0.7183346,0.94164026,0.07433361,-1.0137309,0.046883907,-3.2951598,2.8519547,7.407123,5.7651525,1,1683969726.3598275
0.7183346,0.94164026,0.07433361,-1.2064588,-0.16249016,-3.7161987,2.8519547,7.407123,5.7651525,1,1683969726.3751342
0.7183346,0.94164026,0.07433361,-1.2064588,-0.16249016,-3.7161987,2.6318371,7.4413233,5.825483,1,1683969726.3802629
0.53869,0.6569896,0.059515666,-1.2064588,-0.16249016,-3.7161987,2.6318371,7.4413233,5.825483,1,1683969726.4108932
0.53869,0.6569896,0.059515666,-1.4030048,-0.3370449,-3.9982657,2.6318371,7.4413233,5.825483,1,1683969726.4160235
0.53869,0.6569896,0.059515666,-1.4030048,-0.3370449,-3.9982657,2.3989825,7.4663496,5.893609,1,1683969726.4211576
0.35520366,0.37386328,0.04469773,-1.4030048,-0.3370449,-3.9982657,2.3989825,7.4663496,5.893609,1,1683969726.436509
0.35520366,0.37386328,0.04469773,-1.7015651,-0.6401868,-4.3009496,2.3989825,7.4663496,5.893609,1,1683969726.4416375
0.35520366,0.37386328,0.04469773,-1.7015651,-0.6401868,-4.3009496,2.157901,7.4772353,5.97248,1,1683969726.4519
0.107506275,-0.017196124,0.080065645,-1.7015651,-0.6401868,-4.3009496,2.157901,7.4772353,5.97248,1,1683969726.4775133
0.107506275,-0.017196124,0.080065645,-1.7015651,-0.6401868,-4.3009496,1.7998055,7.450507,6.122642,1,1683969726.4826412
0.107506275,-0.017196124,0.080065645,-1.9595029,-0.93752545,-4.4755044,1.7998055,7.450507,6.122642,1,1683969726.4928412
-0.11951917,-0.34087354,0.24574605,-1.9595029,-0.93752545,-4.4755044,1.7998055,7.450507,6.122642,1,1683969726.5184073
-0.11951917,-0.34087354,0.24574605,-2.1916318,-1.2082914,-4.520708,1.7998055,7.450507,6.122642,1,1683969726.528653
-0.11951917,-0.34087354,0.24574605,-2.1916318,-1.2082914,-4.520708,1.5546334,7.387719,6.26425,1,1683969726.5337784
-0.11951917,-0.34087354,0.24574605,-2.2644775,-1.3420709,-4.3667703,1.5546334,7.387719,6.26425,1,1683969726.5542903
-0.11951917,-0.34087354,0.24574605,-2.2644775,-1.3420709,-4.3667703,1.3188591,7.302947,6.415894,1,1683969726.5594106
-0.3881324,-0.60491335,0.58332676,-2.2644775,-1.3420709,-4.3667703,1.3188591,7.302947,6.415894,1,1683969726.569671
-0.3881324,-0.60491335,0.58332676,-1.817935,-0.18142697,-3.873191,1.3188591,7.302947,6.415894,1,1683969726.5901327
0.16543648,0.28013828,0.21525647,-1.817935,-0.18142697,-3.873191,1.3188591,7.302947,6.415894,1,1683969726.5952468
0.16543648,0.28013828,0.21525647,-1.817935,-0.18142697,-3.873191,2.024456,7.053852,6.510058,1,1683969726.6003482
0.16543648,0.28013828,0.21525647,-1.817935,-0.18142697,-3.873191,1.7903675,7.007576,6.6275616,1,1683969726.620834
-0.050002918,0.010488417,0.32751912,-1.817935,-0.18142697,-3.873191,1.7903675,7.007576,6.6275616,1,1683969726.6259272
-0.050002918,0.010488417,0.32751912,-2.0421226,-0.22602014,-3.83883,1.7903675,7.007576,6.6275616,1,1683969726.6361842
-0.27446723,-0.2549539,0.53125054,-2.0421226,-0.22602014,-3.83883,1.7903675,7.007576,6.6275616,1,1683969726.6464484
-0.27446723,-0.2549539,0.53125054,-2.0421226,-0.22602014,-3.83883,1.5519071,6.92748,6.7703557,1,1683969726.651573
-0.27446723,-0.2549539,0.53125054,-2.2003367,-0.19960022,-3.6826012,1.5519071,6.92748,6.7703557,1,1683969726.661833
-0.667417,-0.620707,0.9226758,-2.2003367,-0.19960022,-3.6826012,1.5519071,6.92748,6.7703557,1,1683969726.6925457
-0.667417,-0.620707,0.9226758,-2.075262,-0.075594574,-3.312875,1.5519071,6.92748,6.7703557,1,1683969726.7078402
-0.667417,-0.620707,0.9226758,-2.075262,-0.075594574,-3.312875,1.2088176,6.7694135,6.9964213,1,1683969726.7129593
-0.667417,-0.620707,0.9226758,-2.075262,-0.075594574,-3.312875,0.9992357,6.656653,7.136287,1,1683969726.7385733
-0.9766424,-0.8347438,1.2076315,-2.075262,-0.075594574,-3.312875,0.9992357,6.656653,7.136287,1,1683969726.7437067
-0.9766424,-0.8347438,1.2076315,-1.7127135,0.05589417,-2.760042,0.9992357,6.656653,7.136287,1,1683969726.7487984
-0.9766424,-0.8347438,1.2076315,-1.7127135,0.05589417,-2.760042,0.7433833,6.5152693,7.296215,1,1683969726.7693274
-1.3437979,-1.0758555,1.4109969,-1.7127135,0.05589417,-2.760042,0.7433833,6.5152693,7.296215,1,1683969726.7744563
-1.3437979,-1.0758555,1.4109969,-0.94791013,0.29138273,-1.5502232,0.7433833,6.5152693,7.296215,1,1683969726.779588
-1.3437979,-1.0758555,1.4109969,-0.94791013,0.29138273,-1.5502232,0.6409122,6.4621606,7.352946,1,1683969726.7949624
-1.3437979,-1.0758555,1.4109969,-0.15332718,0.45723262,-0.0033597588,0.6409122,6.4621606,7.352946,1,1683969726.8000782
-1.5735065,-1.2332426,1.4109969,-0.15332718,0.45723262,-0.0033597588,0.6409122,6.4621606,7.352946,1,1683969726.8051922
-1.6551576,-1.2169613,1.3054421,-0.15332718,0.45723262,-0.0033597588,0.6409122,6.4621606,7.352946,1,1683969726.8308015
-1.6551576,-1.2169613,1.3054421,0.66675943,0.547488,1.9271271,0.6409122,6.4621606,7.352946,1,1683969726.8359344
-1.6551576,-1.2169613,1.3054421,0.66675943,0.547488,1.9271271,0.6216555,6.4520807,7.363445,1,1683969726.8461928
-1.5117345,-1.0218279,0.8888324,0.66675943,0.547488,1.9271271,0.6216555,6.4520807,7.363445,1,1683969726.8666716
-1.5117345,-1.0218279,0.8888324,0.66675943,0.547488,1.9271271,0.7314345,6.4326057,7.3703933,1,1683969726.8718102
-1.5117345,-1.0218279,0.8888324,0.81061816,0.98670006,1.5549575,0.7314345,6.4326057,7.3703933,1,1683969726.8769426
-1.5117345,-1.0218279,0.8888324,1.0535898,0.8237518,2.7209466,0.7314345,6.4326057,7.3703933,1,1683969726.8923202
-1.4356935,-0.92773706,0.7766917,1.0535898,0.8237518,2.7209466,0.7314345,6.4326057,7.3703933,1,1683969726.9025795
-1.4356935,-0.92773706,0.7766917,1.0535898,0.8237518,2.7209466,0.7388162,6.449151,7.355183,1,1683969726.9230952
-1.4356935,-0.92773706,0.7766917,1.0535898,0.8237518,2.7209466,0.9187024,6.5106277,7.280373,1,1683969726.9333577
-1.4356935,-0.92773706,0.7766917,1.3842206,0.45769078,4.4446554,0.9187024,6.5106277,7.280373,1,1683969726.9487522
-1.0637816,-0.66577053,0.5781435,1.3842206,0.45769078,4.4446554,0.9187024,6.5106277,7.280373,1,1683969726.9590158
-1.0637816,-0.66577053,0.5781435,1.565953,0.076358154,5.763819,0.9187024,6.5106277,7.280373,1,1683969726.9641464
-0.37898555,-0.29410252,0.37239978,1.565953,0.076358154,5.763819,0.9187024,6.5106277,7.280373,1,1683969726.9795318
-0.37898555,-0.29410252,0.37239978,1.565953,0.076358154,5.763819,1.1626375,6.5481534,7.211524,1,1683969726.9949198
-0.37898555,-0.29410252,0.37239978,1.565953,0.076358154,5.763819,1.4987811,6.564813,7.133933,1,1683969727.0051801
-0.37898555,-0.29410252,0.37239978,1.592373,-0.23884831,6.384,1.4987811,6.564813,7.133933,1,1683969727.0103116
0.32916555,0.13305654,0.22190319,1.592373,-0.23884831,6.384,1.4987811,6.564813,7.133933,1,1683969727.0154388
0.32916555,0.13305654,0.22190319,1.592373,-0.23884831,6.384,2.1303563,6.5610895,6.97494,1,1683969727.046215
0.32916555,0.13305654,0.22190319,1.4811954,-0.5655085,6.2702265,2.1303563,6.5610895,6.97494,1,1683969727.0513074
1.2531219,1.0387192,0.155131,1.4811954,-0.5655085,6.2702265,2.1303563,6.5610895,6.97494,1,1683969727.0667007
1.2531219,1.0387192,0.155131,1.2423472,-0.44073927,5.382639,2.1303563,6.5610895,6.97494,1,1683969727.0718317
1.7218688,1.665158,0.2680644,1.2423472,-0.44073927,5.382639,2.1303563,6.5610895,6.97494,1,1683969727.097447
1.7218688,1.665158,0.2680644,1.2423472,-0.44073927,5.382639,2.536621,6.527976,6.8692927,1,1683969727.1025794
1.7218688,1.665158,0.2680644,1.2423472,-0.44073927,5.382639,2.860919,6.4814916,6.78539,1,1683969727.1179643
1.7218688,1.665158,0.2680644,0.6275113,-0.008399397,3.6021197,2.860919,6.4814916,6.78539,1,1683969727.1230993
1.0020097,1.0251818,0.79583913,0.6275113,-0.008399397,3.6021197,2.860919,6.4814916,6.78539,1,1683969727.1487744
1.0020097,1.0251818,0.79583913,0.6275113,-0.008399397,3.6021197,2.6145477,5.3611245,7.788363,1,1683969727.1539047
1.0020097,1.0251818,0.79583913,-0.0693332,-0.61254513,4.6233335,2.6145477,5.3611245,7.788363,1,1683969727.1590471
1.0020097,1.0251818,0.79583913,-0.0693332,-0.61254513,4.6233335,2.750525,5.3047853,7.780101,1,1683969727.1795628
1.1025034,1.165007,0.8352927,-0.0693332,-0.61254513,4.6233335,2.750525,5.3047853,7.780101,1,1683969727.1847022
1.1025034,1.165007,0.8352927,-0.12461651,-0.34238997,4.1190643,2.750525,5.3047853,7.780101,1,1683969727.1898336
1.1925696,1.217632,0.63034165,-0.12461651,-0.34238997,4.1190643,2.750525,5.3047853,7.780101,1,1683969727.2051735
1.1925696,1.217632,0.63034165,-0.12461651,-0.34238997,4.1190643,3.0550544,5.1364665,7.779426,1,1683969727.21535
1.1925696,1.217632,0.63034165,-0.4998405,0.41493022,3.2826371,3.0550544,5.1364665,7.779426,1,1683969727.2357993
1.1925696,1.217632,0.63034165,-0.4998405,0.41493022,3.2826371,3.169354,5.008631,7.816964,1,1683969727.2512
1.1790322,1.1259193,0.46344167,-0.4998405,0.41493022,3.2826371,3.169354,5.008631,7.816964,1,1683969727.261454
1.1790322,1.1259193,0.46344167,-1.1780536,0.75869465,2.462245,3.169354,5.008631,7.816964,1,1683969727.2665875
1.1790322,1.1259193,0.46344167,-1.1780536,0.75869465,2.462245,3.2526605,4.773952,7.9287887,1,1683969727.2973604
1.0953687,1.0982348,0.6005229,-1.1780536,0.75869465,2.462245,3.2526605,4.773952,7.9287887,1,1683969727.302487
1.0953687,1.0982348,0.6005229,-1.840537,0.8695667,1.7027869,3.2526605,4.773952,7.9287887,1,1683969727.30758
1.0953687,1.0982348,0.6005229,-1.840537,0.8695667,1.7027869,3.2596278,4.5921035,8.032653,1,1683969727.3228679
0.9338349,1.0558543,0.76772773,-1.840537,0.8695667,1.7027869,3.2596278,4.5921035,8.032653,1,1683969727.333116
0.9338349,1.0558543,0.76772773,-2.1945333,1.0343475,1.237613,3.2596278,4.5921035,8.032653,1,1683969727.3433363
0.807913,1.0023146,0.88047814,-2.1945333,1.0343475,1.237613,3.2596278,4.5921035,8.032653,1,1683969727.3587272
0.807913,1.0023146,0.88047814,-2.1945333,1.0343475,1.237613,3.2315466,4.399501,8.150927,1,1683969727.3741057
0.807913,1.0023146,0.88047814,-2.3533583,1.1754575,0.91889405,3.2315466,4.399501,8.150927,1,1683969727.3791976
0.6911989,0.8823075,0.9624342,-2.3533583,1.1754575,0.91889405,3.2315466,4.399501,8.150927,1,1683969727.3945777
0.6911989,0.8823075,0.9624342,-2.3533583,1.1754575,0.91889405,3.1811507,4.20457,8.272725,1,1683969727.4048388
0.6911989,0.8823075,0.9624342,-2.3533583,1.1754575,0.91889405,2.5301404,3.7673728,8.6972065,1,1683969727.4150884
0.21153674,0.32940948,0.85700125,-2.3533583,1.1754575,0.91889405,2.5301404,3.7673728,8.6972065,1,1683969727.430424
0.21153674,0.32940948,0.85700125,0.17195857,0.2660318,-0.24694228,2.5301404,3.7673728,8.6972065,1,1683969727.4355536
0.21153674,0.32940948,0.85700125,0.07345655,0.38988474,-0.11148291,2.5301404,3.7673728,8.6972065,1,1683969727.4560764
0.21153674,0.32940948,0.85700125,0.07345655,0.38988474,-0.11148291,2.4692273,3.8032725,8.699089,1,1683969727.4765623
0.22915971,0.36038688,0.8449273,0.07345655,0.38988474,-0.11148291,2.4692273,3.8032725,8.699089,1,1683969727.4867733
0.22915971,0.36038688,0.8449273,0.037110064,0.4156938,-0.036193766,2.4692273,3.8032725,8.699089,1,1683969727.497041
0.24330688,0.38923004,0.7882777,0.037110064,0.4156938,-0.036193766,2.4692273,3.8032725,8.699089,1,1683969727.502146
0.2543441,0.41325584,0.7461411,0.037110064,0.4156938,-0.036193766,2.4692273,3.8032725,8.699089,1,1683969727.5380032
0.2543441,0.41325584,0.7461411,0.037415497,0.3052799,0.008246681,2.4692273,3.8032725,8.699089,1,1683969727.5431461
0.26032007,0.44661143,0.72668874,0.037415497,0.3052799,0.008246681,2.4692273,3.8032725,8.699089,1,1683969727.5636296
0.26032007,0.44661143,0.72668874,0.0786489,0.111941054,0.053297993,2.4692273,3.8032725,8.699089,1,1683969727.5790095
0.26032007,0.44661143,0.72668874,0.0786489,0.111941054,0.053297993,2.3931077,3.8166065,8.714508,1,1683969727.5892708
0.3088595,0.4749058,0.7535196,0.0786489,0.111941054,0.053297993,2.3931077,3.8166065,8.714508,1,1683969727.5995288
0.3088595,0.4749058,0.7535196,0.13683382,-0.032375857,0.08002335,2.3931077,3.8166065,8.714508,1,1683969727.6046631
0.3088595,0.4749058,0.7535196,0.13683382,-0.032375857,0.08002335,2.3860817,3.83264,8.709397,1,1683969727.6199899
0.3088595,0.4749058,0.7535196,0.17363845,-0.010079277,0.055588737,2.3860817,3.83264,8.709397,1,1683969727.6506526
0.3088595,0.4749058,0.7535196,0.17363845,-0.010079277,0.055588737,2.3946288,3.8459723,8.70117,1,1683969727.6608772
0.37239978,0.5376533,0.7968757,0.17363845,-0.010079277,0.055588737,2.3946288,3.8459723,8.70117,1,1683969727.6660075
0.3907545,0.5803387,0.8133401,0.17363845,-0.010079277,0.055588737,2.3946288,3.8459723,8.70117,1,1683969727.681403
