acc_x,acc_y,acc_z,gyr_x,gyr_y,gyr_z,grav_x,grav_y,grav_z,label,timestamp
-1.6388761,-0.9288347,1.0045708,2.121535,-1.0137309,1.667204,-0.2852772,7.3061466,6.540256,1,1683969780.5937402
-0.026343001,0.2321477,0.32038453,2.5245533,-1.3260357,4.7390924,0.6759645,7.744681,5.9832363,1,1683969780.6587162
-0.026343001,0.2321477,0.32038453,2.627026,-1.6401732,4.8765373,0.88187766,7.7965117,5.8883605,1,1683969780.6638267
0.4730154,0.6854668,0.19860914,2.627026,-1.6401732,4.8765373,0.88187766,7.7965117,5.8883605,1,1683969780.663835
2.063413,2.2731204,-0.15567982,3.063031,-2.768594,1.8174769,2.3022523,8.104931,5.0245233,1,1683969780.6690426
1.8494371,2.30672,-0.31678677,3.063031,-2.768594,1.8174769,2.3022523,8.104931,5.0245233,1,1683969780.6893978
1.8494371,2.30672,-0.31678677,2.415972,-2.2957842,0.37690386,2.3022523,8.104931,5.0245233,1,1683969780.6944711
1.8494371,2.30672,-0.31678677,2.415972,-2.2957842,0.37690386,2.6375685,8.249099,4.607788,1,1683969780.6995974
1.5106369,2.1882985,-0.5300309,2.415972,-2.2957842,0.37690386,2.6375685,8.249099,4.607788,1,1683969780.7098746
1.5106369,2.1882985,-0.5300309,1.5879441,-1.6218473,-0.47632217,2.6375685,8.249099,4.607788,1,1683969780.7252293
1.5106369,2.1882985,-0.5300309,1.5879441,-1.6218473,-0.47632217,2.7293005,8.335956,4.39305,1,1683969780.735483
1.5106369,2.1882985,-0.5300309,1.5879441,-1.6218473,-0.47632217,2.7365975,8.403459,4.257823,1,1683969780.7611306
1.1901304,2.004568,-0.8728558,1.5879441,-1.6218473,-0.47632217,2.7365975,8.403459,4.257823,1,1683969780.766294
1.1901304,2.004568,-0.8728558,0.6217081,-1.1969905,-1.0303769,2.7365975,8.403459,4.257823,1,1683969780.7714286
1.1901304,2.004568,-0.8728558,-0.6160576,-1.3988814,-1.5012014,2.7365975,8.403459,4.257823,1,1683969780.7816877
1.1901304,2.004568,-0.8728558,-0.6160576,-1.3988814,-1.5012014,2.6953828,8.444415,4.2027245,1,1683969780.802166
0.95109206,1.7487606,-1.1331148,-0.6160576,-1.3988814,-1.5012014,2.6953828,8.444415,4.2027245,1,1683969780.812393
0.87108743,1.4994777,-0.9861551,-0.6160576,-1.3988814,-1.5012014,2.6953828,8.444415,4.2027245,1,1683969780.8277762
0.87108743,1.4994777,-0.9861551,-1.5065464,-1.8480201,-1.8420641,2.6953828,8.444415,4.2027245,1,1683969780.838031
0.87108743,1.4994777,-0.9861551,-1.5065464,-1.8480201,-1.8420641,2.6348503,8.456606,4.216576,1,1683969780.8482893
0.87108743,1.4994777,-0.9861551,-1.5065464,-1.8480201,-1.8420641,2.5269206,8.424967,4.3440423,1,1683969780.8533807
0.87108743,1.4994777,-0.9861551,-2.431091,-2.2386684,-2.2736404,2.5269206,8.424967,4.3440423,1,1683969780.8687594
0.7461411,1.1054304,-0.46533203,-2.431091,-2.2386684,-2.2736404,2.5269206,8.424967,4.3440423,1,1683969780.884153
0.7461411,1.1054304,-0.46533203,-2.431091,-2.2386684,-2.2736404,2.4846368,8.402227,4.4119453,1,1683969780.894418
0.7461411,1.1054304,-0.46533203,-2.8900034,-2.251802,-2.5054638,2.4846368,8.402227,4.4119453,1,1683969780.9046752
0.63058555,0.8337072,-0.092932254,-2.8900034,-2.251802,-2.5054638,2.4846368,8.402227,4.4119453,1,1683969780.9098048
0.63058555,0.8337072,-0.092932254,-3.4005342,-1.9976821,-2.7475193,2.4846368,8.402227,4.4119453,1,1683969780.9302785
0.35867947,0.44215995,0.5321652,-3.4005342,-1.9976821,-2.7475193,2.4846368,8.402227,4.4119453,1,1683969780.9354057
0.35867947,0.44215995,0.5321652,-3.4005342,-1.9976821,-2.7475193,2.3860626,8.338776,4.5834107,1,1683969780.9507885
-0.0140252095,0.08427321,1.1808006,-3.4005342,-1.9976821,-2.7475193,2.3860626,8.338776,4.5834107,1,1683969780.961049
-0.0140252095,0.08427321,1.1808006,-3.4005342,-1.9976821,-2.7475193,2.2057471,8.2029,4.9074664,1,1683969780.9815218
-0.0140252095,0.08427321,1.1808006,-3.4519994,-1.6493362,-2.69697,2.2057471,8.2029,4.9074664,1,1683969780.9866138
-0.33782458,-0.2154394,1.6983308,-3.4519994,-1.6493362,-2.69697,2.2057471,8.2029,4.9074664,1,1683969781.0070615
-0.33782458,-0.2154394,1.6983308,-3.4519994,-1.6493362,-2.69697,2.0800407,8.0968485,5.1332836,1,1683969781.0121977
-0.33782458,-0.2154394,1.6983308,-3.0550897,-1.1246029,-2.4362833,2.0800407,8.0968485,5.1332836,1,1683969781.0275493
-0.33782458,-0.2154394,1.6983308,-2.1675026,-0.2695443,-1.8545868,2.0800407,8.0968485,5.1332836,1,1683969781.0378113
-0.7093707,-0.53850704,1.9784081,-2.1675026,-0.2695443,-1.8545868,2.0800407,8.0968485,5.1332836,1,1683969781.0531552
-0.7093707,-0.53850704,1.9784081,-2.1675026,-0.2695443,-1.8545868,1.8892584,7.95216,5.424939,1,1683969781.0634174
-0.9379206,-0.6771737,1.9507846,-2.1675026,-0.2695443,-1.8545868,1.8892584,7.95216,5.424939,1,1683969781.0685494
-0.9379206,-0.6771737,1.9507846,-1.2886202,0.16752979,-1.1087204,1.8892584,7.95216,5.424939,1,1683969781.0839298
-0.9379206,-0.6771737,1.9507846,-1.2886202,0.16752979,-1.1087204,1.7759501,7.8825803,5.5630074,1,1683969781.0890582
-0.9379206,-0.6771737,1.9507846,-0.3715588,0.3379612,-0.18936823,1.7759501,7.8825803,5.5630074,1,1683969781.1146603
-1.0877464,-0.71168786,1.887549,-0.3715588,0.3379612,-0.18936823,1.7759501,7.8825803,5.5630074,1,1683969781.1197908
-1.0877464,-0.71168786,1.887549,-0.3715588,0.3379612,-0.18936823,1.7038246,7.842795,5.6412463,1,1683969781.130053
-1.0877464,-0.71168786,1.887549,0.62125,0.6395759,1.1322387,1.7038246,7.842795,5.6412463,1,1683969781.1454391
-1.1452497,-0.64564747,1.7538828,0.62125,0.6395759,1.1322387,1.7038246,7.842795,5.6412463,1,1683969781.1556933
-1.1452497,-0.64564747,1.7538828,0.62125,0.6395759,1.1322387,1.6911353,7.833226,5.658333,1,1683969781.1658895
-1.1452497,-0.64564747,1.7538828,1.1951579,0.9297369,2.2649355,1.6911353,7.833226,5.658333,1,1683969781.1913693
-0.97487396,-0.5174692,1.504661,1.1951579,0.9297369,2.2649355,1.6911353,7.833226,5.658333,1,1683969781.1964984
-0.97487396,-0.5174692,1.504661,1.1951579,0.9297369,2.2649355,1.7413954,7.8454905,5.6260066,1,1683969781.2067592
-0.97487396,-0.5174692,1.504661,1.6203201,1.4069754,3.499647,1.7413954,7.8454905,5.6260066,1,1683969781.2118902
-0.97487396,-0.5174692,1.504661,1.6203201,1.4069754,3.499647,1.8576773,7.86641,5.559203,1,1683969781.227189
-0.41636577,-0.1484233,1.2202542,1.6203201,1.4069754,3.499647,1.8576773,7.86641,5.559203,1,1683969781.2374527
0.035550855,0.17281497,1.0215839,1.6203201,1.4069754,3.499647,1.8576773,7.86641,5.559203,1,1683969781.247706
0.035550855,0.17281497,1.0215839,1.6203201,1.4069754,3.499647,2.0274732,7.883306,5.4753036,1,1683969781.2579532
0.035550855,0.17281497,1.0215839,1.726458,1.7421877,3.9377902,2.0274732,7.883306,5.4753036,1,1683969781.268226
0.035550855,0.17281497,1.0215839,1.726458,1.7421877,3.9377902,2.32081,7.8897886,5.3480086,1,1683969781.2887592
0.79339993,0.85328156,0.5539957,1.726458,1.7421877,3.9377902,2.32081,7.8897886,5.3480086,1,1683969781.3041344
0.79339993,0.85328156,0.5539957,1.7082846,2.0454822,3.9887974,2.32081,7.8897886,5.3480086,1,1683969781.314394
0.79339993,0.85328156,0.5539957,1.7096591,1.7369953,3.265533,2.32081,7.8897886,5.3480086,1,1683969781.3195202
0.79339993,0.85328156,0.5539957,1.7096591,1.7369953,3.265533,2.5018156,7.888176,5.268179,1,1683969781.3246508
1.3605672,1.4826474,0.124641426,1.7096591,1.7369953,3.265533,2.5018156,7.888176,5.268179,1,1683969781.3349085
1.6208262,1.8230941,-0.21854934,1.7096591,1.7369953,3.265533,2.5018156,7.888176,5.268179,1,1683969781.3656616
1.6208262,1.8230941,-0.21854934,1.8138117,1.054048,2.3533583,2.5018156,7.888176,5.268179,1,1683969781.370788
1.6208262,1.8230941,-0.21854934,1.8138117,1.054048,2.3533583,2.653326,7.8964605,5.1809163,1,1683969781.386139
1.6716218,2.0676818,-0.5510687,1.8138117,1.054048,2.3533583,2.653326,7.8964605,5.1809163,1,1683969781.4065568
1.6716218,2.0676818,-0.5510687,1.9914207,-0.33337972,1.0494665,2.653326,7.8964605,5.1809163,1,1683969781.4168167
1.6716218,2.0676818,-0.5510687,1.9914207,-0.33337972,1.0494665,2.774388,7.927376,5.069082,1,1683969781.4219475
1.5379556,2.1328075,-0.74864125,1.9914207,-0.33337972,1.0494665,2.774388,7.927376,5.069082,1,1683969781.4373324
1.5379556,2.1328075,-0.74864125,2.1056526,-1.6021469,0.0693332,2.774388,7.927376,5.069082,1,1683969781.4424622
1.5379556,2.1328075,-0.74864125,2.1056526,-1.6021469,0.0693332,2.9136546,8.027422,4.8277564,1,1683969781.447593
1.5379556,2.1328075,-0.74864125,2.1299343,-3.1688635,-0.9428705,2.9136546,8.027422,4.8277564,1,1683969781.4629848
1.2760501,2.0270085,-0.87627065,2.1299343,-3.1688635,-0.9428705,2.9136546,8.027422,4.8277564,1,1683969781.4886174
1.2760501,2.0270085,-0.87627065,2.1299343,-3.1688635,-0.9428705,2.987145,8.126462,4.6123414,1,1683969781.4937086
1.2760501,2.0270085,-0.87627065,2.1299343,-3.1688635,-0.9428705,3.0490868,8.2417145,4.3604274,1,1683969781.519305
1.1039059,1.8651698,-0.930603,2.1299343,-3.1688635,-0.9428705,3.0490868,8.2417145,4.3604274,1,1683969781.524433
1.1039059,1.8651698,-0.930603,2.0002782,-4.3237042,-1.5297593,3.0490868,8.2417145,4.3604274,1,1683969781.5295684
0.95615333,1.6567429,-0.80157113,2.0002782,-4.3237042,-1.5297593,3.0490868,8.2417145,4.3604274,1,1683969781.5449536
0.95615333,1.6567429,-0.80157113,2.0002782,-4.3237042,-1.5297593,3.1018965,8.362995,4.0834627,1,1683969781.5551972
0.95615333,1.6567429,-0.80157113,1.7232509,-5.215262,-1.9601139,3.1018965,8.362995,4.0834627,1,1683969781.560328
0.95615333,1.6567429,-0.80157113,1.7232509,-5.215262,-1.9601139,3.149386,8.536725,3.6663096,1,1683969781.5705874
0.95615333,1.6567429,-0.80157113,1.148274,-5.706245,-2.3599253,3.149386,8.536725,3.6663096,1,1683969781.585987
0.8303533,1.3598964,-0.5371655,1.148274,-5.706245,-2.3599253,3.149386,8.536725,3.6663096,1,1683969781.591125
0.7487022,1.1373224,-0.3699606,1.148274,-5.706245,-2.3599253,3.149386,8.536725,3.6663096,1,1683969781.606511
0.7487022,1.1373224,-0.3699606,0.52015173,-5.6778398,-2.6125178,3.149386,8.536725,3.6663096,1,1683969781.611641
0.7487022,1.1373224,-0.3699606,0.52015173,-5.6778398,-2.6125178,3.150978,8.589297,3.539977,1,1683969781.6218987
0.5914369,0.7782771,-0.015000875,0.52015173,-5.6778398,-2.6125178,3.150978,8.589297,3.539977,1,1683969781.6526737
0.5914369,0.7782771,-0.015000875,0.52015173,-5.6778398,-2.6125178,3.128298,8.682805,3.325473,1,1683969781.6578012
0.5914369,0.7782771,-0.015000875,-0.183565,-5.4027977,-2.7605,3.128298,8.682805,3.325473,1,1683969781.6731927
0.5914369,0.7782771,-0.015000875,-1.0758864,-4.7516155,-2.744312,3.128298,8.682805,3.325473,1,1683969781.6834657
0.5914369,0.7782771,-0.015000875,-1.0758864,-4.7516155,-2.744312,3.0381234,8.787369,3.1285868,1,1683969781.6885743
0.37038746,0.4267322,0.42624438,-1.0758864,-4.7516155,-2.744312,3.0381234,8.787369,3.1285868,1,1683969781.7089987
0.12848312,0.13750802,0.8440126,-1.0758864,-4.7516155,-2.744312,3.0381234,8.787369,3.1285868,1,1683969781.7141323
0.12848312,0.13750802,0.8440126,-1.8115209,-3.9767327,-2.4923303,3.0381234,8.787369,3.1285868,1,1683969781.7191842
0.12848312,0.13750802,0.8440126,-1.8115209,-3.9767327,-2.4923303,2.9538555,8.827192,3.0970178,1,1683969781.7345765
0.12848312,0.13750802,0.8440126,-2.526386,-2.7053695,-1.8107573,2.9538555,8.827192,3.0970178,1,1683969781.7550483
0.12848312,0.13750802,0.8440126,-2.526386,-2.7053695,-1.8107573,2.8290496,8.828401,3.2081032,1,1683969781.7601857
-0.19714566,-0.16311927,1.6225337,-2.526386,-2.7053695,-1.8107573,2.8290496,8.828401,3.2081032,1,1683969781.7807052
-0.19714566,-0.16311927,1.6225337,-2.5831964,-1.3779593,-1.0147998,2.8290496,8.828401,3.2081032,1,1683969781.8063195
-0.19714566,-0.16311927,1.6225337,-2.5831964,-1.3779593,-1.0147998,2.770912,8.788808,3.3637817,1,1683969781.8114421
-0.4408184,-0.32605562,2.1629312,-2.5831964,-1.3779593,-1.0147998,2.770912,8.788808,3.3637817,1,1683969781.8165762
-0.4408184,-0.32605562,2.1629312,-2.1340578,-0.071013086,-0.16447547,2.770912,8.788808,3.3637817,1,1683969781.826831
-0.55558115,-0.3529474,2.3981278,-2.1340578,-0.071013086,-0.16447547,2.770912,8.788808,3.3637817,1,1683969781.837117
-0.55558115,-0.3529474,2.3981278,-2.1340578,-0.071013086,-0.16447547,2.751924,8.760089,3.4530933,1,1683969781.852463
-0.55558115,-0.3529474,2.3981278,-1.0453432,0.89827734,0.92149025,2.751924,8.760089,3.4530933,1,1683969781.8729854
-0.55558115,-0.3529474,2.3981278,-1.0453432,0.89827734,0.92149025,2.7394204,8.660725,3.7045305,1,1683969781.8781118
-0.5378972,-0.2528806,2.2517169,-1.0453432,0.89827734,0.92149025,2.7394204,8.660725,3.7045305,1,1683969781.8831985
-0.5378972,-0.2528806,2.2517169,0.08552113,1.0033462,1.6691893,2.7394204,8.660725,3.7045305,1,1683969781.9037209
-0.38508344,-0.094517715,1.9485893,0.08552113,1.0033462,1.6691893,2.7394204,8.660725,3.7045305,1,1683969781.9139817
-0.38508344,-0.094517715,1.9485893,0.08552113,1.0033462,1.6691893,2.784151,8.601625,3.8074474,1,1683969781.9191213
-0.38508344,-0.094517715,1.9485893,0.08552113,1.0033462,1.6691893,3.5037413,8.749682,2.7208364,1,1683969781.9242527
0.56924057,1.229401,-1.1479938,0.08552113,1.0033462,1.6691893,3.5037413,8.749682,2.7208364,1,1683969781.9345176
0.56924057,1.229401,-1.1479938,-2.4249823,-1.2544118,-1.4366024,3.5037413,8.749682,2.7208364,1,1683969781.9498641
0.48027194,1.0124981,-0.76150787,-2.4249823,-1.2544118,-1.4366024,3.5037413,8.749682,2.7208364,1,1683969781.970381
0.48027194,1.0124981,-0.76150787,-2.4249823,-1.2544118,-1.4366024,3.4208417,8.72697,2.8937767,1,1683969781.9806378
0.48027194,1.0124981,-0.76150787,-3.396716,-1.1751521,-1.4986051,3.4208417,8.72697,2.8937767,1,1683969781.9857666
0.35837457,0.6716855,-0.82864594,-3.396716,-1.1751521,-1.4986051,3.4208417,8.72697,2.8937767,1,1683969782.0062354
0.35837457,0.6716855,-0.82864594,-3.396716,-1.1751521,-1.4986051,3.3767219,8.704656,3.0104554,1,1683969782.0113273
0.35837457,0.6716855,-0.82864594,-4.2308526,-1.1450669,-1.5741998,3.3767219,8.704656,3.0104554,1,1683969782.0215936
0.35837457,0.6716855,-0.82864594,-5.1379876,-1.8865047,-1.6136005,3.3767219,8.704656,3.0104554,1,1683969782.047179
0.3351415,0.3146525,-0.44526988,-5.1379876,-1.8865047,-1.6136005,3.3767219,8.704656,3.0104554,1,1683969782.0523088
0.3351415,0.3146525,-0.44526988,-5.1379876,-1.8865047,-1.6136005,3.250558,8.588779,3.4500527,1,1683969782.057434
0.3351415,0.3146525,-0.44526988,-5.3985214,-2.9237537,-1.6954565,3.250558,8.588779,3.4500527,1,1683969782.0831063
0.35636225,-0.014330104,0.37892455,-5.3985214,-2.9237537,-1.6954565,3.250558,8.588779,3.4500527,1,1683969782.0882485
0.35636225,-0.014330104,0.37892455,-5.3985214,-2.9237537,-1.6954565,3.19602,8.465938,3.7880733,1,1683969782.093381
0.35636225,-0.014330104,0.37892455,-4.776508,-4.311029,-1.3900238,3.19602,8.465938,3.7880733,1,1683969782.119004
0.35636225,-0.014330104,0.37892455,-4.776508,-4.311029,-1.3900238,3.2012792,8.2408085,4.2517085,1,1683969782.1292892
0.22812307,-0.22434235,1.7587613,-4.776508,-4.311029,-1.3900238,3.2012792,8.2408085,4.2517085,1,1683969782.134421
0.19946286,-0.22001283,2.8137617,-4.776508,-4.311029,-1.3900238,3.2012792,8.2408085,4.2517085,1,1683969782.1446776
0.19946286,-0.22001283,2.8137617,-3.3449454,-4.226577,-1.1554517,3.2012792,8.2408085,4.2517085,1,1683969782.1498091
0.19946286,-0.22001283,2.8137617,-3.3449454,-4.226577,-1.1554517,3.2751274,8.10417,4.453323,1,1683969782.1549406
0.19946286,-0.22001283,2.8137617,-1.4020884,-3.6007452,-0.7449502,3.2751274,8.10417,4.453323,1,1683969782.1857278
0.19946286,-0.22001283,2.8137617,-1.4020884,-3.6007452,-0.7449502,3.362555,8.021934,4.536289,1,1683969782.1959355
0.19946286,-0.22001283,2.8137617,1.1244502,-3.3893857,-1.9515617,3.362555,8.021934,4.536289,1,1683969782.20619
0.19946286,-0.22001283,2.8137617,1.1244502,-3.3893857,-1.9515617,3.1948822,9.243542,0.76536024,1,1683969782.2112868
-0.37081432,0.749312,-0.6601605,1.1244502,-3.3893857,-1.9515617,3.1948822,9.243542,0.76536024,1,1683969782.221544
-0.6594897,0.3494716,-0.62832934,1.1244502,-3.3893857,-1.9515617,3.1948822,9.243542,0.76536024,1,1683969782.247081
-0.6594897,0.3494716,-0.62832934,-0.81199265,-1.6881261,-0.9995282,3.1948822,9.243542,0.76536024,1,1683969782.2623959
-0.6594897,0.3494716,-0.62832934,-0.81199265,-1.6881261,-0.9995282,2.9798372,9.332686,0.50760674,1,1683969782.2675247
-0.68674743,0.21586627,-0.5017976,-0.81199265,-1.6881261,-0.9995282,2.9798372,9.332686,0.50760674,1,1683969782.29318
-0.68674743,0.21586627,-0.5017976,-0.81199265,-1.6881261,-0.9995282,2.9228544,9.345003,0.60328823,1,1683969782.303444
-0.68674743,0.21586627,-0.5017976,-3.3130276,0.8153524,0.28084528,2.9228544,9.345003,0.60328823,1,1683969782.3085701
-0.68674743,0.21586627,-0.5017976,-4.596608,1.9961549,0.90102625,2.9228544,9.345003,0.60328823,1,1683969782.3188384
-0.56411827,0.20330454,-0.22019579,-4.596608,1.9961549,0.90102625,2.9228544,9.345003,0.60328823,1,1683969782.3291016
-0.56411827,0.20330454,-0.22019579,-4.596608,1.9961549,0.90102625,2.9368987,9.315002,0.91732585,1,1683969782.3393378
-0.37886357,0.08128523,0.22769623,-4.596608,1.9961549,0.90102625,2.9368987,9.315002,0.91732585,1,1683969782.349593
-0.37886357,0.08128523,0.22769623,-6.1537037,3.2146783,1.6572775,2.9368987,9.315002,0.91732585,1,1683969782.3649397
-0.37886357,0.08128523,0.22769623,-6.1537037,3.2146783,1.6572775,2.9966865,9.234354,1.4080786,1,1683969782.3751774
-0.37886357,0.08128523,0.22769623,-6.8236704,3.4596353,2.2208006,2.9966865,9.234354,1.4080786,1,1683969782.3956485
-0.266357,-0.014086187,0.8469397,-6.8236704,3.4596353,2.2208006,2.9966865,9.234354,1.4080786,1,1683969782.4007776
-0.266357,-0.014086187,0.8469397,-6.8236704,3.4596353,2.2208006,3.1276336,8.996055,2.3505392,1,1683969782.4161637
-0.266357,-0.014086187,0.8469397,-6.722114,2.9243646,2.6265678,3.1276336,8.996055,2.3505392,1,1683969782.426381
-0.266357,-0.014086187,0.8469397,-6.722114,2.9243646,2.6265678,3.236378,8.759368,3.0058987,1,1683969782.4366348
-0.1475086,-0.0939689,1.4628292,-6.722114,2.9243646,2.6265678,3.236378,8.759368,3.0058987,1,1683969782.4417658
0.05067369,-0.053844605,2.3664796,-6.722114,2.9243646,2.6265678,3.236378,8.759368,3.0058987,1,1683969782.4724982
0.05067369,-0.053844605,2.3664796,-6.722114,2.9243646,2.6265678,3.3626769,8.480543,3.6067863,1,1683969782.477627
0.05067369,-0.053844605,2.3664796,-5.7538924,2.9588785,2.902679,3.3626769,8.480543,3.6067863,1,1683969782.4827592
0.05067369,-0.053844605,2.3664796,-5.7538924,2.9588785,2.902679,4.054632,8.506263,2.7275538,1,1683969782.5032153
0.9097482,0.72394466,0.90456504,-5.7538924,2.9588785,2.902679,4.054632,8.506263,2.7275538,1,1683969782.5083435
0.9097482,0.72394466,0.90456504,1.3564262,6.179818,2.6994135,4.054632,8.506263,2.7275538,1,1683969782.5134733
0.97950834,0.85212296,0.49356538,1.3564262,6.179818,2.6994135,4.054632,8.506263,2.7275538,1,1683969782.5288613
0.97950834,0.85212296,0.49356538,1.03786,6.825961,2.5286767,4.054632,8.506263,2.7275538,1,1683969782.5390782
0.97950834,0.85212296,0.49356538,1.03786,6.825961,2.5286767,4.081594,8.471789,2.793833,1,1683969782.5544658
1.0373167,1.0870147,-0.31154257,1.03786,6.825961,2.5286767,4.081594,8.471789,2.793833,1,1683969782.5596025
1.0373167,1.0870147,-0.31154257,0.90316427,6.5219026,2.2634084,4.081594,8.471789,2.793833,1,1683969782.569864
1.0373167,1.0870147,-0.31154257,0.90316427,6.5219026,2.2634084,4.1068873,8.371791,3.0467567,1,1683969782.590374
1.0373167,1.0870147,-0.31154257,0.93386024,4.759251,1.6681203,4.1068873,8.371791,3.0467567,1,1683969782.6006296
1.1111623,1.4279492,-1.2305597,0.93386024,4.759251,1.6681203,4.1068873,8.371791,3.0467567,1,1683969782.6160164
1.1111623,1.4279492,-1.2305597,0.93386024,4.759251,1.6681203,4.0977707,8.319287,3.1990411,1,1683969782.6211479
1.1283585,1.6610725,-1.8552911,0.93386024,4.759251,1.6681203,4.0977707,8.319287,3.1990411,1,1683969782.641626
1.1283585,1.6610725,-1.8552911,0.93386024,4.759251,1.6681203,4.0862646,8.287624,3.2945168,1,1683969782.6467576
1.1283585,1.6610725,-1.8552911,0.9831876,1.6433803,0.6427829,4.0862646,8.287624,3.2945168,1,1683969782.6518838
1.0790263,1.6907084,-1.9127945,0.9831876,1.6433803,0.6427829,4.0862646,8.287624,3.2945168,1,1683969782.6723285
1.0790263,1.6907084,-1.9127945,0.9831876,1.6433803,0.6427829,4.0898833,8.308194,3.2377279,1,1683969782.6927931
1.0790263,1.6907084,-1.9127945,0.93416566,-1.0360274,-0.37064248,4.0898833,8.308194,3.2377279,1,1683969782.6979215
1.0790263,1.6907084,-1.9127945,0.93416566,-1.0360274,-0.37064248,4.091989,8.363261,3.0899215,1,1683969782.703056
0.90377223,1.5085636,-1.4915504,0.93416566,-1.0360274,-0.37064248,4.091989,8.363261,3.0899215,1,1683969782.7235823
0.90377223,1.5085636,-1.4915504,0.90026265,-3.6728272,-1.4549283,4.091989,8.363261,3.0899215,1,1683969782.7287211
0.90377223,1.5085636,-1.4915504,0.90224797,-4.9872565,-1.9792033,4.091989,8.363261,3.0899215,1,1683969782.7441103
0.90377223,1.5085636,-1.4915504,0.90224797,-4.9872565,-1.9792033,4.0822015,8.445862,2.870397,1,1683969782.754371
0.90377223,1.5085636,-1.4915504,-1.9712621,1.628414,1.7423404,4.0822015,8.445862,2.870397,1,1683969782.7748916
0.90377223,1.5085636,-1.4915504,-1.9712621,1.628414,1.7423404,2.5741298,9.451827,-0.52246803,1,1683969782.7851107
-1.0778068,-0.06104015,1.241414,-1.9712621,1.628414,1.7423404,2.5741298,9.451827,-0.52246803,1,1683969782.7953303
-1.0778068,-0.06104015,1.241414,-1.9712621,1.628414,1.7423404,2.7723305,9.407868,-0.2057074,1,1683969782.8055906
-0.49746805,0.19013305,0.8804172,-1.9712621,1.628414,1.7423404,2.7723305,9.407868,-0.2057074,1,1683969782.8209844
-0.49746805,0.19013305,0.8804172,-3.9301543,5.8581977,3.235906,2.7723305,9.407868,-0.2057074,1,1683969782.8312023
-0.07408969,0.30251765,0.8617576,-3.9301543,5.8581977,3.235906,2.7723305,9.407868,-0.2057074,1,1683969782.8363354
-0.07408969,0.30251765,0.8617576,-5.7939043,8.615186,4.3172903,2.7723305,9.407868,-0.2057074,1,1683969782.841466
-0.07408969,0.30251765,0.8617576,-5.7939043,8.615186,4.3172903,3.0662158,9.311215,0.36838806,1,1683969782.8517294
-0.07408969,0.30251765,0.8617576,-5.7939043,8.615186,4.3172903,3.5049663,9.030715,1.5483948,1,1683969782.8875868
0.18263261,0.34197116,0.86992884,-5.7939043,8.615186,4.3172903,3.5049663,9.030715,1.5483948,1,1683969782.8927171
0.18263261,0.34197116,0.86992884,-6.679659,9.830502,4.8127017,3.5049663,9.030715,1.5483948,1,1683969782.9029763
0.18263261,0.34197116,0.86992884,-6.784575,9.696569,4.9933653,3.5049663,9.030715,1.5483948,1,1683969782.9132357
0.18263261,0.34197116,0.86992884,-6.784575,9.696569,4.9933653,3.7229397,8.74508,2.4288726,1,1683969782.9337552
0.34441036,0.48374772,0.87919766,-6.784575,9.696569,4.9933653,3.7229397,8.74508,2.4288726,1,1683969782.9388885
0.34441036,0.48374772,0.87919766,-6.784575,9.696569,4.9933653,3.868291,8.398342,3.2772388,1,1683969782.9593616
0.34441036,0.48374772,0.87919766,-5.911343,8.670468,4.8751626,3.868291,8.398342,3.2772388,1,1683969782.9644928
0.729006,0.7391895,0.7422384,-5.911343,8.670468,4.8751626,3.868291,8.398342,3.2772388,1,1683969782.9747567
1.1196995,1.001156,0.40386504,-5.911343,8.670468,4.8751626,3.868291,8.398342,3.2772388,1,1683969783.0003686
1.1196995,1.001156,0.40386504,-4.2491784,6.5090747,3.9043453,3.868291,8.398342,3.2772388,1,1683969783.005506
1.1196995,1.001156,0.40386504,-4.2491784,6.5090747,3.9043453,3.9483323,8.033495,4.013696,1,1683969783.010601
1.1196995,1.001156,0.40386504,-4.2491784,6.5090747,3.9043453,3.9772358,7.712423,4.5756154,1,1683969783.0309691
1.431669,1.2800747,0.0190255,-4.2491784,6.5090747,3.9043453,3.9772358,7.712423,4.5756154,1,1683969783.0412283
0.78492385,1.0104858,0.88858837,-4.2491784,6.5090747,3.9043453,3.9772358,7.712423,4.5756154,1,1683969783.0463626
0.78492385,1.0104858,0.88858837,-4.2491784,6.5090747,3.9043453,4.4753966,7.9634457,3.57638,1,1683969783.0617385
0.78492385,1.0104858,0.88858837,5.349194,-6.6804223,-3.0706668,4.4753966,7.9634457,3.57638,1,1683969783.0719926
0.5124079,0.83791476,0.643879,5.349194,-6.6804223,-3.0706668,4.4753966,7.9634457,3.57638,1,1683969783.092466
0.5124079,0.83791476,0.643879,5.349194,-6.6804223,-3.0706668,4.439942,8.25095,2.9060054,1,1683969783.1078563
0.5124079,0.83791476,0.643879,5.7554197,-6.3647575,-3.2163582,4.439942,8.25095,2.9060054,1,1683969783.1129525
0.5124079,0.83791476,0.643879,5.7554197,-6.3647575,-3.2163582,4.3981323,8.385977,2.562801,1,1683969783.1231227
0.35343525,0.75156826,0.57253337,5.7554197,-6.3647575,-3.2163582,4.3981323,8.385977,2.562801,1,1683969783.1333098
0.35343525,0.75156826,0.57253337,5.640577,-5.9118013,-2.9752192,4.3981323,8.385977,2.562801,1,1683969783.1486928
0.35343525,0.75156826,0.57253337,5.640577,-5.9118013,-2.9752192,4.2228203,8.711323,1.5864309,1,1683969783.1743283
0.35343525,0.75156826,0.57253337,4.980537,-4.792696,-2.119397,4.2228203,8.711323,1.5864309,1,1683969783.1794522
-0.17458336,0.5488735,0.46441734,4.980537,-4.792696,-2.119397,4.2228203,8.711323,1.5864309,1,1683969783.184587
-0.17458336,0.5488735,0.46441734,4.980537,-4.792696,-2.119397,4.128862,8.833855,1.0731366,1,1683969783.1896973
-0.17458336,0.5488735,0.46441734,3.007595,-2.4220808,-0.4266894,4.128862,8.833855,1.0731366,1,1683969783.205094
-0.45819747,0.3527035,0.25940537,3.007595,-2.4220808,-0.4266894,4.128862,8.833855,1.0731366,1,1683969783.2153265
-0.45819747,0.3527035,0.25940537,3.007595,-2.4220808,-0.4266894,4.112796,8.872073,0.7793193,1,1683969783.225507
-0.3943523,0.22623271,0.63979346,3.007595,-2.4220808,-0.4266894,4.112796,8.872073,0.7793193,1,1683969783.240861
-0.3943523,0.22623271,0.63979346,0.17073683,1.6108516,1.4410311,4.112796,8.872073,0.7793193,1,1683969783.2459524
-0.3943523,0.22623271,0.63979346,-1.8232801,5.5746036,2.4769058,4.112796,8.872073,0.7793193,1,1683969783.2664604
-0.3943523,0.22623271,0.63979346,-1.8232801,5.5746036,2.4769058,4.2603474,8.789367,0.91246974,1,1683969783.2818503
0.04750277,0.4131339,0.3852054,-1.8232801,5.5746036,2.4769058,4.2603474,8.789367,0.91246974,1,1683969783.286981
0.04750277,0.4131339,0.3852054,-4.120897,8.527526,3.0914364,4.2603474,8.789367,0.91246974,1,1683969783.2972383
0.4003892,0.7391285,-0.11238461,-4.120897,8.527526,3.0914364,4.2603474,8.789367,0.91246974,1,1683969783.3074949
0.4003892,0.7391285,-0.11238461,-4.120897,8.527526,3.0914364,4.4039507,8.658664,1.3670651,1,1683969783.312625
0.54612947,0.8414515,-0.15635058,-4.120897,8.527526,3.0914364,4.4039507,8.658664,1.3670651,1,1683969783.317716
0.54612947,0.8414515,-0.15635058,-4.322177,7.735234,2.4645357,4.4039507,8.658664,1.3670651,1,1683969783.3381295
0.54612947,0.8414515,-0.15635058,-4.322177,7.735234,2.4645357,4.6703005,8.394673,1.9884375,1,1683969783.3431833
0.64253753,0.92913955,-0.3100181,-4.322177,7.735234,2.4645357,4.6703005,8.394673,1.9884375,1,1683969783.3534532
0.64253753,0.92913955,-0.3100181,-5.616753,8.379086,2.3761132,4.6703005,8.394673,1.9884375,1,1683969783.3637173
0.64253753,0.92913955,-0.3100181,-5.616753,8.379086,2.3761132,4.6936536,8.197481,2.647081,1,1683969783.3739643
0.64253753,0.92913955,-0.3100181,-6.504493,7.4194164,1.7412714,4.6936536,8.197481,2.647081,1,1683969783.3893113
0.64253753,0.92913955,-0.3100181,-6.504493,7.4194164,1.7412714,4.6391425,7.9443316,3.4061823,1,1683969783.3944411
0.71845657,0.9370059,-0.44953844,-6.504493,7.4194164,1.7412714,4.6391425,7.9443316,3.4061823,1,1683969783.4200373
0.71845657,0.9370059,-0.44953844,-6.504493,7.4194164,1.7412714,4.434929,7.497484,4.511679,1,1683969783.4403813
0.719981,0.9468845,-0.4001453,-6.504493,7.4194164,1.7412714,4.434929,7.497484,4.511679,1,1683969783.445461
0.719981,0.9468845,-0.4001453,-6.449057,5.2829156,0.925919,4.434929,7.497484,4.511679,1,1683969783.4556584
0.78900945,0.8990769,0.15433827,-6.449057,5.2829156,0.925919,4.434929,7.497484,4.511679,1,1683969783.4607906
0.78900945,0.8990769,0.15433827,-6.449057,5.2829156,0.925919,4.3013296,7.206044,5.080117,1,1683969783.4710102
0.78900945,0.8990769,0.15433827,-5.07461,1.0283916,-0.11209377,4.3013296,7.206044,5.080117,1,1683969783.4761415
0.94389653,0.9338349,0.97926444,-5.07461,1.0283916,-0.11209377,4.3013296,7.206044,5.080117,1,1683969783.501784
0.94389653,0.9338349,0.97926444,-2.6439774,-1.9197967,-0.99173975,4.3013296,7.206044,5.080117,1,1683969783.5120475
0.94389653,0.9338349,0.97926444,-2.6439774,-1.9197967,-0.99173975,4.2567606,6.9822855,5.4188366,1,1683969783.5171764
0.94389653,0.9338349,0.97926444,0.3567453,-4.26613,-1.7076738,4.2567606,6.9822855,5.4188366,1,1683969783.537584
0.8887104,0.93950605,1.3242236,0.3567453,-4.26613,-1.7076738,4.2567606,6.9822855,5.4188366,1,1683969783.547829
0.8887104,0.93950605,1.3242236,0.3567453,-4.26613,-1.7076738,4.2972226,6.9048157,5.485755,1,1683969783.552959
0.8887104,0.93950605,1.3242236,1.7362317,-5.1793737,-1.9382755,4.2972226,6.9048157,5.485755,1,1683969783.5734398
0.82730436,0.92663944,1.419778,1.7362317,-5.1793737,-1.9382755,4.2972226,6.9048157,5.485755,1,1683969783.583696
0.82730436,0.92663944,1.419778,1.7362317,-5.1793737,-1.9382755,4.343818,6.9320135,5.4142914,1,1683969783.5888293
0.82730436,0.92663944,1.419778,1.7362317,-5.1793737,-1.9382755,4.5650597,8.633243,0.9292296,1,1683969783.5990858
0.1835473,0.49100426,0.16543648,1.7362317,-5.1793737,-1.9382755,4.5650597,8.633243,0.9292296,1,1683969783.6093466
0.1835473,0.49100426,0.16543648,-2.0662518,5.794362,2.357329,4.5650597,8.633243,0.9292296,1,1683969783.6144807
0.5222866,0.7949854,-0.26824737,-2.0662518,5.794362,2.357329,4.5650597,8.633243,0.9292296,1,1683969783.6349394
0.5222866,0.7949854,-0.26824737,-2.0662518,5.794362,2.357329,4.688814,8.510183,1.3520032,1,1683969783.6400728
0.5222866,0.7949854,-0.26824737,-4.418541,8.371603,2.7317894,4.688814,8.510183,1.3520032,1,1683969783.6554494
0.5222866,0.7949854,-0.26824737,-4.418541,8.371603,2.7317894,4.790681,8.219632,2.3923101,1,1683969783.6810951
0.6507697,0.89974767,-0.6343053,-4.418541,8.371603,2.7317894,4.790681,8.219632,2.3923101,1,1683969783.6862297
0.6507697,0.89974767,-0.6343053,-5.9406643,8.866556,2.6939158,4.790681,8.219632,2.3923101,1,1683969783.6913397
0.79919297,0.99036264,-0.819621,-5.9406643,8.866556,2.6939158,4.790681,8.219632,2.3923101,1,1683969783.706735
0.79919297,0.99036264,-0.819621,-6.958824,7.431634,1.9960022,4.790681,8.219632,2.3923101,1,1683969783.716997
0.79919297,0.99036264,-0.819621,-6.958824,7.431634,1.9960022,4.762245,7.950501,3.2166255,1,1683969783.7221255
0.79919297,0.99036264,-0.819621,-6.771136,4.7245846,0.99021256,4.762245,7.950501,3.2166255,1,1683969783.7475634
0.8786488,1.0218279,-0.63765913,-6.771136,4.7245846,0.99021256,4.762245,7.950501,3.2166255,1,1683969783.7526839
0.8786488,1.0218279,-0.63765913,-6.771136,4.7245846,0.99021256,4.6669464,7.6452937,4.00065,1,1683969783.7629085
0.8786488,1.0218279,-0.63765913,-6.771136,4.7245846,0.99021256,4.5640783,7.3501987,4.6238375,1,1683969783.7783105
0.8786488,1.0218279,-0.63765913,-4.957477,0.061239243,-0.2750421,4.5640783,7.3501987,4.6238375,1,1683969783.7885509
1.0134128,1.0658549,0.31739658,-4.957477,0.061239243,-0.2750421,4.5640783,7.3501987,4.6238375,1,1683969783.7936893
1.0134128,1.0658549,0.31739658,-2.126269,-2.563496,-1.2017246,4.5640783,7.3501987,4.6238375,1,1683969783.8141599
1.0400606,1.0984787,1.4065455,-2.126269,-2.563496,-1.2017246,4.5640783,7.3501987,4.6238375,1,1683969783.8192582
1.0400606,1.0984787,1.4065455,-2.126269,-2.563496,-1.2017246,4.5422015,7.0650434,5.068498,1,1683969783.8345659
0.9371279,1.0422559,1.688879,-2.126269,-2.563496,-1.2017246,4.5422015,7.0650434,5.068498,1,1683969783.8447316
0.9371279,1.0422559,1.688879,-2.126269,-2.563496,-1.2017246,4.5924287,7.075156,5.0087805,1,1683969783.8549657
0.9371279,1.0422559,1.688879,1.0581713,-4.1201334,-1.8703166,4.5924287,7.075156,5.0087805,1,1683969783.86005
-0.39929157,0.30654228,0.40471873,1.0581713,-4.1201334,-1.8703166,4.5924287,7.075156,5.0087805,1,1683969783.865184
-0.39929157,0.30654228,0.40471873,1.0581713,-4.1201334,-1.8703166,4.2818923,8.766228,1.027036,1,1683969783.8754017
-0.39929157,0.30654228,0.40471873,4.0356812,-2.630233,-1.0627528,4.2818923,8.766228,1.027036,1,1683969783.8907945
-0.39929157,0.30654228,0.40471873,4.0356812,-2.630233,-1.0627528,4.23399,8.821642,0.69864875,1,1683969783.9164062
-0.39929157,0.30654228,0.40471873,1.5352571,0.74281216,0.6038403,4.23399,8.821642,0.69864875,1,1683969783.9215336
-0.41093862,0.26123476,0.34666657,1.5352571,0.74281216,0.6038403,4.23399,8.821642,0.69864875,1,1683969783.931749
-0.41093862,0.26123476,0.34666657,1.5352571,0.74281216,0.6038403,4.3135595,8.780854,0.7251922,1,1683969783.9419992
-0.41093862,0.26123476,0.34666657,-1.0566442,4.7348166,1.894904,4.3135595,8.780854,0.7251922,1,1683969783.9522257
-0.08909056,0.36099666,0.15500905,-1.0566442,4.7348166,1.894904,4.3135595,8.780854,0.7251922,1,1683969783.9624865
0.19153556,0.5383241,0.02494048,-1.0566442,4.7348166,1.894904,4.3135595,8.780854,0.7251922,1,1683969783.9880927
0.19153556,0.5383241,0.02494048,-3.2708778,7.561901,2.7776043,4.3135595,8.780854,0.7251922,1,1683969783.9932268
0.19153556,0.5383241,0.02494048,-3.2708778,7.561901,2.7776043,4.432902,8.68379,1.0850222,1,1683969783.9983585
0.45167267,0.7163223,-0.16531453,-3.2708778,7.561901,2.7776043,4.432902,8.68379,1.0850222,1,1683969784.0137107
0.45167267,0.7163223,-0.16531453,-3.2708778,7.561901,2.7776043,4.5572305,8.527364,1.6588669,1,1683969784.018803
0.45167267,0.7163223,-0.16531453,-4.660444,8.666192,3.1926873,4.5572305,8.527364,1.6588669,1,1683969784.0341597
0.67888105,0.959934,-0.506493,-4.660444,8.666192,3.1926873,4.5572305,8.527364,1.6588669,1,1683969784.0545573
0.67888105,0.959934,-0.506493,-4.660444,8.666192,3.1926873,4.6447067,8.307993,2.3748841,1,1683969784.0648189
0.67888105,0.959934,-0.506493,-5.8311667,8.645576,3.110373,4.6447067,8.307993,2.3748841,1,1683969784.0699518
0.67888105,0.959934,-0.506493,-5.8311667,8.645576,3.110373,4.6429954,7.8839803,3.5385818,1,1683969784.0904493
0.67888105,0.959934,-0.506493,-6.3105435,7.455763,2.4497223,4.6429954,7.8839803,3.5385818,1,1683969784.095585
0.85675734,1.030426,-0.7651666,-6.3105435,7.455763,2.4497223,4.6429954,7.8839803,3.5385818,1,1683969784.110932
0.85675734,1.030426,-0.7651666,-6.0726113,4.1051674,0.98624194,4.6429954,7.8839803,3.5385818,1,1683969784.131368
1.0981128,1.0576227,-0.78565556,-6.0726113,4.1051674,0.98624194,4.6429954,7.8839803,3.5385818,1,1683969784.1415517
1.0981128,1.0576227,-0.78565556,-6.0726113,4.1051674,0.98624194,4.3992147,8.550245,1.9432825,1,1683969784.167128
1.0981128,1.0576227,-0.78565556,-4.1786237,7.5687733,3.2018502,4.3992147,8.550245,1.9432825,1,1683969784.1722565
0.3217871,0.7065656,-0.22172025,-4.1786237,7.5687733,3.2018502,4.3992147,8.550245,1.9432825,1,1683969784.177387
0.3217871,0.7065656,-0.22172025,-5.1451654,7.4728675,3.2188017,4.3992147,8.550245,1.9432825,1,1683969784.187628
0.57911915,0.90285754,-0.42606148,-5.1451654,7.4728675,3.2188017,4.3992147,8.550245,1.9432825,1,1683969784.1978004
0.57911915,0.90285754,-0.42606148,-5.1451654,7.4728675,3.2188017,4.5210867,8.210408,2.8957026,1,1683969784.2080657
0.7904729,0.980606,-0.48746744,-5.1451654,7.4728675,3.2188017,4.5210867,8.210408,2.8957026,1,1683969784.2285638
0.7904729,0.980606,-0.48746744,-5.6263742,6.3456683,2.5919013,4.5210867,8.210408,2.8957026,1,1683969784.2336948
0.7904729,0.980606,-0.48746744,-5.6263742,6.3456683,2.5919013,4.5388665,7.9299574,3.5707953,1,1683969784.2387807
0.7904729,0.980606,-0.48746744,-5.6263742,6.3456683,2.5919013,4.5035295,7.631556,4.2087646,1,1683969784.2745817
0.7904729,0.980606,-0.48746744,-5.3323956,4.1856484,1.5389223,4.5035295,7.631556,4.2087646,1,1683969784.2797155
0.872307,1.0096321,-0.073540874,-5.3323956,4.1856484,1.5389223,4.5035295,7.631556,4.2087646,1,1683969784.2848468
0.872307,1.0096321,-0.073540874,-5.3323956,4.1856484,1.5389223,4.441115,7.346179,4.7482905,1,1683969784.295064
0.8977353,1.0512199,0.37099725,-5.3323956,4.1856484,1.5389223,4.441115,7.346179,4.7482905,1,1683969784.3104057
0.8977353,1.0512199,0.37099725,-4.6033278,2.6800187,0.93554014,4.441115,7.346179,4.7482905,1,1683969784.320661
0.819621,0.99024075,0.9992657,-4.6033278,2.6800187,0.93554014,4.441115,7.346179,4.7482905,1,1683969784.3257935
0.819621,0.99024075,0.9992657,-2.443003,0.50503284,0.20173825,4.441115,7.346179,4.7482905,1,1683969784.3360524
0.819621,0.99024075,0.9992657,-2.443003,0.50503284,0.20173825,4.3762994,7.025674,5.265361,1,1683969784.34624
0.819621,0.99024075,0.9992657,0.05222898,-1.0700831,-0.38774672,4.3762994,7.025674,5.265361,1,1683969784.3666816
0.819621,0.99024075,0.9992657,0.05222898,-1.0700831,-0.38774672,4.377685,6.937179,5.38029,1,1683969784.3820286
0.8346828,0.9673125,1.0706112,0.05222898,-1.0700831,-0.38774672,4.377685,6.937179,5.38029,1,1683969784.392291
0.8570622,0.96432453,0.79425365,0.05222898,-1.0700831,-0.38774672,4.377685,6.937179,5.38029,1,1683969784.3974204
0.8570622,0.96432453,0.79425365,0.05222898,-1.0700831,-0.38774672,4.4086065,6.9616637,5.3231134,1,1683969784.4076762
0.8570622,0.96432453,0.79425365,1.5706873,-2.2414174,-0.9505063,4.4086065,6.9616637,5.3231134,1,1683969784.4230208
0.8570622,0.96432453,0.79425365,1.5706873,-2.2414174,-0.9505063,4.821067,7.874124,3.3153563,1,1683969784.4384077
0.8570622,0.96432453,0.79425365,3.0274482,-3.3096678,-1.368949,4.821067,7.874124,3.3153563,1,1683969784.4485936
0.24897793,0.5179571,0.21562232,3.0274482,-3.3096678,-1.368949,4.821067,7.874124,3.3153563,1,1683969784.453681
0.24897793,0.5179571,0.21562232,3.0274482,-3.3096678,-1.368949,4.81927,8.003822,2.9915848,1,1683969784.474105
0.24897793,0.5179571,0.21562232,1.9523253,-1.861001,-0.5109888,4.81927,8.003822,2.9915848,1,1683969784.4843159
0.13415417,0.5029562,0.3966085,1.9523253,-1.861001,-0.5109888,4.81927,8.003822,2.9915848,1,1683969784.4945772
0.03140427,0.47521064,0.53990954,1.9523253,-1.861001,-0.5109888,4.81927,8.003822,2.9915848,1,1683969784.5150573
0.03140427,0.47521064,0.53990954,0.7272351,0.3510948,0.63407815,4.81927,8.003822,2.9915848,1,1683969784.5201833
0.03140427,0.47521064,0.53990954,0.7272351,0.3510948,0.63407815,4.8269324,8.071815,2.7897406,1,1683969784.525309
0.03140427,0.47521064,0.53990954,0.7272351,0.3510948,0.63407815,4.873854,8.046857,2.780247,1,1683969784.5406616
0.03140427,0.47521064,0.53990954,-0.49235737,2.5477662,1.5633569,4.873854,8.046857,2.780247,1,1683969784.550849
0.04762473,0.418622,0.53722644,-0.49235737,2.5477662,1.5633569,4.873854,8.046857,2.780247,1,1683969784.5610304
0.04762473,0.418622,0.53722644,-0.49235737,2.5477662,1.5633569,4.9148846,7.939818,3.006546,1,1683969784.5712647
0.21751268,0.46411243,0.4267322,-0.49235737,2.5477662,1.5633569,4.9148846,7.939818,3.006546,1,1683969784.5815265
0.21751268,0.46411243,0.4267322,-1.8741345,4.68442,2.2661574,4.9148846,7.939818,3.006546,1,1683969784.591785
0.21751268,0.46411243,0.4267322,-3.0935743,6.2700734,2.6700919,4.9148846,7.939818,3.006546,1,1683969784.62252
0.48472342,0.6349761,0.2689791,-3.0935743,6.2700734,2.6700919,4.9148846,7.939818,3.006546,1,1683969784.6276462
0.48472342,0.6349761,0.2689791,-3.0935743,6.2700734,2.6700919,4.934116,7.763294,3.4090872,1,1683969784.6379092
0.48472342,0.6349761,0.2689791,-4.1993933,7.2117224,2.67391,4.934116,7.763294,3.4090872,1,1683969784.6430469
0.48472342,0.6349761,0.2689791,-4.1993933,7.2117224,2.67391,4.9048862,7.528235,3.9374971,1,1683969784.6481361
0.7373601,0.90151596,0.07994369,-4.1993933,7.2117224,2.67391,4.9048862,7.528235,3.9374971,1,1683969784.6685243
0.930908,0.99072856,-0.12592198,-4.1993933,7.2117224,2.67391,4.9048862,7.528235,3.9374971,1,1683969784.6839123
0.930908,0.99072856,-0.12592198,-4.1993933,7.2117224,2.67391,4.8090405,7.250902,4.531409,1,1683969784.6991825
0.930908,0.99072856,-0.12592198,-4.840649,4.205807,2.2699752,4.8090405,7.250902,4.531409,1,1683969784.7043118
0.930908,0.99072856,-0.12592198,-4.840649,4.205807,2.2699752,4.125384,7.446219,4.8755665,1,1683969784.7248268
0.7483363,0.9248711,0.22037871,-4.840649,4.205807,2.2699752,4.125384,7.446219,4.8755665,1,1683969784.7299564
1.2404993,1.0792702,0.25672227,-4.840649,4.205807,2.2699752,4.125384,7.446219,4.8755665,1,1683969784.7504447
1.2404993,1.0792702,0.25672227,-4.840649,4.205807,2.2699752,4.06694,6.9957047,5.5458293,1,1683969784.755549
1.2404993,1.0792702,0.25672227,-3.099683,0.92347556,0.8219192,4.06694,6.9957047,5.5458293,1,1683969784.770946
1.2404993,1.0792702,0.25672227,-3.099683,0.92347556,0.8219192,4.0876174,6.823638,5.7415543,1,1683969784.7760756
1.5482,1.2456214,0.49673632,-3.099683,0.92347556,0.8219192,4.0876174,6.823638,5.7415543,1,1683969784.7914624
1.5482,1.2456214,0.49673632,-0.904386,-2.4463625,-0.69027776,4.0876174,6.823638,5.7415543,1,1683969784.7965932
1.6988186,1.3778853,0.8991988,-0.904386,-2.4463625,-0.69027776,4.0876174,6.823638,5.7415543,1,1683969784.8272762
1.6988186,1.3778853,0.8991988,-0.904386,-2.4463625,-0.69027776,4.187809,6.820545,5.529974,1,1683969784.8324132
1.6988186,1.3778853,0.8991988,2.3212879,-6.504646,-2.595872,4.187809,6.820545,5.529974,1,1683969784.837542
1.5948491,1.2728182,1.1957406,2.3212879,-6.504646,-2.595872,4.187809,6.820545,5.529974,1,1683969784.8529236
1.5948491,1.2728182,1.1957406,4.508796,-8.613963,-3.8652499,4.187809,6.820545,5.529974,1,1683969784.8682702
1.5948491,1.2728182,1.1957406,4.508796,-8.613963,-3.8652499,4.425742,7.157075,5.042343,1,1683969784.8733845
1.5948491,1.2728182,1.1957406,4.508796,-8.613963,-3.8652499,4.5343094,7.5368414,4.344212,1,1683969784.8938832
1.5948491,1.2728182,1.1957406,6.108958,-9.549503,-4.8667636,4.5343094,7.5368414,4.344212,1,1683969784.8990135
1.349408,1.0604887,1.2694033,6.108958,-9.549503,-4.8667636,4.5343094,7.5368414,4.344212,1,1683969784.9143982
1.0637206,0.89974767,1.1926305,6.108958,-9.549503,-4.8667636,4.5343094,7.5368414,4.344212,1,1683969784.929796
1.0637206,0.89974767,1.1926305,6.668816,-9.243307,-5.221218,4.5343094,7.5368414,4.344212,1,1683969784.9349115
1.0637206,0.89974767,1.1926305,6.668816,-9.243307,-5.221218,4.533838,7.9529734,3.5257115,1,1683969784.9451299
0.58289987,0.6708928,0.8185843,6.668816,-9.243307,-5.221218,4.533838,7.9529734,3.5257115,1,1683969784.9605587
0.58289987,0.6708928,0.8185843,6.617045,-8.12237,-5.0720143,4.533838,7.9529734,3.5257115,1,1683969784.9657323
0.58289987,0.6708928,0.8185843,6.617045,-8.12237,-5.0720143,4.3071146,8.523793,2.2427237,1,1683969784.9760373
0.58289987,0.6708928,0.8185843,6.617045,-8.12237,-5.0720143,4.2211666,8.098662,3.581832,1,1683969784.986327
0.58289987,0.6708928,0.8185843,5.934861,-6.497163,-3.5001051,4.2211666,8.098662,3.581832,1,1683969784.9914634
0.61064535,0.75181216,0.8199868,5.934861,-6.497163,-3.5001051,4.2211666,8.098662,3.581832,1,1683969785.001756
0.30696914,0.611682,0.7222373,5.934861,-6.497163,-3.5001051,4.2211666,8.098662,3.581832,1,1683969785.0069175
0.30696914,0.611682,0.7222373,5.780465,-5.75038,-3.1178563,4.2211666,8.098662,3.581832,1,1683969785.027522
0.30696914,0.611682,0.7222373,5.780465,-5.75038,-3.1178563,4.1522045,8.40056,2.9027421,1,1683969785.03268
0.30696914,0.611682,0.7222373,4.8585167,-3.8965566,-1.9230038,4.1522045,8.40056,2.9027421,1,1683969785.0481484
-0.13311753,0.47929627,0.5907662,4.8585167,-3.8965566,-1.9230038,4.1522045,8.40056,2.9027421,1,1683969785.0635812
-0.13311753,0.47929627,0.5907662,4.8585167,-3.8965566,-1.9230038,4.0464115,8.645145,2.2636542,1,1683969785.0687106
-0.32794595,0.40313327,0.4343546,4.8585167,-3.8965566,-1.9230038,4.0464115,8.645145,2.2636542,1,1683969785.0841162
-0.32794595,0.40313327,0.4343546,4.8585167,-3.8965566,-1.9230038,3.9121737,8.865328,1.5287125,1,1683969785.0995083
-0.32794595,0.40313327,0.4343546,3.3744197,-1.6291776,-0.5917757,3.9121737,8.865328,1.5287125,1,1683969785.1046388
-0.32794595,0.40313327,0.4343546,1.2573134,1.1609493,0.7307475,3.9121737,8.865328,1.5287125,1,1683969785.1148982
-0.3418492,0.35203275,0.24897793,1.2573134,1.1609493,0.7307475,3.9121737,8.865328,1.5287125,1,1683969785.1200368
-0.3418492,0.35203275,0.24897793,1.2573134,1.1609493,0.7307475,3.8937745,8.909936,1.2990965,1,1683969785.1405513
-0.3418492,0.35203275,0.24897793,1.2573134,1.1609493,0.7307475,3.9418674,8.881281,1.3493099,1,1683969785.155892
-0.15391143,0.30129808,0.14799644,1.2573134,1.1609493,0.7307475,3.9418674,8.881281,1.3493099,1,1683969785.1712396
-0.15391143,0.30129808,0.14799644,-1.0885619,4.2137485,2.0392208,3.9418674,8.881281,1.3493099,1,1683969785.1815
0.11518965,0.4557583,0.0043905,-1.0885619,4.2137485,2.0392208,3.9418674,8.881281,1.3493099,1,1683969785.2019584
0.11518965,0.4557583,0.0043905,-3.1969633,6.910871,2.5712845,3.9418674,8.881281,1.3493099,1,1683969785.2070885
0.11518965,0.4557583,0.0043905,-3.1969633,6.910871,2.5712845,4.0306764,8.783479,1.6853086,1,1683969785.2122228
0.26208845,0.70498013,-0.089822315,-3.1969633,6.910871,2.5712845,4.0306764,8.783479,1.6853086,1,1683969785.2276142
0.26208845,0.70498013,-0.089822315,-3.1969633,6.910871,2.5712845,4.110251,8.615888,2.2601817,1,1683969785.2327433
0.26208845,0.70498013,-0.089822315,-5.2810826,8.894198,3.1062498,4.110251,8.615888,2.2601817,1,1683969785.2480838
0.58332676,0.7169931,1.5535053,-5.2810826,8.894198,3.1062498,4.110251,8.615888,2.2601817,1,1683969785.2685978
0.58332676,0.7169931,1.5535053,4.3460007,-5.998697,-3.1516066,4.110251,8.615888,2.2601817,1,1683969785.2737296
0.58332676,0.7169931,1.5535053,4.3460007,-5.998697,-3.1516066,4.1752386,7.3443437,4.9863944,1,1683969785.2788594
0.42758593,0.6687586,1.2239739,4.3460007,-5.998697,-3.1516066,4.1752386,7.3443437,4.9863944,1,1683969785.2993333
0.42758593,0.6687586,1.2239739,5.6720366,-5.946162,-3.0492866,4.1752386,7.3443437,4.9863944,1,1683969785.3044674
0.42758593,0.6687586,1.2239739,5.6720366,-5.946162,-3.0492866,4.217539,7.661835,4.4435077,1,1683969785.3198626
0.22104947,0.56143516,0.90297955,5.6720366,-5.946162,-3.0492866,4.217539,7.661835,4.4435077,1,1683969785.3403182
0.22104947,0.56143516,0.90297955,5.6720366,-5.946162,-3.0492866,4.2118998,8.142226,3.4928737,1,1683969785.3505788
0.22104947,0.56143516,0.90297955,6.2917595,-5.5174875,-2.6818511,4.2118998,8.142226,3.4928737,1,1683969785.3557131
0.22104947,0.56143516,0.90297955,6.1840944,-4.8446198,-2.1097758,4.2118998,8.142226,3.4928737,1,1683969785.365965
0.22104947,0.56143516,0.90297955,6.1840944,-4.8446198,-2.1097758,4.194103,8.286177,3.1598887,1,1683969785.3710592
0.076711796,0.52399397,0.60442555,6.1840944,-4.8446198,-2.1097758,4.194103,8.286177,3.1598887,1,1683969785.3864384
0.076711796,0.52399397,0.60442555,6.1840944,-4.8446198,-2.1097758,4.124145,8.623321,2.2058809,1,1683969785.4017816
0.076711796,0.52399397,0.60442555,5.2597027,-3.645033,-1.2119566,4.124145,8.623321,2.2058809,1,1683969785.4069142
0.015793605,0.5363728,0.36191136,5.2597027,-3.645033,-1.2119566,4.124145,8.623321,2.2058809,1,1683969785.4120445
0.023903834,0.55051994,0.26410076,5.2597027,-3.645033,-1.2119566,4.124145,8.623321,2.2058809,1,1683969785.4376822
0.023903834,0.55051994,0.26410076,5.2597027,-3.645033,-1.2119566,4.088148,8.758578,1.676443,1,1683969785.4530659
0.023903834,0.55051994,0.26410076,4.0340014,-2.146275,-0.40866885,4.088148,8.758578,1.676443,1,1683969785.4582002
0.13677627,0.61125517,0.13531277,4.0340014,-2.146275,-0.40866885,4.088148,8.758578,1.676443,1,1683969785.4786463
0.13677627,0.61125517,0.13531277,2.4500277,-0.106595986,0.37522396,4.088148,8.758578,1.676443,1,1683969785.4837387
0.13677627,0.61125517,0.13531277,2.4500277,-0.106595986,0.37522396,4.0811715,8.825561,1.2998589,1,1683969785.4888623
0.13677627,0.61125517,0.13531277,2.4500277,-0.106595986,0.37522396,4.1367545,8.824674,1.117369,1,1683969785.5093307
0.13677627,0.61125517,0.13531277,0.09239337,2.6818511,1.1169671,4.1367545,8.824674,1.117369,1,1683969785.5144637
0.2789797,0.7460191,-0.3591063,0.09239337,2.6818511,1.1169671,4.1367545,8.824674,1.117369,1,1683969785.5502129
0.2789797,0.7460191,-0.3591063,-6.799236,10.136393,3.5772269,4.1367545,8.824674,1.117369,1,1683969785.555299
0.2789797,0.7460191,-0.3591063,-6.799236,10.136393,3.5772269,3.9942029,8.847033,1.4186164,1,1683969785.5604224
0.2789797,0.7460191,-0.3591063,-7.7074394,9.675189,3.6181548,3.9942029,8.847033,1.4186164,1,1683969785.5808127
0.38923004,0.7483363,-0.23159887,-7.7074394,9.675189,3.6181548,3.9942029,8.847033,1.4186164,1,1683969785.585942
0.38923004,0.7483363,-0.23159887,-7.7074394,9.675189,3.6181548,4.1341705,8.447486,2.7901113,1,1683969785.5910738
0.41874394,0.7789479,-0.09061504,-7.7074394,9.675189,3.6181548,4.1341705,8.447486,2.7901113,1,1683969785.6064675
0.41874394,0.7789479,-0.09061504,-7.829307,8.714298,3.3061554,4.1341705,8.447486,2.7901113,1,1683969785.6218736
0.41874394,0.7789479,-0.09061504,-7.829307,8.714298,3.3061554,4.1244555,8.08807,3.7159266,1,1683969785.6270084
0.41874394,0.7789479,-0.09061504,-7.144527,6.403548,2.520888,4.1244555,8.08807,3.7159266,1,1683969785.6372688
0.41874394,0.7789479,-0.09061504,-7.144527,6.403548,2.520888,4.0430055,7.6862035,4.5620713,1,1683969785.652662
0.52807957,0.8251701,0.12634884,-7.144527,6.403548,2.520888,4.0430055,7.6862035,4.5620713,1,1683969785.6577923
0.52807957,0.8251701,0.12634884,-7.144527,6.403548,2.520888,3.9410212,7.2871003,5.253822,1,1683969785.6833827
0.52807957,0.8251701,0.12634884,-5.5255814,3.531412,1.6594155,3.9410212,7.2871003,5.253822,1,1683969785.6885257
0.7972416,0.85383034,0.450819,-5.5255814,3.531412,1.6594155,3.9410212,7.2871003,5.253822,1,1683969785.69365
1.1835446,1.1137235,0.9080408,-5.5255814,3.531412,1.6594155,3.9410212,7.2871003,5.253822,1,1683969785.7192564
1.1835446,1.1137235,0.9080408,-2.0511327,-0.7170031,0.2012801,3.9410212,7.2871003,5.253822,1,1683969785.7295146
1.1835446,1.1137235,0.9080408,-2.0511327,-0.7170031,0.2012801,3.8956149,6.8688397,5.8205976,1,1683969785.7346535
1.358372,1.2961732,1.150189,-2.0511327,-0.7170031,0.2012801,3.8956149,6.8688397,5.8205976,1,1683969785.7602499
1.358372,1.2961732,1.150189,1.2409728,-4.0630174,-1.1644619,3.8956149,6.8688397,5.8205976,1,1683969785.7653852
1.358372,1.2961732,1.150189,1.2409728,-4.0630174,-1.1644619,3.9848874,6.8279424,5.8082685,1,1683969785.770519
1.358372,1.2961732,1.150189,4.092339,-6.544047,-2.434298,3.9848874,6.8279424,5.8082685,1,1683969785.7808397
1.358372,1.2961732,1.150189,4.092339,-6.544047,-2.434298,4.0600753,6.889865,5.681694,1,1683969785.7961884
0.7186395,0.7716304,0.9735934,4.092339,-6.544047,-2.434298,4.0600753,6.889865,5.681694,1,1683969785.8064117
0.7186395,0.7716304,0.9735934,5.113553,-7.8407607,-3.8863246,4.0600753,6.889865,5.681694,1,1683969785.811534
0.7186395,0.7716304,0.9735934,5.113553,-7.8407607,-3.8863246,4.288195,8.110848,3.4729855,1,1683969785.8319767
0.2912365,0.6513185,1.1801298,5.113553,-7.8407607,-3.8863246,4.288195,8.110848,3.4729855,1,1683969785.8472924
0.2912365,0.6513185,1.1801298,5.113553,-7.8407607,-3.8863246,4.223576,8.395436,2.813216,1,1683969785.852415
0.2912365,0.6513185,1.1801298,4.9576297,-6.149428,-3.052341,4.223576,8.395436,2.813216,1,1683969785.8575478
0.2912365,0.6513185,1.1801298,4.9576297,-6.149428,-3.052341,4.129013,8.615288,2.2280443,1,1683969785.8780744
0.2912365,0.6513185,1.1801298,4.303851,-3.7174203,-1.7867808,4.129013,8.615288,2.2280443,1,1683969785.883194
-0.10427438,0.5603376,1.0851244,4.303851,-3.7174203,-1.7867808,4.129013,8.615288,2.2280443,1,1683969785.9037094
-0.10427438,0.5603376,1.0851244,4.303851,-3.7174203,-1.7867808,4.0531545,8.752035,1.7916255,1,1683969785.9293642
-0.10427438,0.5603376,1.0851244,2.7232373,-0.70249504,-0.28038713,4.0531545,8.752035,1.7916255,1,1683969785.9345083
-0.30831066,0.43264723,0.646989,2.7232373,-0.70249504,-0.28038713,4.0531545,8.752035,1.7916255,1,1683969785.939641
-0.30831066,0.43264723,0.646989,2.7232373,-0.70249504,-0.28038713,4.032336,8.799588,1.5948837,1,1683969785.9601495
-0.2528806,0.27141827,0.36105764,2.7232373,-0.70249504,-0.28038713,4.032336,8.799588,1.5948837,1,1683969785.9703636
-0.2528806,0.27141827,0.36105764,-0.41691554,3.1881058,1.2996159,4.032336,8.799588,1.5948837,1,1683969785.975485
-0.2528806,0.27141827,0.36105764,-0.41691554,3.1881058,1.2996159,4.067958,8.761397,1.7104855,1,1683969785.9806154
-0.2528806,0.27141827,0.36105764,-2.703995,6.5571804,2.1647537,4.067958,8.761397,1.7104855,1,1683969785.9908764
0.11317733,0.35758185,0.25544173,-2.703995,6.5571804,2.1647537,4.067958,8.761397,1.7104855,1,1683969786.001152
0.11317733,0.35758185,0.25544173,-2.703995,6.5571804,2.1647537,4.1349187,8.559478,2.4236155,1,1683969786.0267525
0.2965417,0.676198,0.05567398,-2.703995,6.5571804,2.1647537,4.1349187,8.559478,2.4236155,1,1683969786.0318837
0.2965417,0.676198,0.05567398,-4.506353,8.805164,2.6743681,4.1349187,8.559478,2.4236155,1,1683969786.037015
0.36691165,0.7374821,-0.023476979,-4.506353,8.805164,2.6743681,4.1349187,8.559478,2.4236155,1,1683969786.0574524
0.36691165,0.7374821,-0.023476979,-6.177069,9.9119,3.0109549,4.1349187,8.559478,2.4236155,1,1683969786.0728438
0.36691165,0.7374821,-0.023476979,5.907067,-6.9963923,-3.961461,4.1349187,8.559478,2.4236155,1,1683969786.1035283
0.36691165,0.7374821,-0.023476979,5.907067,-6.9963923,-3.961461,4.021805,8.644996,2.307647,1,1683969786.1086247
-0.2336112,0.45533144,0.5839365,5.907067,-6.9963923,-3.961461,4.021805,8.644996,2.307647,1,1683969786.1137533
-0.2336112,0.45533144,0.5839365,5.113095,-5.4492235,-2.924212,4.021805,8.644996,2.307647,1,1683969786.1239822
-0.2336112,0.45533144,0.5839365,5.113095,-5.4492235,-2.924212,3.7162478,8.989965,1.2673396,1,1683969786.129112
-0.2336112,0.45533144,0.5839365,5.113095,-5.4492235,-2.924212,3.5439909,9.117409,0.74102646,1,1683969786.1495993
-0.2336112,0.45533144,0.5839365,3.4926221,-2.2585216,-0.9955576,3.5439909,9.117409,0.74102646,1,1683969786.159852
-0.55692273,0.35319135,0.44484302,3.4926221,-2.2585216,-0.9955576,3.5439909,9.117409,0.74102646,1,1683969786.1751857
-0.55692273,0.35319135,0.44484302,1.3707817,0.77595156,0.5991061,3.5439909,9.117409,0.74102646,1,1683969786.1905637
-0.55692273,0.35319135,0.44484302,1.3707817,0.77595156,0.5991061,3.4648633,9.168296,0.41613233,1,1683969786.2007942
-0.5594229,0.22562292,0.13573962,1.3707817,0.77595156,0.5991061,3.4648633,9.168296,0.41613233,1,1683969786.205923
-0.22598879,0.24544115,-0.08659042,1.3707817,0.77595156,0.5991061,3.4648633,9.168296,0.41613233,1,1683969786.2264495
-0.22598879,0.24544115,-0.08659042,1.3707817,0.77595156,0.5991061,3.5484705,9.134933,0.44439834,1,1683969786.2315738
-0.22598879,0.24544115,-0.08659042,-1.7951802,4.638911,2.0631974,3.5484705,9.134933,0.44439834,1,1683969786.246961
0.07646788,0.55228835,-0.27696738,-1.7951802,4.638911,2.0631974,3.5484705,9.134933,0.44439834,1,1683969786.2622633
0.07646788,0.55228835,-0.27696738,-1.7951802,4.638911,2.0631974,3.7021263,9.047404,0.82150227,1,1683969786.2673645
0.07646788,0.55228835,-0.27696738,-3.884034,6.906595,2.8431196,3.7021263,9.047404,0.82150227,1,1683969786.2724624
0.07646788,0.55228835,-0.27696738,-3.884034,6.906595,2.8431196,3.8693776,8.901054,1.4266236,1,1683969786.2929618
0.25678328,0.7632762,-0.2783699,-3.884034,6.906595,2.8431196,3.8693776,8.901054,1.4266236,1,1683969786.298053
0.25678328,0.7632762,-0.2783699,-5.486028,8.092743,3.2516358,3.8693776,8.901054,1.4266236,1,1683969786.313369
0.42173192,0.77217925,-0.097322755,-5.486028,8.092743,3.2516358,3.8693776,8.901054,1.4266236,1,1683969786.32363
0.42173192,0.77217925,-0.097322755,-5.486028,8.092743,3.2516358,3.99902,8.688067,2.1820717,1,1683969786.3493137
0.42173192,0.77217925,-0.097322755,-6.7802987,8.59747,3.382208,3.99902,8.688067,2.1820717,1,1683969786.3544428
0.6320491,0.73077434,1.4496577,-6.7802987,8.59747,3.382208,3.99902,8.688067,2.1820717,1,1683969786.3852127
0.6320491,0.73077434,1.4496577,-6.7802987,8.59747,3.382208,3.4038959,6.367899,6.640743,1,1683969786.3903453
0.6320491,0.73077434,1.4496577,-0.59986967,-2.1949916,0.46792278,3.4038959,6.367899,6.640743,1,1683969786.3954654
0.6320491,0.73077434,1.4496577,2.154827,-3.8806741,-0.3220787,3.4038959,6.367899,6.640743,1,1683969786.4159799
0.6320491,0.73077434,1.4496577,2.154827,-3.8806741,-0.3220787,3.5834107,6.367205,6.546294,1,1683969786.421112
0.8845028,0.8494398,1.4266076,2.154827,-3.8806741,-0.3220787,3.5834107,6.367205,6.546294,1,1683969786.4313374
0.8845028,0.8494398,1.4266076,2.154827,-3.8806741,-0.3220787,3.793022,6.5091586,6.283307,1,1683969786.436473
0.8845028,0.8494398,1.4266076,3.6318994,-4.710993,-1.1672108,3.793022,6.5091586,6.283307,1,1683969786.4416018
1.0504271,0.96359277,1.1923866,3.6318994,-4.710993,-1.1672108,3.793022,6.5091586,6.283307,1,1683969786.4621162
1.0504271,0.96359277,1.1923866,4.5743117,-5.2080846,-2.0525072,3.793022,6.5091586,6.283307,1,1683969786.4723141
1.0570129,0.9954239,0.9357254,4.5743117,-5.2080846,-2.0525072,3.793022,6.5091586,6.283307,1,1683969786.4825673
1.0570129,0.9954239,0.9357254,4.5743117,-5.2080846,-2.0525072,3.9849818,6.7555017,5.892302,1,1683969786.4877036
1.0570129,0.9954239,0.9357254,5.0637674,-5.582239,-2.9373455,3.9849818,6.7555017,5.892302,1,1683969786.508225
0.92023665,0.90060127,0.5628377,5.0637674,-5.582239,-2.9373455,3.9849818,6.7555017,5.892302,1,1683969786.5184863
0.92023665,0.90060127,0.5628377,5.0637674,-5.582239,-2.9373455,4.1724977,7.23628,5.144186,1,1683969786.533878
0.92023665,0.90060127,0.5628377,5.0147457,-5.8592668,-3.3730452,4.1724977,7.23628,5.144186,1,1683969786.5492313
0.7774844,0.7901071,0.37538776,5.0147457,-5.8592668,-3.3730452,4.1724977,7.23628,5.144186,1,1683969786.5543668
0.7774844,0.7901071,0.37538776,5.0147457,-5.8592668,-3.3730452,4.2209687,7.5769377,4.583618,1,1683969786.559482
0.7774844,0.7901071,0.37538776,4.737718,-6.0474133,-3.5311065,4.2209687,7.5769377,4.583618,1,1683969786.5952988
0.63302475,0.693699,0.327824,4.737718,-6.0474133,-3.5311065,4.2209687,7.5769377,4.583618,1,1683969786.600431
0.63302475,0.693699,0.327824,4.737718,-6.0474133,-3.5311065,4.2160034,7.899596,4.007219,1,1683969786.6106813
0.63302475,0.693699,0.327824,4.5144467,-5.863085,-3.3197472,4.2160034,7.899596,4.007219,1,1683969786.631208
0.42093918,0.63711035,0.47246656,4.5144467,-5.863085,-3.3197472,4.2160034,7.899596,4.007219,1,1683969786.6363425
0.42093918,0.63711035,0.47246656,4.5144467,-5.863085,-3.3197472,3.430598,9.149397,0.86927867,1,1683969786.646603
0.04896627,0.64412296,-0.28172377,4.5144467,-5.863085,-3.3197472,3.430598,9.149397,0.86927867,1,1683969786.6619823
0.04896627,0.64412296,-0.28172377,-1.8568777,3.5796704,0.70646566,3.430598,9.149397,0.86927867,1,1683969786.6671176
0.04896627,0.64412296,-0.28172377,-1.8568777,3.5796704,0.70646566,3.4246416,9.145314,0.93336594,1,1683969786.672249
0.16311927,0.76974,-0.4063042,-1.8568777,3.5796704,0.70646566,3.4246416,9.145314,0.93336594,1,1683969786.7131712
0.16311927,0.76974,-0.4063042,-1.8568777,3.5796704,0.70646566,3.4459898,9.10595,1.201231,1,1683969786.7183068
0.16311927,0.76974,-0.4063042,-3.4655912,4.957019,1.0676397,3.4459898,9.10595,1.201231,1,1683969786.7233946
0.16311927,0.76974,-0.4063042,-3.4655912,4.957019,1.0676397,3.4679909,9.02898,1.6391085,1,1683969786.7336495
0.16311927,0.76974,-0.4063042,-4.716796,5.755725,1.2666291,3.4679909,9.02898,1.6391085,1,1683969786.738778
0.18805976,0.8082179,-0.36172843,-4.716796,5.755725,1.2666291,3.4679909,9.02898,1.6391085,1,1683969786.7439091
0.18805976,0.8082179,-0.36172843,-5.7221274,6.0689464,1.4033102,3.4679909,9.02898,1.6391085,1,1683969786.7643456
0.20299964,0.74595815,-0.21232945,-5.7221274,6.0689464,1.4033102,3.4679909,9.02898,1.6391085,1,1683969786.7694879
0.20299964,0.74595815,-0.21232945,-5.7221274,6.0689464,1.4033102,3.4597654,8.8309355,2.506136,1,1683969786.7848735
0.2695279,0.7646788,-0.05799119,-5.7221274,6.0689464,1.4033102,3.4597654,8.8309355,2.506136,1,1683969786.8053365
0.2695279,0.7646788,-0.05799119,-6.031989,5.76779,1.3041973,3.4597654,8.8309355,2.506136,1,1683969786.810448
0.2695279,0.7646788,-0.05799119,-6.031989,5.76779,1.3041973,3.415226,8.640719,3.148064,1,1683969786.8206935
0.2695279,0.7646788,-0.05799119,-5.600718,4.3791404,0.75334954,3.415226,8.640719,3.148064,1,1683969786.8514016
0.2695279,0.7646788,-0.05799119,-5.600718,4.3791404,0.75334954,3.3375256,8.419011,3.7705812,1,1683969786.8565302
0.49594358,0.8555377,0.11110405,-5.600718,4.3791404,0.75334954,3.3375256,8.419011,3.7705812,1,1683969786.8667886
0.75553185,0.9762155,0.33843437,-5.600718,4.3791404,0.75334954,3.3375256,8.419011,3.7705812,1,1683969786.8719237
0.75553185,0.9762155,0.33843437,-4.415487,2.1965187,-0.015118915,3.3375256,8.419011,3.7705812,1,1683969786.8770463
0.75553185,0.9762155,0.33843437,-4.415487,2.1965187,-0.015118915,3.241209,8.198107,4.3036838,1,1683969786.8872604
0.75553185,0.9762155,0.33843437,-2.8703032,-0.05421429,-0.679893,3.241209,8.198107,4.3036838,1,1683969786.9127991
0.105372004,0.6182068,0.32007965,-2.8703032,-0.05421429,-0.679893,3.241209,8.198107,4.3036838,1,1683969786.928127
0.105372004,0.6182068,0.32007965,-2.8703032,-0.05421429,-0.679893,2.7251482,9.219768,1.9507827,1,1683969786.9434972
0.105372004,0.6182068,0.32007965,5.5356607,-4.31897,-3.262784,2.7251482,9.219768,1.9507827,1,1683969786.9486315
0.105372004,0.6182068,0.32007965,4.781395,-3.3782375,-2.627484,2.7251482,9.219768,1.9507827,1,1683969786.974276
-0.14878917,0.53009194,0.30812773,4.781395,-3.3782375,-2.627484,2.7251482,9.219768,1.9507827,1,1683969786.9793923
-0.14878917,0.53009194,0.30812773,4.781395,-3.3782375,-2.627484,2.5162208,9.376487,1.4093498,1,1683969786.9896455
-0.693638,0.43215933,0.31209138,4.781395,-3.3782375,-2.627484,2.5162208,9.376487,1.4093498,1,1683969786.9999042
-0.693638,0.43215933,0.31209138,3.893655,-1.8791742,-1.4672983,2.5162208,9.376487,1.4093498,1,1683969787.0050194
-0.693638,0.43215933,0.31209138,3.893655,-1.8791742,-1.4672983,2.3181891,9.485204,0.94500834,1,1683969787.0203218
-1.06244,0.27727225,0.18982814,3.893655,-1.8791742,-1.4672983,2.3181891,9.485204,0.94500834,1,1683969787.0305626
-1.06244,0.27727225,0.18982814,3.893655,-1.8791742,-1.4672983,2.1954303,9.542759,0.593286,1,1683969787.0459545
-1.06244,0.27727225,0.18982814,2.4323127,0.50671273,0.29779682,2.1954303,9.542759,0.593286,1,1683969787.061311
-1.06244,0.27727225,0.18982814,2.4323127,0.50671273,0.29779682,2.211209,9.548282,0.42074227,1,1683969787.07156
-1.2038507,0.097871564,-0.026525937,2.4323127,0.50671273,0.29779682,2.211209,9.548282,0.42074227,1,1683969787.0766892
-1.2038507,0.097871564,-0.026525937,0.76251256,2.7956247,1.8474092,2.211209,9.548282,0.42074227,1,1683969787.0971713
-1.2038507,0.097871564,-0.026525937,0.76251256,2.7956247,1.8474092,2.3945599,9.499229,0.51658046,1,1683969787.1023026
-1.2038507,0.097871564,-0.026525937,-2.9269607,6.6663723,4.423428,2.3945599,9.499229,0.51658046,1,1683969787.1073942
-1.0497563,-0.19238928,-0.45581928,-2.9269607,6.6663723,4.423428,2.3945599,9.499229,0.51658046,1,1683969787.1227229
-0.46161228,-0.064942814,-0.56509393,-2.9269607,6.6663723,4.423428,2.3945599,9.499229,0.51658046,1,1683969787.143198
-0.46161228,-0.064942814,-0.56509393,-2.9269607,6.6663723,4.423428,2.9206002,9.278818,1.2687675,1,1683969787.163706
-0.46161228,-0.064942814,-0.56509393,-6.410725,9.284082,6.401562,2.9206002,9.278818,1.2687675,1,1683969787.1688359
0.15305771,0.16976601,-0.37038746,-6.410725,9.284082,6.401562,2.9206002,9.278818,1.2687675,1,1683969787.1790843
-0.61485296,0.28501663,0.26355198,-6.410725,9.284082,6.401562,2.9206002,9.278818,1.2687675,1,1683969787.2046173
-0.61485296,0.28501663,0.26355198,3.7307067,-2.4594963,-1.9937115,2.9206002,9.278818,1.2687675,1,1683969787.214797
-0.61485296,0.28501663,0.26355198,3.7307067,-2.4594963,-1.9937115,2.9392107,9.278936,1.2241316,1,1683969787.2198896
-0.7480924,0.25781992,0.0918956,3.7307067,-2.4594963,-1.9937115,2.9392107,9.278936,1.2241316,1,1683969787.245436
-0.7480924,0.25781992,0.0918956,2.0813706,-0.27366763,-0.47021353,2.9392107,9.278936,1.2241316,1,1683969787.2556891
-0.7480924,0.25781992,0.0918956,2.0813706,-0.27366763,-0.47021353,2.7815578,9.367077,0.8700125,1,1683969787.2608204
-0.7480924,0.25781992,0.0918956,-0.3998113,2.6624563,1.2266175,2.7815578,9.367077,0.8700125,1,1683969787.281334
-0.6344882,0.28196767,-0.118604474,-0.3998113,2.6624563,1.2266175,2.7815578,9.367077,0.8700125,1,1683969787.286473
-0.6344882,0.28196767,-0.118604474,-0.3998113,2.6624563,1.2266175,2.7409606,9.392555,0.7093234,1,1683969787.291591
-0.6344882,0.28196767,-0.118604474,-0.3998113,2.6624563,1.2266175,2.8332272,9.350898,0.8773034,1,1683969787.317166
-0.43905002,0.34361762,-0.31276214,-0.3998113,2.6624563,1.2266175,2.8332272,9.350898,0.8773034,1,1683969787.3222785
-0.43905002,0.34361762,-0.31276214,-2.3629794,4.9386926,2.5622742,2.8332272,9.350898,0.8773034,1,1683969787.3273609
-0.17385161,0.47874746,-0.34404445,-2.3629794,4.9386926,2.5622742,2.8332272,9.350898,0.8773034,1,1683969787.3427248
-0.17385161,0.47874746,-0.34404445,-2.3629794,4.9386926,2.5622742,2.9907143,9.260043,1.2423159,1,1683969787.3529837
-0.17385161,0.47874746,-0.34404445,-4.28354,5.905845,3.2604933,2.9907143,9.260043,1.2423159,1,1683969787.3683062
0.062015813,0.53375065,-0.2968466,-4.28354,5.905845,3.2604933,2.9907143,9.260043,1.2423159,1,1683969787.378528
0.062015813,0.53375065,-0.2968466,-5.554903,6.2830544,3.6796994,2.9907143,9.260043,1.2423159,1,1683969787.3938642
0.062015813,0.53375065,-0.2968466,-5.554903,6.2830544,3.6796994,3.1754055,9.114185,1.7562844,1,1683969787.3989942
0.062015813,0.53375065,-0.2968466,-6.1393485,6.023895,3.5445457,3.1754055,9.114185,1.7562844,1,1683969787.409252
0.062015813,0.53375065,-0.2968466,-6.1393485,6.023895,3.5445457,3.432044,8.785025,2.6982474,1,1683969787.4194534
0.36404565,0.6412569,-0.125861,-6.1393485,6.023895,3.5445457,3.432044,8.785025,2.6982474,1,1683969787.4398854
0.36404565,0.6412569,-0.125861,-6.2451806,5.5171824,3.2049046,3.432044,8.785025,2.6982474,1,1683969787.4603221
0.36404565,0.6412569,-0.125861,-6.2451806,5.5171824,3.2049046,3.4958475,8.650016,3.031895,1,1683969787.465456
0.36404565,0.6412569,-0.125861,1.3365731,-0.52564955,-0.32085696,3.4958475,8.650016,3.031895,1,1683969787.4705877
0.36404565,0.6412569,-0.125861,1.3365731,-0.52564955,-0.32085696,3.0965116,7.980695,4.791269,1,1683969787.4859707
1.6969284,1.4286199,0.54167795,1.3365731,-0.52564955,-0.32085696,3.0965116,7.980695,4.791269,1,1683969787.4911077
1.6682682,1.3620307,0.47825962,1.3365731,-0.52564955,-0.32085696,3.0965116,7.980695,4.791269,1,1683969787.5268743
1.6682682,1.3620307,0.47825962,2.196366,-1.9506454,-1.8889481,3.0965116,7.980695,4.791269,1,1683969787.5319886
1.6682682,1.3620307,0.47825962,2.196366,-1.9506454,-1.8889481,3.106115,8.08854,4.6004004,1,1683969787.5371184
1.2881849,1.1705562,0.65137947,2.196366,-1.9506454,-1.8889481,3.106115,8.08854,4.6004004,1,1683969787.5524695
1.2881849,1.1705562,0.65137947,2.196366,-1.9506454,-1.8889481,3.0425093,8.252234,4.3450966,1,1683969787.5678554
1.2881849,1.1705562,0.65137947,3.0561588,-3.200934,-3.0967813,3.0425093,8.252234,4.3450966,1,1683969787.572983
1.2881849,1.1705562,0.65137947,3.0561588,-3.200934,-3.0967813,2.9277208,8.464321,4.002479,1,1683969787.5883265
0.7738866,0.8241945,0.7829725,3.0561588,-3.200934,-3.0967813,2.9277208,8.464321,4.002479,1,1683969787.5934575
0.7738866,0.8241945,0.7829725,3.8935025,-3.9510765,-3.843564,2.9277208,8.464321,4.002479,1,1683969787.598585
0.38740066,0.59991306,0.8573671,3.8935025,-3.9510765,-3.843564,2.9277208,8.464321,4.002479,1,1683969787.6241605
0.38740066,0.59991306,0.8573671,4.3209553,-4.07554,-3.871053,2.9277208,8.464321,4.002479,1,1683969787.6343756
0.38740066,0.59991306,0.8573671,4.3209553,-4.07554,-3.871053,2.7716172,8.693774,3.6017406,1,1683969787.6394951
0.38740066,0.59991306,0.8573671,4.487569,-3.817755,-3.5894442,2.7716172,8.693774,3.6017406,1,1683969787.6701896
0.38740066,0.59991306,0.8573671,4.487569,-3.817755,-3.5894442,2.5894723,8.915295,3.1699014,1,1683969787.675281
0.07549221,0.47618634,0.86358696,4.487569,-3.817755,-3.5894442,2.5894723,8.915295,3.1699014,1,1683969787.680412
-0.5452148,0.31696972,0.67930794,4.487569,-3.817755,-3.5894442,2.5894723,8.915295,3.1699014,1,1683969787.7009065
-0.5452148,0.31696972,0.67930794,4.487569,-3.817755,-3.5894442,2.4027529,9.107821,2.7405229,1,1683969787.7060392
-0.5452148,0.31696972,0.67930794,4.2281036,-2.640465,-2.4596488,2.4027529,9.107821,2.7405229,1,1683969787.7111778
-1.0467684,0.14616705,0.316116,4.2281036,-2.640465,-2.4596488,2.4027529,9.107821,2.7405229,1,1683969787.7214227
-1.0467684,0.14616705,0.316116,2.7751608,-0.5145013,-0.6420194,2.4027529,9.107821,2.7405229,1,1683969787.7316022
-1.0467684,0.14616705,0.316116,2.7751608,-0.5145013,-0.6420194,2.2469242,9.253434,2.3582628,1,1683969787.74697
-0.7197981,-0.27099144,1.492892,2.7751608,-0.5145013,-0.6420194,2.2469242,9.253434,2.3582628,1,1683969787.7572334
-0.7197981,-0.27099144,1.492892,2.7751608,-0.5145013,-0.6420194,2.367168,8.803516,3.6236367,1,1683969787.762365
-0.7197981,-0.27099144,1.492892,-0.6629415,1.415222,-0.40240747,2.367168,8.803516,3.6236367,1,1683969787.7674768
-0.7197981,-0.27099144,1.492892,-0.44623706,2.1516201,0.33215797,2.367168,8.803516,3.6236367,1,1683969787.8084784
-0.81968194,-0.2660521,1.4705126,-0.44623706,2.1516201,0.33215797,2.367168,8.803516,3.6236367,1,1683969787.8136082
-0.81968194,-0.2660521,1.4705126,-0.44623706,2.1516201,0.33215797,2.2803829,8.783388,3.7266698,1,1683969787.8186996
-0.8502936,-0.22123243,1.2189126,-0.44623706,2.1516201,0.33215797,2.2803829,8.783388,3.7266698,1,1683969787.8391054
-0.8502936,-0.22123243,1.2189126,-0.44623706,2.1516201,0.33215797,2.2389574,8.754252,3.819195,1,1683969787.844234
-0.8502936,-0.22123243,1.2189126,0.20845777,2.9106202,1.6155858,2.2389574,8.754252,3.819195,1,1683969787.8493674
-0.8502936,-0.22123243,1.2189126,0.9772317,2.9251282,2.8141034,2.2389574,8.754252,3.819195,1,1683969787.859624
-0.7623616,-0.19556019,0.6963821,0.9772317,2.9251282,2.8141034,2.2389574,8.754252,3.819195,1,1683969787.8801348
-0.7623616,-0.19556019,0.6963821,0.9772317,2.9251282,2.8141034,2.256606,8.724182,3.8771744,1,1683969787.8852637
-0.7623616,-0.19556019,0.6963821,0.9772317,2.9251282,2.8141034,2.4219182,8.68255,3.8708827,1,1683969787.8955162
-0.7623616,-0.19556019,0.6963821,1.5383114,2.3721426,3.7007744,2.4219182,8.68255,3.8708827,1,1683969787.905779
-0.46161228,-0.120921694,0.2935537,1.5383114,2.3721426,3.7007744,2.4219182,8.68255,3.8708827,1,1683969787.916039
-0.46161228,-0.120921694,0.2935537,1.5383114,2.3721426,3.7007744,2.6463275,8.65198,3.7916107,1,1683969787.9262743
0.30550563,0.3867299,-0.0834195,1.5383114,2.3721426,3.7007744,2.6463275,8.65198,3.7916107,1,1683969787.931386
0.30550563,0.3867299,-0.0834195,2.0288363,1.4920384,4.3165264,2.6463275,8.65198,3.7916107,1,1683969787.9569306
0.97627646,1.0027415,-0.29330978,2.0288363,1.4920384,4.3165264,2.6463275,8.65198,3.7916107,1,1683969787.9671507
0.97627646,1.0027415,-0.29330978,2.1146626,0.91247994,4.117232,2.6463275,8.65198,3.7916107,1,1683969787.972283
0.97627646,1.0027415,-0.29330978,2.1146626,0.91247994,4.117232,2.9447773,8.613753,3.656184,1,1683969787.9825358
0.97627646,1.0027415,-0.29330978,2.1146626,0.91247994,4.117232,3.3727365,8.54807,3.4338424,1,1683969788.0133164
0.97627646,1.0027415,-0.29330978,1.8185458,0.51923543,3.0891457,3.3727365,8.54807,3.4338424,1,1683969788.018448
1.6144235,1.6475961,-0.40410894,1.8185458,0.51923543,3.0891457,3.3727365,8.54807,3.4338424,1,1683969788.0235684
1.3569084,1.3411148,-0.27306473,1.8185458,0.51923543,3.0891457,3.3727365,8.54807,3.4338424,1,1683969788.0388432
1.3569084,1.3411148,-0.27306473,1.8185458,0.51923543,3.0891457,3.056249,8.540257,3.7362342,1,1683969788.0439818
1.3569084,1.3411148,-0.27306473,1.0302242,0.84696466,3.67466,3.056249,8.540257,3.7362342,1,1683969788.0542254
1.3569084,1.3411148,-0.27306473,-0.045356743,1.2789991,2.6783388,3.056249,8.540257,3.7362342,1,1683969788.0747
1.3569084,1.3411148,-0.27306473,-0.045356743,1.2789991,2.6783388,3.3004284,8.465959,3.6974087,1,1683969788.0849643
1.7840675,1.7061971,-0.26910108,-0.045356743,1.2789991,2.6783388,3.3004284,8.465959,3.6974087,1,1683969788.0952008
1.9964579,2.020118,-0.21354906,-0.045356743,1.2789991,2.6783388,3.3004284,8.465959,3.6974087,1,1683969788.105456
1.9964579,2.020118,-0.21354906,-0.045356743,1.2789991,2.6783388,3.4647658,8.383306,3.7351997,1,1683969788.120845
1.9964579,2.020118,-0.21354906,-0.77304995,1.4382823,1.5963436,3.4647658,8.383306,3.7351997,1,1683969788.1259744
1.9964579,2.020118,-0.21354906,-0.77304995,1.4382823,1.5963436,3.5391314,8.307947,3.8325827,1,1683969788.1463168
1.9964579,2.020118,-0.21354906,-1.3011429,1.4126259,0.5161811,3.5391314,8.307947,3.8325827,1,1683969788.151406
1.9490162,2.1524427,-0.1197021,-1.3011429,1.4126259,0.5161811,3.5391314,8.307947,3.8325827,1,1683969788.1565337
1.9490162,2.1524427,-0.1197021,-1.3011429,1.4126259,0.5161811,3.5014513,8.224983,4.0404973,1,1683969788.1821709
1.9490162,2.1524427,-0.1197021,-1.628414,1.1155926,-0.68218374,3.5014513,8.224983,4.0404973,1,1683969788.1975796
1.7233322,2.0977442,0.014695979,-1.628414,1.1155926,-0.68218374,3.5014513,8.224983,4.0404973,1,1683969788.2027125
1.7233322,2.0977442,0.014695979,-1.628414,1.1155926,-0.68218374,3.4009876,8.194756,4.18514,1,1683969788.2181034
1.7233322,2.0977442,0.014695979,-1.6542231,0.74021596,-1.4782939,3.4009876,8.194756,4.18514,1,1683969788.2282875
1.5066123,1.8962082,0.10451829,-1.6542231,0.74021596,-1.4782939,3.4009876,8.194756,4.18514,1,1683969788.233411
1.3369682,1.7091851,0.1606801,-1.6542231,0.74021596,-1.4782939,3.4009876,8.194756,4.18514,1,1683969788.2436724
1.3369682,1.7091851,0.1606801,-1.598329,0.4427246,-1.9853121,3.4009876,8.194756,4.18514,1,1683969788.2641442
1.3369682,1.7091851,0.1606801,-1.598329,0.4427246,-1.9853121,3.334166,8.187258,4.25303,1,1683969788.274377
1.0526224,1.337578,0.24428254,-1.598329,0.4427246,-1.9853121,3.334166,8.187258,4.25303,1,1683969788.279498
1.0526224,1.337578,0.24428254,-1.48089,-0.044135015,-2.6946793,3.334166,8.187258,4.25303,1,1683969788.2846315
-0.2087317,0.08451713,0.77242315,-1.48089,-0.044135015,-2.6946793,3.334166,8.187258,4.25303,1,1683969788.3154023
-0.2087317,0.08451713,0.77242315,-0.9995282,-0.49861875,-2.797152,3.334166,8.187258,4.25303,1,1683969788.3205333
-0.2087317,0.08451713,0.77242315,-0.9995282,-0.49861875,-2.797152,1.9925096,7.9207063,5.434006,1,1683969788.3256655
-0.59222966,-0.13695921,0.9495066,-0.9995282,-0.49861875,-2.797152,1.9925096,7.9207063,5.434006,1,1683969788.346146
-0.59222966,-0.13695921,0.9495066,-0.9995282,-0.49861875,-2.797152,1.807666,7.9061575,5.5191603,1,1683969788.3563282
-0.59222966,-0.13695921,0.9495066,-1.063211,-0.07192938,-2.1896465,1.807666,7.9061575,5.5191603,1,1683969788.3614535
-0.59222966,-0.13695921,0.9495066,-0.9472993,0.2843578,-1.4379768,1.807666,7.9061575,5.5191603,1,1683969788.3870106
-0.59222966,-0.13695921,0.9495066,-0.9472993,0.2843578,-1.4379768,1.6424654,7.8776445,5.610806,1,1683969788.3972757
-0.85419625,-0.25336844,1.050976,-0.9472993,0.2843578,-1.4379768,1.6424654,7.8776445,5.610806,1,1683969788.402411
-1.0690868,-0.35691106,1.0746968,-0.9472993,0.2843578,-1.4379768,1.6424654,7.8776445,5.610806,1,1683969788.412668
-1.0690868,-0.35691106,1.0746968,-0.6973027,0.7502952,-0.21639901,1.6424654,7.8776445,5.610806,1,1683969788.4178007
-1.0690868,-0.35691106,1.0746968,-0.6973027,0.7502952,-0.21639901,1.4651467,7.8203545,5.738599,1,1683969788.4331882
-1.0690868,-0.35691106,1.0746968,-0.46883908,1.0671816,0.8970556,1.4651467,7.8203545,5.738599,1,1683969788.453713
-1.1309197,-0.386425,1.0075588,-0.46883908,1.0671816,0.8970556,1.4651467,7.8203545,5.738599,1,1683969788.4588435
-1.1309197,-0.386425,1.0075588,-0.46883908,1.0671816,0.8970556,1.4125974,7.777596,5.8094487,1,1683969788.46397
-1.1309197,-0.386425,1.0075588,-0.46883908,1.0671816,0.8970556,1.4095871,7.75528,5.8399324,1,1683969788.4947157
-1.1309197,-0.386425,1.0075588,-0.30024028,1.2597568,1.7559321,1.4095871,7.75528,5.8399324,1,1683969788.4998474
-1.0737212,-0.37685126,0.94103056,-0.30024028,1.2597568,1.7559321,1.4095871,7.75528,5.8399324,1,1683969788.510103
-1.0737212,-0.37685126,0.94103056,-0.01572978,1.4468343,3.1535919,1.4095871,7.75528,5.8399324,1,1683969788.5151987
-1.0737212,-0.37685126,0.94103056,-0.01572978,1.4468343,3.1535919,1.5015949,7.68238,5.9128976,1,1683969788.5357199
-0.78175294,-0.28080907,0.81175464,-0.01572978,1.4468343,3.1535919,1.5015949,7.68238,5.9128976,1,1683969788.5408127
-0.78175294,-0.28080907,0.81175464,0.20357084,1.6727017,4.2638392,1.5015949,7.68238,5.9128976,1,1683969788.5715902
-0.13610551,0.0052442085,0.7444947,0.20357084,1.6727017,4.2638392,1.5015949,7.68238,5.9128976,1,1683969788.576724
1.0106688,1.1254315,0.5646671,0.20357084,1.6727017,4.2638392,1.5015949,7.68238,5.9128976,1,1683969788.5818563
1.0106688,1.1254315,0.5646671,0.2612976,1.4752395,2.981786,1.5015949,7.68238,5.9128976,1,1683969788.5921187
1.0106688,1.1254315,0.5646671,0.2612976,1.4752395,2.981786,1.8333869,6.456141,7.1549315,1,1683969788.6023824
1.0106688,1.1254315,0.5646671,0.2612976,1.4752395,2.981786,2.0007877,6.406663,7.154553,1,1683969788.6229053
1.0106688,1.1254315,0.5646671,0.1695151,0.6908886,1.6577356,2.0007877,6.406663,7.154553,1,1683969788.6331255
1.4013622,1.5855803,0.30520073,0.1695151,0.6908886,1.6577356,2.0007877,6.406663,7.154553,1,1683969788.6382592
1.4013622,1.5855803,0.30520073,0.093767814,0.016798794,0.55771995,2.0007877,6.406663,7.154553,1,1683969788.6587675
1.4013622,1.5855803,0.30520073,0.093767814,0.016798794,0.55771995,2.0639024,6.395644,7.1464777,1,1683969788.679194
1.4614878,1.7196734,0.27129632,0.093767814,0.016798794,0.55771995,2.0639024,6.395644,7.1464777,1,1683969788.6843245
1.3675798,1.6907084,0.35124,0.093767814,0.016798794,0.55771995,2.0639024,6.395644,7.1464777,1,1683969788.6997273
1.3675798,1.6907084,0.35124,0.093767814,0.016798794,0.55771995,2.1260548,6.401241,7.1232095,1,1683969788.7151182
1.3675798,1.6907084,0.35124,0.006872234,-0.38973203,-0.2667954,2.1260548,6.401241,7.1232095,1,1683969788.72025
1.3675798,1.6907084,0.35124,0.006872234,-0.38973203,-0.2667954,2.129988,6.4225564,7.102818,1,1683969788.7407625
1.1353102,1.4907577,0.4821013,0.006872234,-0.38973203,-0.2667954,2.129988,6.4225564,7.102818,1,1683969788.7458951
1.1353102,1.4907577,0.4821013,-0.24388795,-0.47525316,-1.1972959,2.129988,6.4225564,7.102818,1,1683969788.751026
0.9915823,1.3647748,0.52765274,-0.24388795,-0.47525316,-1.1972959,2.129988,6.4225564,7.102818,1,1683969788.7612793
0.9915823,1.3647748,0.52765274,-0.42836925,-0.3306308,-1.5212072,2.129988,6.4225564,7.102818,1,1683969788.7715566
0.9915823,1.3647748,0.52765274,-0.42836925,-0.3306308,-1.5212072,2.1138577,6.428899,7.1018996,1,1683969788.7920735
0.9915823,1.3647748,0.52765274,-0.6423248,-0.09636399,-1.7675385,2.1138577,6.428899,7.1018996,1,1683969788.8074155
0.85041547,1.2198273,0.559179,-0.6423248,-0.09636399,-1.7675385,2.1138577,6.428899,7.1018996,1,1683969788.8176281
0.85041547,1.2198273,0.559179,-0.6423248,-0.09636399,-1.7675385,2.0522187,6.434197,7.115168,1,1683969788.8227582
0.85041547,1.2198273,0.559179,-1.148274,0.53786683,-2.092977,2.0522187,6.434197,7.115168,1,1683969788.8432431
0.54460496,0.86773354,0.5800948,-1.148274,0.53786683,-2.092977,2.0522187,6.434197,7.115168,1,1683969788.8535054
1.1390299,1.135676,0.6249145,-1.148274,0.53786683,-2.092977,2.0522187,6.434197,7.115168,1,1683969788.874014
1.1390299,1.135676,0.6249145,0.41798455,1.3596333,2.919783,2.0522187,6.434197,7.115168,1,1683969788.8842742
1.1390299,1.135676,0.6249145,0.41798455,1.3596333,2.919783,1.5981271,5.9304247,7.6493244,1,1683969788.8894053
1.1390299,1.135676,0.6249145,0.3294091,1.1607966,2.1772764,1.5981271,5.9304247,7.6493244,1,1683969788.8996649
1.299527,1.3678237,0.48630884,0.3294091,1.1607966,2.1772764,1.5981271,5.9304247,7.6493244,1,1683969788.9047985
1.299527,1.3678237,0.48630884,0.3294091,1.1607966,2.1772764,1.6384554,5.9257855,7.644386,1,1683969788.9150555
1.299527,1.3678237,0.48630884,0.18875736,0.71578133,1.0635164,1.6384554,5.9257855,7.644386,1,1683969788.9304428
1.299527,1.3678237,0.48630884,0.18875736,0.71578133,1.0635164,1.6722931,5.9221277,7.639892,1,1683969788.9407015
1.3609331,1.5141128,0.3594112,0.18875736,0.71578133,1.0635164,1.6722931,5.9221277,7.639892,1,1683969788.9612134
1.2928803,1.5186251,0.32654345,0.18875736,0.71578133,1.0635164,1.6722931,5.9221277,7.639892,1,1683969788.966345
1.2928803,1.5186251,0.32654345,0.18875736,0.71578133,1.0635164,1.736128,5.92054,7.626872,1,1683969788.9817264
1.2928803,1.5186251,0.32654345,0.04337143,0.34147367,0.18127427,1.736128,5.92054,7.626872,1,1683969788.9971163
1.2928803,1.5186251,0.32654345,-0.19746219,0.015577064,-0.7480045,1.736128,5.92054,7.626872,1,1683969789.017603
1.2928803,1.5186251,0.32654345,-0.19746219,0.015577064,-0.7480045,1.7362422,5.936043,7.614786,1,1683969789.0278618
1.1540308,1.437096,0.3603259,-0.19746219,0.015577064,-0.7480045,1.7362422,5.936043,7.614786,1,1683969789.0329933
0.97889864,1.2786112,0.4241711,-0.19746219,0.015577064,-0.7480045,1.7362422,5.936043,7.614786,1,1683969789.0586023
0.97889864,1.2786112,0.4241711,-0.19746219,0.015577064,-0.7480045,1.704597,5.941425,7.617738,1,1683969789.0637305
0.97889864,1.2786112,0.4241711,-0.37048978,-0.028099801,-1.1636983,1.704597,5.941425,7.617738,1,1683969789.0688627
0.97889864,1.2786112,0.4241711,-0.7119634,0.15027285,-1.6592628,1.704597,5.941425,7.617738,1,1683969789.0739956
0.97889864,1.2786112,0.4241711,-0.7119634,0.15027285,-1.6592628,1.6447948,5.9370747,7.6342583,1,1683969789.079132
0.7340672,1.0464635,0.4921019,-0.7119634,0.15027285,-1.6592628,1.6447948,5.9370747,7.6342583,1,1683969789.0842834
0.7340672,1.0464635,0.4921019,-1.0926852,0.50579643,-1.9656117,1.6447948,5.9370747,7.6342583,1,1683969789.1252694
0.7340672,1.0464635,0.4921019,-1.0926852,0.50579643,-1.9656117,1.551752,5.9163723,7.669727,1,1683969789.135517
0.7340672,1.0464635,0.4921019,-0.95356065,0.13744467,-0.99204516,1.551752,5.9163723,7.669727,1,1683969789.145774
-0.7356527,-0.42148802,1.0380484,-0.95356065,0.13744467,-0.99204516,1.551752,5.9163723,7.669727,1,1683969789.1560352
-0.7356527,-0.42148802,1.0380484,-0.95356065,0.13744467,-0.99204516,0.7408291,4.8985305,8.467094,1,1683969789.171385
-0.7356527,-0.42148802,1.0380484,-0.95356065,0.13744467,-0.99204516,0.66792804,4.7964544,8.531354,1,1683969789.1970522
-0.7356527,-0.42148802,1.0380484,-0.23625213,-0.16554448,0.10170906,0.66792804,4.7964544,8.531354,1,1683969789.2021892
-0.8247433,-0.44679436,1.2985513,-0.23625213,-0.16554448,0.10170906,0.66792804,4.7964544,8.531354,1,1683969789.2124085
-0.6968699,-0.3838029,1.3528838,-0.23625213,-0.16554448,0.10170906,0.66792804,4.7964544,8.531354,1,1683969789.2226722
-0.6968699,-0.3838029,1.3528838,-0.23625213,-0.16554448,0.10170906,0.6828326,4.7761555,8.541557,1,1683969789.2277925
-0.6968699,-0.3838029,1.3528838,0.28970283,-0.06963864,0.95447695,0.6828326,4.7761555,8.541557,1,1683969789.2483006
-0.6968699,-0.3838029,1.3528838,0.28970283,-0.06963864,0.95447695,0.700905,4.7786055,8.538721,1,1683969789.2636862
-0.538629,-0.2828214,1.3264189,0.28970283,-0.06963864,0.95447695,0.700905,4.7786055,8.538721,1,1683969789.2688236
-0.538629,-0.2828214,1.3264189,0.5795584,0.118966006,1.5138768,0.700905,4.7786055,8.538721,1,1683969789.279087
-0.538629,-0.2828214,1.3264189,0.8472701,0.627664,2.3170118,0.700905,4.7786055,8.538721,1,1683969789.299605
-0.0851879,0.041282896,1.1204313,0.8472701,0.627664,2.3170118,0.700905,4.7786055,8.538721,1,1683969789.304736
-0.0851879,0.041282896,1.1204313,0.8472701,0.627664,2.3170118,0.77233726,4.8184943,8.510096,1,1683969789.3201284
-0.0851879,0.041282896,1.1204313,0.82711154,0.73746705,2.4712553,0.77233726,4.8184943,8.510096,1,1683969789.330386
-0.0851879,0.041282896,1.1204313,0.82711154,0.73746705,2.4712553,0.8245875,4.8583527,8.482486,1,1683969789.3405933
0.17696154,0.29465136,0.9091994,0.82711154,0.73746705,2.4712553,0.8245875,4.8583527,8.482486,1,1683969789.3457258
0.58936363,0.7388236,0.62424374,0.82711154,0.73746705,2.4712553,0.8245875,4.8583527,8.482486,1,1683969789.3611102
0.58936363,0.7388236,0.62424374,0.82711154,0.73746705,2.4712553,0.88778335,4.9013786,8.451298,1,1683969789.366242
0.58936363,0.7388236,0.62424374,0.54168475,-0.02031127,1.7534887,0.88778335,4.9013786,8.451298,1,1683969789.3866336
0.58936363,0.7388236,0.62424374,0.70173144,0.44104472,2.270586,0.88778335,4.9013786,8.451298,1,1683969789.4122276
0.58936363,0.7388236,0.62424374,-0.058184914,0.20234911,0.25213462,0.88778335,4.9013786,8.451298,1,1683969789.4327378
0.46472222,0.78157,0.860721,-0.058184914,0.20234911,0.25213462,0.88778335,4.9013786,8.451298,1,1683969789.437869
0.46472222,0.78157,0.860721,-0.058184914,0.20234911,0.25213462,0.9675366,4.9261694,8.428098,1,1683969789.4481306
0.46472222,0.78157,0.860721,-0.058184914,0.20234911,0.25213462,0.96458614,4.9220967,8.430816,1,1683969789.4583874
0.46472222,0.78157,0.860721,-0.14431691,0.31627548,0.063224554,0.96458614,4.9220967,8.430816,1,1683969789.473748
0.43959883,0.7765697,0.82809705,-0.14431691,0.31627548,0.063224554,0.96458614,4.9220967,8.430816,1,1683969789.478872
0.43959883,0.7765697,0.82809705,-0.22159137,0.36285394,-0.12522738,0.96458614,4.9220967,8.430816,1,1683969789.4891222
0.43959883,0.7765697,0.82809705,-0.22159137,0.36285394,-0.12522738,0.9456778,4.9133396,8.438063,1,1683969789.5095935
0.40069413,0.7531537,0.81632805,-0.22159137,0.36285394,-0.12522738,0.9456778,4.9133396,8.438063,1,1683969789.5147266
0.40069413,0.7531537,0.81632805,-0.2762638,0.35414913,-0.32559118,0.9456778,4.9133396,8.438063,1,1683969789.5403297
0.40069413,0.7531537,0.81632805,-0.2762638,0.35414913,-0.32559118,0.91559756,4.9006047,8.448779,1,1683969789.5454607
0.3392271,0.70266294,0.8190112,-0.2762638,0.35414913,-0.32559118,0.91559756,4.9006047,8.448779,1,1683969789.5557153
0.3392271,0.70266294,0.8190112,-0.28527406,0.3268129,-0.41218132,0.91559756,4.9006047,8.448779,1,1683969789.5608468
0.31184745,0.6697342,0.82864594,-0.28527406,0.3268129,-0.41218132,0.91559756,4.9006047,8.448779,1,1683969789.5659816
0.31184745,0.6697342,0.82864594,-0.28527406,0.3268129,-0.41218132,0.8978844,4.89323,8.454952,1,1683969789.5813208
0.31184745,0.6697342,0.82864594,-0.28527406,0.3268129,-0.41218132,0.8401705,4.869358,8.474644,1,1683969789.5966985
0.237087,0.59222966,0.85017157,-0.28527406,0.3268129,-0.41218132,0.8401705,4.869358,8.474644,1,1683969789.6018395
0.237087,0.59222966,0.85017157,-0.27091873,0.27259862,-0.47403142,0.8401705,4.869358,8.474644,1,1683969789.617227
0.237087,0.59222966,0.85017157,-0.21777347,0.20295998,-0.48197266,0.8401705,4.869358,8.474644,1,1683969789.6530962
0.17244908,0.529726,0.88194174,-0.21777347,0.20295998,-0.48197266,0.8401705,4.869358,8.474644,1,1683969789.6581879
0.17244908,0.529726,0.88194174,-0.21777347,0.20295998,-0.48197266,0.80225015,4.8543177,8.4869375,1,1683969789.663276
0.13177599,0.47453988,0.9056016,-0.21777347,0.20295998,-0.48197266,0.80225015,4.8543177,8.4869375,1,1683969789.67346
0.13177599,0.47453988,0.9056016,-0.12950343,0.13148874,-0.44089198,0.80225015,4.8543177,8.4869375,1,1683969789.678541
0.13177599,0.47453988,0.9056016,-0.10125092,0.16905695,-0.0041233404,0.80225015,4.8543177,8.4869375,1,1683969789.6990104
0.13177599,0.47453988,0.9056016,-0.10125092,0.16905695,-0.0041233404,0.63066506,4.911448,8.468533,1,1683969789.7092617
0.13177599,0.47453988,0.9056016,-0.103847094,0.17027868,0.001985312,0.63066506,4.911448,8.468533,1,1683969789.7297757
0.11665315,0.4607586,0.8502936,-0.103847094,0.17027868,0.001985312,0.63066506,4.911448,8.468533,1,1683969789.7349074
0.11665315,0.4607586,0.8502936,-0.103847094,0.17027868,0.001985312,0.61906844,4.903119,8.474214,1,1683969789.7502959
0.13762999,0.46856394,0.8533425,-0.103847094,0.17027868,0.001985312,0.61906844,4.903119,8.474214,1,1683969789.7605066
0.13762999,0.46856394,0.8533425,-0.08032878,0.15195273,-0.00030543262,0.61906844,4.903119,8.474214,1,1683969789.7707388
0.13762999,0.46856394,0.8533425,-0.08032878,0.15195273,-0.00030543262,0.6027018,4.8910575,8.48236,1,1683969789.7911296
0.13762999,0.46856394,0.8533425,-0.08032878,0.15195273,-0.00030543262,0.5980028,4.887974,8.484468,1,1683969789.796263
0.15860681,0.4922848,0.8480983,-0.08032878,0.15195273,-0.00030543262,0.5980028,4.887974,8.484468,1,1683969789.8013973
0.15860681,0.4922848,0.8480983,-0.059253927,0.12996158,-0.02321288,0.5980028,4.887974,8.484468,1,1683969789.8218794
0.15860681,0.4922848,0.8480983,-0.059253927,0.12996158,-0.02321288,0.58559227,4.882832,8.488295,1,1683969789.832135
0.17543708,0.51905465,0.87810004,-0.059253927,0.12996158,-0.02321288,0.58559227,4.882832,8.488295,1,1683969789.8423955
0.17543708,0.51905465,0.87810004,-0.017715093,0.08445212,-0.12156218,0.58559227,4.882832,8.488295,1,1683969789.8526452
0.1516552,0.5073467,0.8596233,-0.017715093,0.08445212,-0.12156218,0.58559227,4.882832,8.488295,1,1683969789.8781884
0.1516552,0.5073467,0.8596233,-0.017715093,0.08445212,-0.12156218,0.57418346,4.8840685,8.488362,1,1683969789.883278
