acc_x,acc_y,acc_z,gyr_x,gyr_y,gyr_z,grav_x,grav_y,grav_z,label,timestamp
0.5085053,0.6404032,0.62009716,7.196298,-8.731402,-6.2917595,2.9888737,9.271641,1.1573493,1,1683969685.4917815
-0.8834662,0.28501663,0.66186786,5.8383446,-6.0419154,-3.7187948,2.0799754,9.574464,-0.4893529,1,1683969685.529949
-0.8834662,0.28501663,0.66186786,3.6758816,-3.302643,-1.561677,2.0799754,9.574464,-0.4893529,1,1683969685.5452948
-1.2975148,0.027684543,0.3720339,3.6758816,-3.302643,-1.561677,2.0799754,9.574464,-0.4893529,1,1683969685.55039
-1.2975148,0.027684543,0.3720339,1.5332718,-0.24831672,0.17547104,2.0799754,9.574464,-0.4893529,1,1683969685.5709054
-1.2975148,0.027684543,0.3720339,1.5332718,-0.24831672,0.17547104,2.0016274,9.5808935,-0.6603641,1,1683969685.576053
-1.3568474,-0.06378421,0.6426595,1.5332718,-0.24831672,0.17547104,2.0016274,9.5808935,-0.6603641,1,1683969685.5811806
-0.81053513,0.2177566,0.26056397,1.5332718,-0.24831672,0.17547104,2.0016274,9.5808935,-0.6603641,1,1683969685.5965295
-0.81053513,0.2177566,0.26056397,-1.5280794,5.7937512,2.636189,2.0016274,9.5808935,-0.6603641,1,1683969685.6067472
-0.81053513,0.2177566,0.26056397,-1.5280794,5.7937512,2.636189,2.0977478,9.558018,-0.692746,1,1683969685.6272042
-0.81053513,0.2177566,0.26056397,-1.5280794,5.7937512,2.636189,2.378215,9.510834,-0.352531,1,1683969685.6424963
-0.81053513,0.2177566,0.26056397,-4.2862887,9.155038,4.348902,2.378215,9.510834,-0.352531,1,1683969685.6476102
-0.3284948,0.4112435,-0.17879093,-4.2862887,9.155038,4.348902,2.378215,9.510834,-0.352531,1,1683969685.6527367
0.20312162,0.5849122,-0.19214535,-4.2862887,9.155038,4.348902,2.378215,9.510834,-0.352531,1,1683969685.6731696
0.20312162,0.5849122,-0.19214535,-4.2862887,9.155038,4.348902,2.9446042,9.338397,0.59980917,1,1683969685.6782997
0.20312162,0.5849122,-0.19214535,-6.190661,10.46122,5.2748213,2.9446042,9.338397,0.59980917,1,1683969685.6936855
0.20312162,0.5849122,-0.19214535,-7.18179,10.627223,5.4331884,2.9446042,9.338397,0.59980917,1,1683969685.7039528
0.49600452,0.7015653,-0.14525238,-7.18179,10.627223,5.4331884,2.9446042,9.338397,0.59980917,1,1683969685.7192957
0.49600452,0.7015653,-0.14525238,-7.18179,10.627223,5.4331884,3.301385,9.12459,1.4418147,1,1683969685.7295172
0.72168845,0.8180965,-0.06866254,-7.18179,10.627223,5.4331884,3.301385,9.12459,1.4418147,1,1683969685.7499573
0.72168845,0.8180965,-0.06866254,-7.7569194,10.176099,5.197852,3.301385,9.12459,1.4418147,1,1683969685.765341
0.72168845,0.8180965,-0.06866254,-7.7569194,10.176099,5.197852,3.5665128,8.827306,2.365328,1,1683969685.770469
0.72168845,0.8180965,-0.06866254,-7.9268928,8.824254,4.2676573,3.5665128,8.827306,2.365328,1,1683969685.7961066
0.72168845,0.8180965,-0.06866254,-7.9268928,8.824254,4.2676573,3.7143836,8.45827,3.3010786,1,1683969685.8012426
0.98597217,0.9529824,-0.04622221,-7.9268928,8.824254,4.2676573,3.7143836,8.45827,3.3010786,1,1683969685.80638
0.98597217,0.9529824,-0.04622221,-7.9268928,8.824254,4.2676573,3.7447302,8.049624,4.1733265,1,1683969685.8319898
1.3128815,1.1093941,0.007561417,-7.9268928,8.824254,4.2676573,3.7447302,8.049624,4.1733265,1,1683969685.8370817
1.3128815,1.1093941,0.007561417,-7.4533195,6.67187,2.965598,3.7447302,8.049624,4.1733265,1,1683969685.8421834
1.3128815,1.1093941,0.007561417,-5.4003544,2.3932173,0.7322747,3.7447302,8.049624,4.1733265,1,1683969685.847262
1.6339369,1.3165402,0.5100907,-5.4003544,2.3932173,0.7322747,3.7447302,8.049624,4.1733265,1,1683969685.8676558
1.6339369,1.3165402,0.5100907,-5.4003544,2.3932173,0.7322747,3.6944695,7.652909,4.90102,1,1683969685.8779123
1.6693046,1.364104,1.2108634,-5.4003544,2.3932173,0.7322747,3.6944695,7.652909,4.90102,1,1683969685.893336
1.6693046,1.364104,1.2108634,-2.1429152,-1.4761559,-0.97524637,3.6944695,7.652909,4.90102,1,1683969685.9035976
1.6693046,1.364104,1.2108634,-2.1429152,-1.4761559,-0.97524637,3.631423,7.265699,5.5007725,1,1683969685.9138489
1.6693046,1.364104,1.2108634,-2.1429152,-1.4761559,-0.97524637,3.6431859,7.237458,5.530145,1,1683969685.9189794
1.5225278,1.3555669,1.4705126,-2.1429152,-1.4761559,-0.97524637,3.6431859,7.237458,5.530145,1,1683969685.9343603
1.5225278,1.3555669,1.4705126,0.68966687,-3.9014437,-2.0783162,3.6431859,7.237458,5.530145,1,1683969685.9394796
1.5225278,1.3555669,1.4705126,0.68966687,-3.9014437,-2.0783162,3.739275,7.4840736,5.122751,1,1683969685.9548595
1.5225278,1.3555669,1.4705126,4.414723,-6.4455447,-3.6114354,3.739275,7.4840736,5.122751,1,1683969685.9651253
1.2725742,1.2262301,1.4849037,4.414723,-6.4455447,-3.6114354,3.739275,7.4840736,5.122751,1,1683969685.9702508
1.1003691,1.0661598,1.1575066,4.414723,-6.4455447,-3.6114354,3.739275,7.4840736,5.122751,1,1683969686.000904
1.1003691,1.0661598,1.1575066,4.414723,-6.4455447,-3.6114354,3.7692492,7.8343506,4.5444264,1,1683969686.0111659
1.1003691,1.0661598,1.1575066,6.35025,-7.53991,-4.757877,3.7692492,7.8343506,4.5444264,1,1683969686.0162945
1.1003691,1.0661598,1.1575066,6.35025,-7.53991,-4.757877,3.6418958,8.435415,3.4375098,1,1683969686.046967
0.819621,0.8851126,0.7374821,6.35025,-7.53991,-4.757877,3.6418958,8.435415,3.4375098,1,1683969686.0520587
0.819621,0.8851126,0.7374821,7.04236,-7.8097596,-5.4663277,3.6418958,8.435415,3.4375098,1,1683969686.0571847
0.55832523,0.7215665,0.43569615,7.04236,-7.8097596,-5.4663277,3.6418958,8.435415,3.4375098,1,1683969686.0674264
0.55832523,0.7215665,0.43569615,7.04236,-7.8097596,-5.4663277,3.4285626,8.80396,2.6403332,1,1683969686.0725102
0.55832523,0.7215665,0.43569615,6.945996,-7.827322,-5.6729527,3.4285626,8.80396,2.6403332,1,1683969686.0878937
0.55832523,0.7215665,0.43569615,6.294203,-7.595651,-5.3849297,3.4285626,8.80396,2.6403332,1,1683969686.1032465
0.1656804,0.5307627,0.30800578,6.294203,-7.595651,-5.3849297,3.4285626,8.80396,2.6403332,1,1683969686.113505
0.1656804,0.5307627,0.30800578,6.294203,-7.595651,-5.3849297,3.13267,9.108386,1.8600544,1,1683969686.123765
-0.25153908,0.42624438,0.4613074,6.294203,-7.595651,-5.3849297,3.13267,9.108386,1.8600544,1,1683969686.1391776
-0.25153908,0.42624438,0.4613074,5.525429,-6.7266955,-4.563927,3.13267,9.108386,1.8600544,1,1683969686.1443112
-0.25153908,0.42624438,0.4613074,5.525429,-6.7266955,-4.563927,2.7854254,9.335851,1.1486657,1,1683969686.1545634
-0.7948025,0.32501897,0.5712528,5.525429,-6.7266955,-4.563927,2.7854254,9.335851,1.1486657,1,1683969686.1802063
-0.7948025,0.32501897,0.5712528,5.525429,-6.7266955,-4.563927,2.44083,9.485826,0.54550374,1,1683969686.190464
-0.7948025,0.32501897,0.5712528,4.0808854,-4.1641154,-2.577546,2.44083,9.485826,0.54550374,1,1683969686.1955948
-1.2279985,-0.008476105,0.35514265,4.0808854,-4.1641154,-2.577546,2.44083,9.485826,0.54550374,1,1683969686.2161155
-1.2279985,-0.008476105,0.35514265,1.9016235,-0.9821186,-0.48258355,2.44083,9.485826,0.54550374,1,1683969686.22634
-1.2279985,-0.008476105,0.35514265,1.9016235,-0.9821186,-0.48258355,2.1136293,9.579455,-0.05240275,1,1683969686.2314665
-1.1585432,-0.095920235,0.47149092,1.9016235,-0.9821186,-0.48258355,2.1136293,9.579455,-0.05240275,1,1683969686.2417235
-1.1585432,-0.095920235,0.47149092,1.9016235,-0.9821186,-0.48258355,2.0892482,9.584135,-0.12449366,1,1683969686.2468507
-1.1585432,-0.095920235,0.47149092,-0.94225967,3.1351132,1.6067283,2.0892482,9.584135,-0.12449366,1,1683969686.26223
-1.1585432,-0.095920235,0.47149092,-0.94225967,3.1351132,1.6067283,2.178872,9.564939,-0.023790568,1,1683969686.2878292
0.31770146,0.6329028,-0.012927583,-0.94225967,3.1351132,1.6067283,2.178872,9.564939,-0.023790568,1,1683969686.3082607
0.31770146,0.6329028,-0.012927583,-6.7262373,10.106918,4.9185343,2.178872,9.564939,-0.023790568,1,1683969686.3185048
0.31770146,0.6329028,-0.012927583,-6.7262373,10.106918,4.9185343,2.837475,9.295671,1.3324238,1,1683969686.3236258
0.31770146,0.6329028,-0.012927583,-6.7262373,10.106918,4.9185343,3.1839817,8.90281,2.6150234,1,1683969686.3440921
0.31770146,0.6329028,-0.012927583,-7.6988873,10.194577,4.8113275,3.1839817,8.90281,2.6150234,1,1683969686.3492193
0.5986935,0.7783381,0.103115775,-7.6988873,10.194577,4.8113275,3.1839817,8.90281,2.6150234,1,1683969686.3594697
0.5986935,0.7783381,0.103115775,-7.6988873,10.194577,4.8113275,3.283637,8.546575,3.5227704,1,1683969686.3646014
0.5986935,0.7783381,0.103115775,-7.923686,9.477574,4.3182063,3.283637,8.546575,3.5227704,1,1683969686.3799744
0.7569344,0.87547797,0.08244383,-7.923686,9.477574,4.3182063,3.283637,8.546575,3.5227704,1,1683969686.3953223
1.0055465,1.0289015,0.1565945,-7.923686,9.477574,4.3182063,3.283637,8.546575,3.5227704,1,1683969686.4055815
1.0055465,1.0289015,0.1565945,-7.923686,9.477574,4.3182063,3.2779424,8.144158,4.3776555,1,1683969686.420965
1.0055465,1.0289015,0.1565945,-7.341073,7.1987414,3.0966287,3.2779424,8.144158,4.3776555,1,1683969686.4311996
1.0055465,1.0289015,0.1565945,-7.341073,7.1987414,3.0966287,3.2068758,7.7475224,5.0919485,1,1683969686.4363272
1.0055465,1.0289015,0.1565945,-5.7624445,4.1683917,1.7062993,3.2068758,7.7475224,5.0919485,1,1683969686.4465914
1.2343403,1.1265291,0.33636108,-5.7624445,4.1683917,1.7062993,3.2068758,7.7475224,5.0919485,1,1683969686.456855
1.539846,1.3539205,0.8241945,-5.7624445,4.1683917,1.7062993,3.2068758,7.7475224,5.0919485,1,1683969686.4825082
1.539846,1.3539205,0.8241945,-2.0890064,-0.7675522,-0.4072944,3.2068758,7.7475224,5.0919485,1,1683969686.4876432
1.539846,1.3539205,0.8241945,-2.0890064,-0.7675522,-0.4072944,3.1353593,7.34297,5.699687,1,1683969686.497881
1.539846,1.3539205,0.8241945,-2.0890064,-0.7675522,-0.4072944,3.1877248,7.326303,5.6920824,1,1683969686.5132594
1.539846,1.3539205,0.8241945,1.5399913,-4.604702,-2.1665864,3.1877248,7.326303,5.6920824,1,1683969686.5234294
1.5733844,1.4768544,1.1567138,1.5399913,-4.604702,-2.1665864,3.1877248,7.326303,5.6920824,1,1683969686.5285594
1.4261808,1.3889835,1.308125,1.5399913,-4.604702,-2.1665864,3.1877248,7.326303,5.6920824,1,1683969686.5388188
1.4261808,1.3889835,1.308125,4.6002736,-7.270671,-3.7003162,3.1877248,7.326303,5.6920824,1,1683969686.5592926
1.4261808,1.3889835,1.308125,4.6002736,-7.270671,-3.7003162,3.2940595,7.5349574,5.348804,1,1683969686.5695786
1.2798917,1.238121,1.2006798,4.6002736,-7.270671,-3.7003162,3.2940595,7.5349574,5.348804,1,1683969686.584974
1.2798917,1.238121,1.2006798,6.4802113,-8.661458,-4.8797445,3.2940595,7.5349574,5.348804,1,1683969686.5900955
1.2798917,1.238121,1.2006798,6.4802113,-8.661458,-4.8797445,3.3705242,7.8986063,4.7421184,1,1683969686.6054301
1.2798917,1.238121,1.2006798,7.255705,-9.015149,-5.527567,3.3705242,7.8986063,4.7421184,1,1683969686.6105597
1.1042107,1.1012838,1.1031741,7.255705,-9.015149,-5.527567,3.3705242,7.8986063,4.7421184,1,1683969686.6259344
1.1042107,1.1012838,1.1031741,7.255705,-9.015149,-5.527567,3.3737652,8.107972,4.3720264,1,1683969686.6361217
1.1042107,1.1012838,1.1031741,7.255705,-9.015149,-5.527567,3.1886055,8.73401,3.1282547,1,1683969686.6412106
1.1042107,1.1012838,1.1031741,7.6413136,-8.810662,-6.1071253,3.1886055,8.73401,3.1282547,1,1683969686.66686
0.62686586,0.75181216,0.6916867,7.6413136,-8.810662,-6.1071253,3.1886055,8.73401,3.1282547,1,1683969686.6719544
0.23159887,0.5420438,0.41636577,7.6413136,-8.810662,-6.1071253,3.1886055,8.73401,3.1282547,1,1683969686.6924338
0.23159887,0.5420438,0.41636577,7.1092496,-8.347168,-5.7975693,3.1886055,8.73401,3.1282547,1,1683969686.6975667
0.23159887,0.5420438,0.41636577,7.1092496,-8.347168,-5.7975693,2.9170902,9.084987,2.278097,1,1683969686.7026942
-0.10811607,0.4617343,0.4165487,7.1092496,-8.347168,-5.7975693,2.9170902,9.084987,2.278097,1,1683969686.7232006
-0.10811607,0.4617343,0.4165487,6.328564,-7.645437,-5.0428452,2.9170902,9.084987,2.278097,1,1683969686.73346
-0.10811607,0.4617343,0.4165487,6.328564,-7.645437,-5.0428452,2.383505,9.451139,1.1095016,1,1683969686.7385814
-0.5600937,0.4355132,0.456612,6.328564,-7.645437,-5.0428452,2.383505,9.451139,1.1095016,1,1683969686.7539682
-0.5600937,0.4355132,0.456612,5.0336823,-5.817575,-3.4584136,2.383505,9.451139,1.1095016,1,1683969686.7642374
-0.5600937,0.4355132,0.456612,5.0336823,-5.817575,-3.4584136,2.017761,9.589174,0.46097052,1,1683969686.7693667
-0.5600937,0.4355132,0.456612,3.488957,-3.409697,-1.8611537,2.017761,9.589174,0.46097052,1,1683969686.7898366
-0.5600937,0.4355132,0.456612,3.488957,-3.409697,-1.8611537,1.7177652,9.658315,-0.048475172,1,1683969686.81035
-0.8556597,0.3328243,0.3795953,3.488957,-3.409697,-1.8611537,1.7177652,9.658315,-0.048475172,1,1683969686.8154728
-0.8556597,0.3328243,0.3795953,3.488957,-3.409697,-1.8611537,1.5387821,9.681391,-0.3727641,1,1683969686.8359826
-0.980606,0.22873287,0.3322145,3.488957,-3.409697,-1.8611537,1.5387821,9.681391,-0.3727641,1,1683969686.8410738
-0.980606,0.22873287,0.3322145,3.488957,-3.409697,-1.8611537,1.5730757,9.674949,-0.3961553,1,1683969686.861551
-0.6882719,0.36788732,0.21537842,3.488957,-3.409697,-1.8611537,1.5730757,9.674949,-0.3961553,1,1683969686.8666742
-0.6882719,0.36788732,0.21537842,-1.6077974,4.3994517,1.943315,1.5730757,9.674949,-0.3961553,1,1683969686.8769293
-0.6882719,0.36788732,0.21537842,-3.5509596,7.0429707,3.0908253,1.5730757,9.674949,-0.3961553,1,1683969686.887189
-0.6882719,0.36788732,0.21537842,-3.5509596,7.0429707,3.0908253,1.7711314,9.648105,-0.11526032,1,1683969686.8974507
-0.3650823,0.55838627,-0.15708233,-3.5509596,7.0429707,3.0908253,1.7711314,9.648105,-0.11526032,1,1683969686.9076705
-0.3650823,0.55838627,-0.15708233,-5.1740284,8.401077,3.8728857,1.7711314,9.648105,-0.11526032,1,1683969686.9230585
-0.3650823,0.55838627,-0.15708233,-5.1740284,8.401077,3.8728857,2.0449572,9.587469,0.3670192,1,1683969686.9281871
-0.115555525,0.5880831,-0.27050358,-5.1740284,8.401077,3.8728857,2.0449572,9.587469,0.3670192,1,1683969686.9486916
-0.115555525,0.5880831,-0.27050358,-5.1740284,8.401077,3.8728857,2.0032327,9.476787,1.5536029,1,1683969686.9537823
0.052015226,0.6025351,-0.28458977,-5.1740284,8.401077,3.8728857,2.0032327,9.476787,1.5536029,1,1683969686.9589138
0.052015226,0.6025351,-0.28458977,-5.1740284,8.401077,3.8728857,2.3089218,9.178272,2.5815358,1,1683969686.9742846
0.24483135,0.65211123,-0.11604336,-5.1740284,8.401077,3.8728857,2.3089218,9.178272,2.5815358,1,1683969686.9794073
0.24483135,0.65211123,-0.11604336,-6.8201575,7.4171257,4.187939,2.3089218,9.178272,2.5815358,1,1683969686.984539
0.35739893,0.67010003,0.18671821,-6.8201575,7.4171257,4.187939,2.3089218,9.178272,2.5815358,1,1683969687.0202901
0.35739893,0.67010003,0.18671821,-6.7966394,6.3449044,4.0016255,2.3089218,9.178272,2.5815358,1,1683969687.0254319
0.35739893,0.67010003,0.18671821,-6.7966394,6.3449044,4.0016255,2.4648175,8.906158,3.2925866,1,1683969687.0408242
0.53131145,0.76797163,0.44167212,-6.7966394,6.3449044,4.0016255,2.4648175,8.906158,3.2925866,1,1683969687.0562103
0.53131145,0.76797163,0.44167212,-6.380029,5.4244833,3.5924985,2.4648175,8.906158,3.2925866,1,1683969687.0613384
0.53131145,0.76797163,0.44167212,-6.380029,5.4244833,3.5924985,2.5791814,8.591434,3.9712975,1,1683969687.066459
0.78309447,0.9473723,0.6039377,-6.380029,5.4244833,3.5924985,2.5791814,8.591434,3.9712975,1,1683969687.0972037
0.78309447,0.9473723,0.6039377,-6.380029,5.4244833,3.5924985,2.6494973,8.260522,4.580397,1,1683969687.10233
0.78309447,0.9473723,0.6039377,-5.570938,4.26277,2.8463266,2.6494973,8.260522,4.580397,1,1683969687.1126072
0.78309447,0.9473723,0.6039377,-5.570938,4.26277,2.8463266,2.6806474,7.953197,5.0790634,1,1683969687.1228728
1.141347,1.1561041,0.63595176,-5.570938,4.26277,2.8463266,2.6806474,7.953197,5.0790634,1,1683969687.127967
1.141347,1.1561041,0.63595176,-4.262465,2.4869852,1.6824756,2.6806474,7.953197,5.0790634,1,1683969687.1433659
1.141347,1.1561041,0.63595176,-1.5746579,-0.8680395,-0.4466952,2.6806474,7.953197,5.0790634,1,1683969687.1587553
1.6355222,1.4158143,0.8705386,-1.5746579,-0.8680395,-0.4466952,2.6806474,7.953197,5.0790634,1,1683969687.1638892
1.6355222,1.4158143,0.8705386,-1.5746579,-0.8680395,-0.4466952,2.702586,7.6514497,5.512483,1,1683969687.1792347
1.6355222,1.4158143,0.8705386,2.1847596,-4.782769,-2.8415923,2.702586,7.6514497,5.512483,1,1683969687.1946282
1.6355222,1.4158143,0.8705386,2.1847596,-4.782769,-2.8415923,2.735056,7.6481824,5.5009904,1,1683969687.1997678
1.7640665,1.5846046,1.1062231,2.1847596,-4.782769,-2.8415923,2.735056,7.6481824,5.5009904,1,1683969687.2048984
0.44740415,0.6748565,0.56686234,2.1847596,-4.782769,-2.8415923,2.735056,7.6481824,5.5009904,1,1683969687.230577
0.44740415,0.6748565,0.56686234,2.1847596,-4.782769,-2.8415923,2.1544225,9.052105,3.1070843,1,1683969687.2459793
0.44740415,0.6748565,0.56686234,7.2395167,-7.4030757,-6.068488,2.1544225,9.052105,3.1070843,1,1683969687.26134
0.16836348,0.5574716,0.3302022,7.2395167,-7.4030757,-6.068488,2.1544225,9.052105,3.1070843,1,1683969687.2767072
0.16836348,0.5574716,0.3302022,6.937597,-7.3740597,-5.876371,2.1544225,9.052105,3.1070843,1,1683969687.2818463
0.16836348,0.5574716,0.3302022,6.937597,-7.3740597,-5.876371,1.659962,9.455357,2.0191295,1,1683969687.2869835
-0.19293809,0.48057684,0.3404467,6.937597,-7.3740597,-5.876371,1.659962,9.455357,2.0191295,1,1683969687.3177292
-0.19293809,0.48057684,0.3404467,6.937597,-7.3740597,-5.876371,1.2723831,9.633725,1.3448024,1,1683969687.322865
-0.19293809,0.48057684,0.3404467,6.2253275,-7.0365567,-5.137835,1.2723831,9.633725,1.3448024,1,1683969687.3331301
-0.19293809,0.48057684,0.3404467,6.2253275,-7.0365567,-5.137835,0.88167596,9.741686,0.7472075,1,1683969687.3536263
-0.19293809,0.48057684,0.3404467,5.499925,-6.0138154,-4.0184245,0.88167596,9.741686,0.7472075,1,1683969687.3587646
-0.62826836,0.45728278,0.4871626,5.499925,-6.0138154,-4.0184245,0.88167596,9.741686,0.7472075,1,1683969687.368993
-0.62826836,0.45728278,0.4871626,4.3747115,-3.9229765,-2.3892467,0.88167596,9.741686,0.7472075,1,1683969687.3740892
-0.62826836,0.45728278,0.4871626,4.3747115,-3.9229765,-2.3892467,0.54423636,9.791889,0.2425542,1,1683969687.3843398
-1.0853683,0.3257507,0.4586853,4.3747115,-3.9229765,-2.3892467,0.54423636,9.791889,0.2425542,1,1683969687.3946476
-1.3035517,0.14043503,0.14073992,4.3747115,-3.9229765,-2.3892467,0.54423636,9.791889,0.2425542,1,1683969687.4306
-1.3035517,0.14043503,0.14073992,1.6914859,-0.54825157,0.06688975,0.54423636,9.791889,0.2425542,1,1683969687.4357364
-1.3035517,0.14043503,0.14073992,1.6914859,-0.54825157,0.06688975,0.27769268,9.802709,-0.25671208,1,1683969687.4408617
-1.3035517,0.14043503,0.14073992,1.6914859,-0.54825157,0.06688975,0.3187218,9.799524,-0.3222506,1,1683969687.4459977
-1.0999422,0.14677685,0.26007617,1.6914859,-0.54825157,0.06688975,0.3187218,9.799524,-0.3222506,1,1683969687.4511375
-1.0999422,0.14677685,0.26007617,-1.3646729,3.732692,2.385887,0.3187218,9.799524,-0.3222506,1,1683969687.4716258
-1.0999422,0.14677685,0.26007617,-1.3646729,3.732692,2.385887,0.52462816,9.794548,-0.16646263,1,1683969687.4818196
-0.65113556,0.3612406,-0.015854584,-1.3646729,3.732692,2.385887,0.52462816,9.794548,-0.16646263,1,1683969687.4869332
-0.65113556,0.3612406,-0.015854584,-3.3657148,6.5596237,3.7346773,0.52462816,9.794548,-0.16646263,1,1683969687.4971993
-0.65113556,0.3612406,-0.015854584,-3.3657148,6.5596237,3.7346773,1.8661311,9.381982,2.1753404,1,1683969687.507423
-0.65113556,0.3612406,-0.015854584,-5.774509,6.7181435,4.180151,1.8661311,9.381982,2.1753404,1,1683969687.5278885
0.58357066,0.9287127,-0.03683142,-5.774509,6.7181435,4.180151,1.8661311,9.381982,2.1753404,1,1683969687.5330245
0.887064,1.1576285,0.002561125,-5.774509,6.7181435,4.180151,1.8661311,9.381982,2.1753404,1,1683969687.5535183
0.887064,1.1576285,0.002561125,-5.774509,6.7181435,4.180151,2.0721493,9.184193,2.755528,1,1683969687.5586529
0.887064,1.1576285,0.002561125,-5.0701814,4.980537,3.3043227,2.0721493,9.184193,2.755528,1,1683969687.5688722
1.196838,1.343554,0.06006448,-5.0701814,4.980537,3.3043227,2.0721493,9.184193,2.755528,1,1683969687.5790763
1.196838,1.343554,0.06006448,-4.105931,3.0607402,2.079538,2.0721493,9.184193,2.755528,1,1683969687.5842042
1.196838,1.343554,0.06006448,-4.105931,3.0607402,2.079538,2.2155597,8.986062,3.2523975,1,1683969687.5893328
1.4631951,1.5200887,0.33422682,-4.105931,3.0607402,2.079538,2.2155597,8.986062,3.2523975,1,1683969687.6098223
1.4631951,1.5200887,0.33422682,-2.2429445,0.089186326,0.15989397,2.2155597,8.986062,3.2523975,1,1683969687.6201005
1.4631951,1.5200887,0.33422682,-2.2429445,0.089186326,0.15989397,2.3158753,8.763932,3.7505112,1,1683969687.6252396
1.4631951,1.5200887,0.33422682,-2.2429445,0.089186326,0.15989397,2.327221,8.715256,3.8554466,1,1683969687.661162
1.4631951,1.5200887,0.33422682,-0.20952678,-2.4297166,-1.319469,2.327221,8.715256,3.8554466,1,1683969687.6663
1.448926,1.5693599,0.67930794,-0.20952678,-2.4297166,-1.319469,2.327221,8.715256,3.8554466,1,1683969687.67656
1.448926,1.5693599,0.67930794,1.9975294,-4.39151,-2.5480716,2.327221,8.715256,3.8554466,1,1683969687.691956
1.2359867,1.4616706,0.9833501,1.9975294,-4.39151,-2.5480716,2.327221,8.715256,3.8554466,1,1683969687.6970813
1.2359867,1.4616706,0.9833501,1.9975294,-4.39151,-2.5480716,2.3074503,8.768139,3.7458675,1,1683969687.7022116
1.0201814,1.2826967,0.90365034,1.9975294,-4.39151,-2.5480716,2.3074503,8.768139,3.7458675,1,1683969687.7226756
1.0201814,1.2826967,0.90365034,1.9975294,-4.39151,-2.5480716,2.2423458,8.909605,3.439033,1,1683969687.7278054
1.0201814,1.2826967,0.90365034,3.7736201,-5.540242,-3.4779613,2.2423458,8.909605,3.439033,1,1683969687.7380772
0.7982173,1.1432374,0.79425365,3.7736201,-5.540242,-3.4779613,2.2423458,8.909605,3.439033,1,1683969687.7585285
0.7982173,1.1432374,0.79425365,4.894405,-6.245028,-4.1402917,2.2423458,8.909605,3.439033,1,1683969687.7739234
0.7982173,1.1432374,0.79425365,4.894405,-6.245028,-4.1402917,2.1872935,9.002302,3.2265153,1,1683969687.7790618
0.7982173,1.1432374,0.79425365,-6.2164702,6.5315237,3.7991238,2.1872935,9.002302,3.2265153,1,1683969687.794362
0.7982173,1.1432374,0.79425365,-6.2164702,6.5315237,3.7991238,1.8103023,9.5223675,1.5111117,1,1683969687.79945
0.7982173,1.1432374,0.79425365,-5.7826033,5.48389,3.4710891,1.8103023,9.5223675,1.5111117,1,1683969687.8097005
0.39221802,0.88023424,0.30404213,-5.7826033,5.48389,3.4710891,1.8103023,9.5223675,1.5111117,1,1683969687.8148372
0.39221802,0.88023424,0.30404213,-5.7826033,5.48389,3.4710891,2.0317767,9.354974,2.1430063,1,1683969687.825112
0.39221802,0.88023424,0.30404213,-5.7826033,5.48389,3.4710891,2.2061124,9.15978,2.732695,1,1683969687.850703
0.3749609,0.8746242,0.6012546,-5.7826033,5.48389,3.4710891,2.2061124,9.15978,2.732695,1,1683969687.855836
0.3749609,0.8746242,0.6012546,-5.162728,4.9501467,3.260035,2.2061124,9.15978,2.732695,1,1683969687.8609774
0.37093627,0.85194,0.7335184,-5.162728,4.9501467,3.260035,2.2061124,9.15978,2.732695,1,1683969687.8763535
0.37093627,0.85194,0.7335184,-5.162728,4.9501467,3.260035,2.3414345,8.9508915,3.261187,1,1683969687.8865402
0.37093627,0.85194,0.7335184,-4.3197336,4.6329546,3.033404,2.3414345,8.9508915,3.261187,1,1683969687.8916621
0.37093627,0.85194,0.7335184,-4.3197336,4.6329546,3.033404,2.4412587,8.740384,3.7258666,1,1683969687.9172926
0.36197233,0.85230577,0.69906515,-4.3197336,4.6329546,3.033404,2.4412587,8.740384,3.7258666,1,1683969687.9274967
0.36197233,0.85230577,0.69906515,-3.7242928,4.457789,2.8655689,2.4412587,8.740384,3.7258666,1,1683969687.9377759
0.36197233,0.85230577,0.69906515,-3.212235,4.1221185,2.6687176,2.4412587,8.740384,3.7258666,1,1683969687.9480343
0.36197233,0.85230577,0.69906515,-3.212235,4.1221185,2.6687176,2.5101624,8.535935,4.1319504,1,1683969687.95317
0.40185273,0.8737705,0.48374772,-3.212235,4.1221185,2.6687176,2.5101624,8.535935,4.1319504,1,1683969687.9583087
0.51204205,0.95109206,0.1525089,-3.212235,4.1221185,2.6687176,2.5101624,8.535935,4.1319504,1,1683969687.9941435
0.51204205,0.95109206,0.1525089,-3.212235,4.1221185,2.6687176,2.5762515,8.255127,4.631621,1,1683969687.9992378
0.73864067,1.0602448,-0.1539724,-3.212235,4.1221185,2.6687176,2.5762515,8.255127,4.631621,1,1683969688.0095212
0.73864067,1.0602448,-0.1539724,-2.0938933,1.6007724,1.4526376,2.5762515,8.255127,4.631621,1,1683969688.0351968
0.73864067,1.0602448,-0.1539724,-2.0938933,1.6007724,1.4526376,2.6134517,8.0966625,4.883652,1,1683969688.0403423
1.1626898,1.2143391,-0.26086888,-2.0938933,1.6007724,1.4526376,2.6134517,8.0966625,4.883652,1,1683969688.0557475
1.1626898,1.2143391,-0.26086888,-2.0938933,1.6007724,1.4526376,2.8224099,8.571372,3.847298,1,1683969688.060873
1.1626898,1.2143391,-0.26086888,4.6682324,-8.1180935,-4.563316,2.8224099,8.571372,3.847298,1,1683969688.071108
1.3138571,1.2745866,1.3353828,4.6682324,-8.1180935,-4.563316,2.8224099,8.571372,3.847298,1,1683969688.076251
1.3138571,1.2745866,1.3353828,6.5878763,-8.975138,-5.881716,2.8224099,8.571372,3.847298,1,1683969688.1018744
1.3138571,1.2745866,1.3353828,6.5878763,-8.975138,-5.881716,2.7262423,8.839467,3.2661197,1,1683969688.107004
0.8742583,0.92999333,1.1318344,6.5878763,-8.975138,-5.881716,2.7262423,8.839467,3.2661197,1,1683969688.1224132
0.8742583,0.92999333,1.1318344,6.5878763,-8.975138,-5.881716,2.4857109,9.149295,2.519476,1,1683969688.127552
0.8742583,0.92999333,1.1318344,7.546324,-9.09334,-6.604064,2.4857109,9.149295,2.519476,1,1683969688.1326885
0.8742583,0.92999333,1.1318344,7.546324,-9.09334,-6.604064,1.8833216,9.539697,1.2974603,1,1683969688.1480484
0.38191253,0.576741,0.76047117,7.546324,-9.09334,-6.604064,1.8833216,9.539697,1.2974603,1,1683969688.1583238
0.38191253,0.576741,0.76047117,7.546324,-9.09334,-6.604064,1.3799932,9.698767,0.51543033,1,1683969688.178853
0.040734082,0.44356245,0.48521125,7.415446,-8.255844,-6.298937,1.3799932,9.698767,0.51543033,1,1683969688.194268
0.040734082,0.44356245,0.48521125,6.5015917,-7.2396693,-5.2134295,1.3799932,9.698767,0.51543033,1,1683969688.209612
0.040734082,0.44356245,0.48521125,6.5015917,-7.2396693,-5.2134295,0.8486536,9.771526,-0.18211213,1,1683969688.2147515
-0.43081784,0.33703187,0.5438122,6.5015917,-7.2396693,-5.2134295,0.8486536,9.771526,-0.18211213,1,1683969688.2301617
-0.43081784,0.33703187,0.5438122,6.0623794,-6.3798766,-4.5393395,0.8486536,9.771526,-0.18211213,1,1683969688.2660391
-0.6706489,0.29623678,0.66985613,6.0623794,-6.3798766,-4.5393395,0.8486536,9.771526,-0.18211213,1,1683969688.2711866
-0.6706489,0.29623678,0.66985613,6.0623794,-6.3798766,-4.5393395,0.5893738,9.779888,-0.49244842,1,1683969688.2763271
-0.6706489,0.29623678,0.66985613,3.4326046,-1.0830641,-1.0833695,0.5893738,9.779888,-0.49244842,1,1683969688.2866006
-0.6706489,0.29623678,0.66985613,3.4326046,-1.0830641,-1.0833695,-0.14130938,9.7046175,-1.4270756,1,1683969688.296881
-1.3656284,0.053966567,0.44618458,3.4326046,-1.0830641,-1.0833695,-0.14130938,9.7046175,-1.4270756,1,1683969688.3070788
-1.3273336,-0.04268542,0.22050068,3.4326046,-1.0830641,-1.0833695,-0.14130938,9.7046175,-1.4270756,1,1683969688.3224723
-1.3273336,-0.04268542,0.22050068,3.4326046,-1.0830641,-1.0833695,3.160666,9.124067,1.7313828,1,1683969688.3481085
1.3819709,1.1722026,-0.7645568,3.4326046,-1.0830641,-1.0833695,3.160666,9.124067,1.7313828,1,1683969688.3532422
1.3819709,1.1722026,-0.7645568,-7.889172,7.0993233,4.1480803,3.160666,9.124067,1.7313828,1,1683969688.3583841
1.3819709,1.1722026,-0.7645568,-7.889172,7.0993233,4.1480803,3.40735,8.723732,2.9193454,1,1683969688.368646
1.3819709,1.1722026,-0.7645568,-6.761362,3.575547,1.5399913,3.40735,8.723732,2.9193454,1,1683969688.384013
1.7607734,1.6869277,-6.0979168e-05,-6.761362,3.575547,1.5399913,3.40735,8.723732,2.9193454,1,1683969688.3942518
1.7007699,1.6164968,0.68156415,-6.761362,3.575547,1.5399913,3.40735,8.723732,2.9193454,1,1683969688.4095736
1.7007699,1.6164968,0.68156415,-4.5885143,0.70814556,-0.44318274,3.40735,8.723732,2.9193454,1,1683969688.4198403
1.7007699,1.6164968,0.68156415,-4.5885143,0.70814556,-0.44318274,3.4076154,8.519441,3.4703577,1,1683969688.4249847
1.3620307,1.3151987,1.402399,-4.5885143,0.70814556,-0.44318274,3.4076154,8.519441,3.4703577,1,1683969688.4402816
1.3620307,1.3151987,1.402399,-1.7166841,-2.0205896,-1.6471981,3.4076154,8.519441,3.4703577,1,1683969688.4505537
1.3620307,1.3151987,1.402399,-1.7166841,-2.0205896,-1.6471981,3.3569992,8.422861,3.7446063,1,1683969688.460823
0.857428,1.0065831,1.5383214,1.8093829,-3.423747,-2.3964243,3.3042533,8.449334,3.7318587,1,1683969688.4711642
0.857428,1.0065831,1.5383214,1.8093829,-3.423747,-2.3964243,3.233772,8.579533,3.488615,1,1683969688.4763007
0.45209953,0.857428,0.8371221,3.6815321,-4.105625,-2.7924178,3.233772,8.579533,3.488615,1,1683969688.4814746
0.36965573,0.7926682,0.55210537,5.1816645,-4.8652363,-3.1913128,3.1377687,8.768336,3.083313,1,1683969688.4866707
0.36965573,0.7926682,0.55210537,5.1816645,-4.8652363,-3.1913128,1.9644755,9.610879,-0.089186996,1,1683969688.5071292
0.045917314,0.5372875,-0.020976834,5.1816645,-4.8652363,-3.1913128,1.9644755,9.610879,-0.089186996,1,1683969688.5225234
0.045917314,0.5372875,-0.020976834,5.1816645,-4.8652363,-3.1913128,2.4300878,9.490237,0.5159431,1,1683969688.5276618
0.75504404,0.8241945,-0.028782167,-6.367812,8.21629,4.818658,2.9573624,9.23908,1.4592862,1,1683969688.538069
0.9821305,1.018657,0.15793604,-6.5359526,7.3752813,3.920075,3.334292,8.855997,2.586489,1,1683969688.5432165
0.9821305,1.018657,0.15793604,-6.5359526,7.3752813,3.920075,3.4510536,8.562743,3.3174958,1,1683969688.548349
0.9821305,1.018657,0.15793604,-5.9713607,5.9383736,2.6713138,3.4510536,8.562743,3.3174958,1,1683969688.5534902
1.2972099,1.317028,0.25586858,-5.9713607,5.9383736,2.6713138,3.4510536,8.562743,3.3174958,1,1683969688.5586255
1.2972099,1.317028,0.25586858,-4.1877866,3.0132456,0.5154176,3.4510536,8.562743,3.3174958,1,1683969688.5842285
1.2972099,1.317028,0.25586858,-4.1877866,3.0132456,0.5154176,3.4407413,8.178649,4.18415,1,1683969688.5893726
1.6252778,1.5125273,0.3986208,-4.1877866,3.0132456,0.5154176,3.4407413,8.178649,4.18415,1,1683969688.5996053
1.6252778,1.5125273,0.3986208,-1.7954856,-0.2930626,-1.1459832,3.4407413,8.178649,4.18415,1,1683969688.614924
1.6474131,1.4936237,0.7256521,-1.7954856,-0.2930626,-1.1459832,3.4407413,8.178649,4.18415,1,1683969688.6251965
1.6474131,1.4936237,0.7256521,-1.7954856,-0.2930626,-1.1459832,3.3726754,8.044132,4.489222,1,1683969688.630333
1.6474131,1.4936237,0.7256521,1.0360274,-3.0141618,-2.5271494,3.3726754,8.044132,4.489222,1,1683969688.6610851
1.6474131,1.4936237,0.7256521,1.0360274,-3.0141618,-2.5271494,3.315642,8.05654,4.50941,1,1683969688.6662147
1.6474131,1.4936237,0.7256521,-5.245347,4.017508,2.5943446,3.315642,8.05654,4.50941,1,1683969688.6713126
1.6474131,1.4936237,0.7256521,-5.245347,4.017508,2.5943446,2.859323,8.733167,3.4339776,1,1683969688.6764503
1.4772204,1.3487983,-0.014391083,-5.245347,4.017508,2.5943446,2.859323,8.733167,3.4339776,1,1683969688.6815932
1.4772204,1.3487983,-0.014391083,-3.7018435,1.3568845,0.71883565,2.859323,8.733167,3.4339776,1,1683969688.7021036
1.4772204,1.3487983,-0.014391083,-3.7018435,1.3568845,0.71883565,2.9218574,8.521547,3.8835688,1,1683969688.7174113
1.768091,1.6172894,0.35075217,-3.7018435,1.3568845,0.71883565,2.9218574,8.521547,3.8835688,1,1683969688.7225478
1.768091,1.6172894,0.35075217,-3.7018435,1.3568845,0.71883565,2.928843,8.410663,4.1132417,1,1683969688.743096
1.768091,1.6172894,0.35075217,-1.2896893,-1.590235,-1.0881038,2.928843,8.410663,4.1132417,1,1683969688.7482374
1.7838235,1.6730244,0.95212877,-1.2896893,-1.590235,-1.0881038,2.928843,8.410663,4.1132417,1,1683969688.7585099
1.7838235,1.6730244,0.95212877,2.0906863,-3.893808,-2.9158125,2.928843,8.410663,4.1132417,1,1683969688.7739072
1.4772813,1.4651465,1.3184305,2.0906863,-3.893808,-2.9158125,2.928843,8.410663,4.1132417,1,1683969688.789296
1.4772813,1.4651465,1.3184305,2.0906863,-3.893808,-2.9158125,2.9022708,8.436442,4.0791388,1,1683969688.7944267
1.4772813,1.4651465,1.3184305,2.0906863,-3.893808,-2.9158125,2.8207312,8.590738,3.8051038,1,1683969688.8250978
1.3100154,1.2992831,0.9828012,2.0906863,-3.893808,-2.9158125,2.8207312,8.590738,3.8051038,1,1683969688.8302345
1.3100154,1.2992831,0.9828012,4.042706,-5.1836495,-4.1538835,2.8207312,8.590738,3.8051038,1,1683969688.8404927
1.1108575,1.1493354,0.7748013,4.042706,-5.1836495,-4.1538835,2.8207312,8.590738,3.8051038,1,1683969688.8507605
1.1108575,1.1493354,0.7748013,4.042706,-5.1836495,-4.1538835,2.558216,8.959091,3.0702338,1,1683969688.861031
1.1108575,1.1493354,0.7748013,5.5461984,-6.6083403,-5.4255524,2.558216,8.959091,3.0702338,1,1683969688.8712633
0.9326763,0.983472,0.68607664,5.5461984,-6.6083403,-5.4255524,2.558216,8.959091,3.0702338,1,1683969688.891803
0.9326763,0.983472,0.68607664,6.283971,-7.356803,-6.1436243,2.558216,8.959091,3.0702338,1,1683969688.8969417
0.9326763,0.983472,0.68607664,6.283971,-7.356803,-6.1436243,2.271144,9.225342,2.4435825,1,1683969688.907142
0.9326763,0.983472,0.68607664,6.283971,-7.356803,-6.1436243,2.0925996,9.349515,2.108016,1,1683969688.9327068
0.9326763,0.983472,0.68607664,6.5994825,-7.6772017,-6.453944,2.0925996,9.349515,2.108016,1,1683969688.937852
1.0903075,1.2739768,0.9825573,6.5994825,-7.6772017,-6.453944,2.0925996,9.349515,2.108016,1,1683969688.953254
1.0903075,1.2739768,0.9825573,1.8935295,-3.4376442,-2.6508498,2.0925996,9.349515,2.108016,1,1683969688.9635217
1.0903075,1.2739768,0.9825573,1.8935295,-3.4376442,-2.6508498,3.2441306,8.863577,2.67371,1,1683969688.9737902
0.8081569,1.0725626,0.7824237,1.8935295,-3.4376442,-2.6508498,3.2441306,8.863577,2.67371,1,1683969688.9891977
0.8081569,1.0725626,0.7824237,1.8935295,-3.4376442,-2.6508498,3.1064448,8.998447,2.3694024,1,1683969688.994337
0.8081569,1.0725626,0.7824237,3.8256962,-4.76704,-3.3421965,3.1064448,8.998447,2.3694024,1,1683969689.0045974
0.56045955,0.9342008,0.48984566,3.8256962,-4.76704,-3.3421965,3.1064448,8.998447,2.3694024,1,1683969689.0147824
0.56045955,0.9342008,0.48984566,4.7354274,-5.4501395,-3.6815321,3.1064448,8.998447,2.3694024,1,1683969689.0249956
0.56045955,0.9342008,0.48984566,4.7354274,-5.4501395,-3.6815321,2.928094,9.163208,1.923023,1,1683969689.035197
0.56045955,0.9342008,0.48984566,4.7354274,-5.4501395,-3.6815321,2.705605,9.326772,1.3882203,1,1683969689.0659814
0.56045955,0.9342008,0.48984566,5.1932707,-5.9935045,-3.8434114,2.705605,9.326772,1.3882203,1,1683969689.071105
0.3574599,0.82870686,0.15287478,5.1932707,-5.9935045,-3.8434114,2.705605,9.326772,1.3882203,1,1683969689.0813963
0.3574599,0.82870686,0.15287478,5.1932707,-5.9935045,-3.8434114,2.2957158,9.52326,0.52280194,1,1683969689.086528
0.20098734,0.74260426,0.020489,5.1932707,-5.9935045,-3.8434114,2.2957158,9.52326,0.52280194,1,1683969689.0968056
0.20098734,0.74260426,0.020489,5.0573535,-6.1402645,-3.7470474,2.2957158,9.52326,0.52280194,1,1683969689.1018977
0.20098734,0.74260426,0.020489,4.6108108,-5.8895044,-3.404352,2.2957158,9.52326,0.52280194,1,1683969689.1325674
0.20098734,0.74260426,0.020489,4.6108108,-5.8895044,-3.404352,1.9909395,9.605819,-0.022789525,1,1683969689.1377022
0.03664848,0.65595293,0.014939896,4.6108108,-5.8895044,-3.404352,1.9909395,9.605819,-0.022789525,1,1683969689.1531193
0.03664848,0.65595293,0.014939896,4.6108108,-5.8895044,-3.404352,1.8375113,9.632548,-0.271495,1,1683969689.1735914
0.03664848,0.65595293,0.014939896,3.9480221,-5.0917144,-2.7690523,1.8375113,9.632548,-0.271495,1,1683969689.1787264
-0.09707884,0.60021794,0.071467586,3.9480221,-5.0917144,-2.7690523,1.8375113,9.632548,-0.271495,1,1683969689.188998
-0.09707884,0.60021794,0.071467586,3.0934217,-3.627165,-1.7464638,1.8375113,9.632548,-0.271495,1,1683969689.2043338
-0.09707884,0.60021794,0.071467586,3.0934217,-3.627165,-1.7464638,1.4307419,9.6653805,-0.8772362,1,1683969689.209476
-0.09707884,0.60021794,0.071467586,-2.8194485,6.134309,3.7568212,1.4307419,9.6653805,-0.8772362,1,1683969689.219672
-0.041953668,0.53582394,-0.08159013,-2.8194485,6.134309,3.7568212,1.4307419,9.6653805,-0.8772362,1,1683969689.2298925
-0.041953668,0.53582394,-0.08159013,-4.5862236,8.137336,4.9083023,1.4307419,9.6653805,-0.8772362,1,1683969689.235032
-0.041953668,0.53582394,-0.08159013,-4.5862236,8.137336,4.9083023,2.0071514,9.582137,-0.6245955,1,1683969689.2504072
-0.041953668,0.53582394,-0.08159013,-4.5862236,8.137336,4.9083023,2.4620008,9.4958725,-0.05541465,1,1683969689.2812166
0.39484012,0.6846131,-0.07945585,-4.5862236,8.137336,4.9083023,2.4620008,9.4958725,-0.05541465,1,1683969689.2863536
0.39484012,0.6846131,-0.07945585,-5.5698695,8.806386,5.3033795,2.4620008,9.4958725,-0.05541465,1,1683969689.291487
0.7593736,0.848891,-0.13830076,-5.5698695,8.806386,5.3033795,2.4620008,9.4958725,-0.05541465,1,1683969689.2966247
0.7593736,0.848891,-0.13830076,-6.176306,8.808372,5.137682,2.4620008,9.4958725,-0.05541465,1,1683969689.3017619
0.7593736,0.848891,-0.13830076,-6.176306,8.808372,5.137682,2.8991735,9.350174,0.6365028,1,1683969689.3119996
0.7593736,0.848891,-0.13830076,-6.176306,8.808372,5.137682,3.2550995,9.14847,1.3949733,1,1683969689.3375492
1.065489,1.0382923,-0.17190027,-6.176306,8.808372,5.137682,3.2550995,9.14847,1.3949733,1,1683969689.3478293
1.065489,1.0382923,-0.17190027,-6.3039765,7.626042,4.1532726,3.2550995,9.14847,1.3949733,1,1683969689.3529675
1.065489,1.0382923,-0.17190027,-6.3039765,7.626042,4.1532726,3.5662906,8.792666,2.4913304,1,1683969689.3836932
1.065489,1.0382923,-0.17190027,-5.436395,5.5950675,2.6650524,3.5662906,8.792666,2.4913304,1,1683969689.3939672
1.2006189,1.2923315,0.19769447,-5.436395,5.5950675,2.6650524,3.5662906,8.792666,2.4913304,1,1683969689.3991148
1.2006189,1.2923315,0.19769447,-5.436395,5.5950675,2.6650524,3.6399884,8.572022,3.0833485,1,1683969689.4093966
1.1349442,1.2576344,0.39740124,-5.436395,5.5950675,2.6650524,3.6399884,8.572022,3.0833485,1,1683969689.414519
1.1349442,1.2576344,0.39740124,-4.040721,3.7293322,1.559539,3.6399884,8.572022,3.0833485,1,1683969689.434909
1.0184741,1.1551894,0.506432,-4.040721,3.7293322,1.559539,3.6399884,8.572022,3.0833485,1,1683969689.4502766
1.0184741,1.1551894,0.506432,-4.040721,3.7293322,1.559539,3.6560922,8.403776,3.4993827,1,1683969689.45541
1.0184741,1.1551894,0.506432,-2.8128817,2.303573,0.8914051,3.6560922,8.403776,3.4993827,1,1683969689.4656847
1.0184741,1.1551894,0.506432,-0.6944011,-0.35323283,-0.25259277,3.6560922,8.403776,3.4993827,1,1683969689.4862413
1.0184741,1.1551894,0.506432,-0.6944011,-0.35323283,-0.25259277,3.6563249,8.308591,3.719504,1,1683969689.4913442
-0.33386096,0.4235613,-0.23641624,-0.6944011,-0.35323283,-0.25259277,3.6563249,8.308591,3.719504,1,1683969689.5066774
-0.33386096,0.4235613,-0.23641624,-2.2876904,6.1758475,3.265533,3.6563249,8.308591,3.719504,1,1683969689.516955
-0.33386096,0.4235613,-0.23641624,-2.2876904,6.1758475,3.265533,0.93660593,9.593824,-1.8213732,1,1683969689.5272124
-0.33386096,0.4235613,-0.23641624,-4.12105,7.8473277,4.2401686,0.93660593,9.593824,-1.8213732,1,1683969689.5374918
-0.33386096,0.4235613,-0.23641624,-4.12105,7.8473277,4.2401686,1.3431146,9.59851,-1.5168297,1,1683969689.5426302
0.13073933,0.6890036,-0.48191833,-4.12105,7.8473277,4.2401686,1.3431146,9.59851,-1.5168297,1,1683969689.552903
0.13073933,0.6890036,-0.48191833,-4.12105,7.8473277,4.2401686,1.8087317,9.584738,-1.0475843,1,1683969689.5683043
0.13073933,0.6890036,-0.48191833,-5.2462635,8.3528185,4.5291076,1.8087317,9.584738,-1.0475843,1,1683969689.573413
0.39057156,0.7648617,-0.4495994,-5.2462635,8.3528185,4.5291076,1.8087317,9.584738,-1.0475843,1,1683969689.5888252
0.39057156,0.7648617,-0.4495994,-6.1136923,8.365494,4.4948993,1.8087317,9.584738,-1.0475843,1,1683969689.619668
0.39057156,0.7648617,-0.4495994,-6.1136923,8.365494,4.4948993,2.4757895,9.491929,-0.0995202,1,1683969689.630025
0.5592399,0.8125474,-0.25166103,-6.1136923,8.365494,4.4948993,2.4757895,9.491929,-0.0995202,1,1683969689.6351757
0.6123528,0.8362074,-0.07469948,-6.1136923,8.365494,4.4948993,2.4757895,9.491929,-0.0995202,1,1683969689.6505828
0.6123528,0.8362074,-0.07469948,-6.3699503,8.034863,4.294841,2.4757895,9.491929,-0.0995202,1,1683969689.6659958
0.6123528,0.8362074,-0.07469948,-6.3699503,8.034863,4.294841,2.8440695,9.367683,0.62759745,1,1683969689.6711426
0.63595176,0.89200324,0.06475988,-6.3699503,8.034863,4.294841,2.8440695,9.367683,0.62759745,1,1683969689.6865547
0.63595176,0.89200324,0.06475988,-6.2951193,7.393302,3.9628356,2.8440695,9.367683,0.62759745,1,1683969689.6916962
0.63595176,0.89200324,0.06475988,-6.2951193,7.393302,3.9628356,3.1348896,9.193191,1.3761739,1,1683969689.7071204
0.63595176,0.89200324,0.06475988,-6.2951193,7.393302,3.9628356,3.343259,8.982543,2.0910902,1,1683969689.7122598
0.63595176,0.89200324,0.06475988,-5.881563,6.3691864,3.3956473,3.343259,8.982543,2.0910902,1,1683969689.7327738
0.73986024,0.99072856,0.112567544,-5.881563,6.3691864,3.3956473,3.343259,8.982543,2.0910902,1,1683969689.7430434
0.73986024,0.99072856,0.112567544,-5.881563,6.3691864,3.3956473,3.473303,8.761391,2.7221906,1,1683969689.753319
0.73986024,0.99072856,0.112567544,-4.8232393,4.162436,2.0995438,3.473303,8.761391,2.7221906,1,1683969689.7584622
1.1067109,1.1891547,0.0037197291,-4.8232393,4.162436,2.0995438,3.473303,8.761391,2.7221906,1,1683969689.7636025
1.2076924,1.2143391,0.29532212,-4.8232393,4.162436,2.0995438,3.473303,8.761391,2.7221906,1,1683969689.7841415
1.2076924,1.2143391,0.29532212,3.8939605,-5.7867265,-3.3223433,3.473303,8.761391,2.7221906,1,1683969689.7944238
1.2076924,1.2143391,0.29532212,3.8939605,-5.7867265,-3.3223433,3.5154347,8.473872,3.4743824,1,1683969689.7995698
1.2076924,1.2143391,0.29532212,3.8939605,-5.7867265,-3.3223433,3.433169,8.694706,2.9751558,1,1683969689.8201277
1.2056801,1.1464083,0.3675824,3.8939605,-5.7867265,-3.3223433,3.433169,8.694706,2.9751558,1,1683969689.8304136
1.2056801,1.1464083,0.3675824,4.7928486,-7.203781,-4.235129,3.433169,8.694706,2.9751558,1,1683969689.835553
1.2056801,1.1464083,0.3675824,4.7928486,-7.203781,-4.235129,3.1639488,9.060026,2.0350556,1,1683969689.856088
1.2056801,1.1464083,0.3675824,5.4648004,-8.126035,-5.0272684,3.1639488,9.060026,2.0350556,1,1683969689.8663578
1.0785995,1.0668305,0.5142983,5.4648004,-8.126035,-5.0272684,3.1639488,9.060026,2.0350556,1,1683969689.8714905
1.0785995,1.0668305,0.5142983,5.6892934,-8.151386,-5.34782,3.1639488,9.060026,2.0350556,1,1683969689.8920329
0.8995037,0.9853014,0.5735091,5.6892934,-8.151386,-5.34782,3.1639488,9.060026,2.0350556,1,1683969689.9023058
0.8995037,0.9853014,0.5735091,5.6892934,-8.151386,-5.34782,2.8698719,9.282602,1.3539754,1,1683969689.912573
0.61314553,0.8710264,0.50631005,5.6892934,-8.151386,-5.34782,2.8698719,9.282602,1.3539754,1,1683969689.9279478
0.61314553,0.8710264,0.50631005,5.6892934,-8.151386,-5.34782,2.494253,9.463014,0.6827987,1,1683969689.9330878
0.61314553,0.8710264,0.50631005,5.608201,-7.5999274,-5.424178,2.494253,9.463014,0.6827987,1,1683969689.9382324
0.61314553,0.8710264,0.50631005,5.386152,-7.090313,-5.2948275,2.494253,9.463014,0.6827987,1,1683969689.9741547
0.40587732,0.787424,0.43514732,5.386152,-7.090313,-5.2948275,2.494253,9.463014,0.6827987,1,1683969689.9792523
0.40587732,0.787424,0.43514732,5.386152,-7.090313,-5.2948275,2.0585592,9.59143,0.054421794,1,1683969689.9843907
0.0035367915,0.6600995,0.4520386,5.386152,-7.090313,-5.2948275,2.0585592,9.59143,0.054421794,1,1683969689.9997995
0.0035367915,0.6600995,0.4520386,4.7763553,-5.8772874,-4.68442,2.0585592,9.59143,0.054421794,1,1683969690.0151908
0.0035367915,0.6600995,0.4520386,4.7763553,-5.8772874,-4.68442,1.5952499,9.666353,-0.5029085,1,1683969690.0203223
0.0035367915,0.6600995,0.4520386,4.7763553,-5.8772874,-4.68442,1.1464179,9.694188,-0.9718985,1,1683969690.030563
-0.46624672,0.5549104,0.5900344,4.7763553,-5.8772874,-4.68442,1.1464179,9.694188,-0.9718985,1,1683969690.0356636
1.2608663,1.217754,1.3197721,4.7763553,-5.8772874,-4.68442,1.1464179,9.694188,-0.9718985,1,1683969690.0560372
1.2608663,1.217754,1.3197721,4.7763553,-5.8772874,-4.68442,2.838317,8.960152,2.8099375,1,1683969690.0611622
1.2608663,1.217754,1.3197721,4.98634,-5.360495,-4.482071,2.838317,8.960152,2.8099375,1,1683969690.0713916
1.2608663,1.217754,1.3197721,4.98634,-5.360495,-4.482071,2.597264,9.184485,2.2661757,1,1683969690.0919156
1.2608663,1.217754,1.3197721,6.3756003,-6.1263676,-5.293911,2.597264,9.184485,2.2661757,1,1683969690.0970547
0.9859112,1.045183,0.95590943,6.3756003,-6.1263676,-5.293911,2.597264,9.184485,2.2661757,1,1683969690.112421
0.5977788,0.7946805,0.54612947,6.3756003,-6.1263676,-5.293911,2.597264,9.184485,2.2661757,1,1683969690.1380215
0.5977788,0.7946805,0.54612947,7.262882,-6.8789535,-5.84033,2.597264,9.184485,2.2661757,1,1683969690.1431367
0.5977788,0.7946805,0.54612947,7.262882,-6.8789535,-5.84033,2.066737,9.510246,1.2328475,1,1683969690.1482313
0.15183812,0.5757653,0.31654286,7.262882,-6.8789535,-5.84033,2.066737,9.510246,1.2328475,1,1683969690.158481
0.15183812,0.5757653,0.31654286,7.262882,-6.8789535,-5.84033,1.6172936,9.663455,0.48798466,1,1683969690.163608
0.15183812,0.5757653,0.31654286,7.396051,-7.0926037,-5.7897806,1.6172936,9.663455,0.48798466,1,1683969690.1790144
-0.32123825,0.3667897,0.06445498,7.396051,-7.0926037,-5.7897806,1.6172936,9.663455,0.48798466,1,1683969690.1892898
-0.32123825,0.3667897,0.06445498,6.847036,-6.7056203,-4.959004,1.6172936,9.663455,0.48798466,1,1683969690.1995618
-0.32123825,0.3667897,0.06445498,6.847036,-6.7056203,-4.959004,1.1226087,9.742763,-0.23342437,1,1683969690.2200758
-0.32123825,0.3667897,0.06445498,6.847036,-6.7056203,-4.959004,0.63761127,9.749417,-0.8822975,1,1683969690.2252183
-0.63552487,0.30129808,-0.0029879792,6.847036,-6.7056203,-4.959004,0.63761127,9.749417,-0.8822975,1,1683969690.2303185
-0.63552487,0.30129808,-0.0029879792,5.8427734,-5.8372755,-3.8001926,0.63761127,9.749417,-0.8822975,1,1683969690.2558303
-0.63552487,0.30129808,-0.0029879792,4.3876925,-4.128838,-2.3295345,0.63761127,9.749417,-0.8822975,1,1683969690.266103
-0.910236,0.29587093,0.0307335,4.3876925,-4.128838,-2.3295345,0.63761127,9.749417,-0.8822975,1,1683969690.2763286
-0.910236,0.29587093,0.0307335,4.3876925,-4.128838,-2.3295345,0.23009518,9.705719,-1.4078962,1,1683969690.281466
-0.910236,0.29587093,0.0307335,4.3876925,-4.128838,-2.3295345,-0.04257124,9.647289,-1.7787938,1,1683969690.3020175
-0.910236,0.29587093,0.0307335,1.8742872,-0.72387534,-0.30695978,-0.04257124,9.647289,-1.7787938,1,1683969690.3122988
-0.910236,0.29587093,0.0307335,-5.7167826,6.9505773,4.469701,-0.04257124,9.647289,-1.7787938,1,1683969690.3328567
0.043783043,0.6476597,-0.47021037,-5.7167826,6.9505773,4.469701,-0.04257124,9.647289,-1.7787938,1,1683969690.3379602
0.043783043,0.6476597,-0.47021037,-5.7167826,6.9505773,4.469701,0.9717015,9.727539,-0.81667244,1,1683969690.3430605
0.2587346,0.6919306,-0.20708527,-5.7167826,6.9505773,4.469701,0.9717015,9.727539,-0.81667244,1,1683969690.3583405
0.2587346,0.6919306,-0.20708527,-5.7167826,6.9505773,4.469701,1.6058346,9.677402,0.07276568,1,1683969690.3736794
0.2587346,0.6919306,-0.20708527,-6.4241643,6.9096494,4.5414777,1.6058346,9.677402,0.07276568,1,1683969690.389081
0.2587346,0.6919306,-0.20708527,-6.598261,6.550308,4.3348527,1.6058346,9.677402,0.07276568,1,1683969690.4044561
0.4355742,0.7685205,-0.06097917,-6.598261,6.550308,4.3348527,1.6058346,9.677402,0.07276568,1,1683969690.4147308
0.4355742,0.7685205,-0.06097917,-6.598261,6.550308,4.3348527,1.9802123,9.578909,0.7479244,1,1683969690.4198668
0.4355742,0.7685205,-0.06097917,-6.598261,6.550308,4.3348527,2.288005,9.431254,1.432686,1,1683969690.4351914
0.64320827,0.86498946,0.08037054,-6.598261,6.550308,4.3348527,2.288005,9.431254,1.432686,1,1683969690.4403229
0.64320827,0.86498946,0.08037054,-6.2705317,5.4464746,3.6685512,2.288005,9.431254,1.432686,1,1683969690.4505937
0.9596901,1.0531712,0.32142118,-6.2705317,5.4464746,3.6685512,2.288005,9.431254,1.432686,1,1683969690.471134
0.9596901,1.0531712,0.32142118,-6.2705317,5.4464746,3.6685512,2.5191152,9.25138,2.0741553,1,1683969690.4865375
0.9596901,1.0531712,0.32142118,-5.45579,4.0720277,2.8209758,2.5191152,9.25138,2.0741553,1,1683969690.4968126
0.9596901,1.0531712,0.32142118,-4.4904704,2.7809641,1.9469802,2.5191152,9.25138,2.0741553,1,1683969690.5070853
1.1909841,1.2140952,0.4763083,-4.4904704,2.7809641,1.9469802,2.5191152,9.25138,2.0741553,1,1683969690.5122201
1.1909841,1.2140952,0.4763083,-4.4904704,2.7809641,1.9469802,2.6726272,9.070973,2.6097188,1,1683969690.5224843
1.5141128,1.4789886,0.7796187,-4.4904704,2.7809641,1.9469802,2.6726272,9.070973,2.6097188,1,1683969690.5430844
1.5141128,1.4789886,0.7796187,-4.4904704,2.7809641,1.9469802,2.7497845,8.931607,2.9834836,1,1683969690.5482247
1.5141128,1.4789886,0.7796187,-2.2276728,0.29535335,0.094225965,2.7497845,8.931607,2.9834836,1,1683969690.568704
1.5141128,1.4789886,0.7796187,-2.2276728,0.29535335,0.094225965,2.7326283,8.881614,3.1441715,1,1683969690.5892298
1.5727137,1.5446633,1.0543298,-2.2276728,0.29535335,0.094225965,2.7326283,8.881614,3.1441715,1,1683969690.5943635
1.5727137,1.5446633,1.0543298,0.6892087,-2.4518604,-1.8400788,2.7326283,8.881614,3.1441715,1,1683969690.5995002
0.5163106,0.8077301,0.4797841,0.6892087,-2.4518604,-1.8400788,2.7326283,8.881614,3.1441715,1,1683969690.6148555
0.5163106,0.8077301,0.4797841,6.990131,-6.3757534,-5.023298,2.7326283,8.881614,3.1441715,1,1683969690.625074
0.5163106,0.8077301,0.4797841,6.990131,-6.3757534,-5.023298,2.094848,9.404335,1.8455971,1,1683969690.6353095
0.5163106,0.8077301,0.4797841,6.990131,-6.3757534,-5.023298,1.5685474,9.651305,0.79253167,1,1683969690.6507223
0.5163106,0.8077301,0.4797841,7.0507593,-6.542672,-5.12577,1.5685474,9.651305,0.79253167,1,1683969690.671202
0.5163106,0.8077301,0.4797841,7.0507593,-6.542672,-5.12577,1.1498514,9.741795,0.106713444,1,1683969690.6814735
0.5163106,0.8077301,0.4797841,6.67691,-6.2926755,-4.8229337,1.1498514,9.741795,0.106713444,1,1683969690.6866102
-0.034636166,0.5295431,0.14756958,6.67691,-6.2926755,-4.8229337,1.1498514,9.741795,0.106713444,1,1683969690.6917439
-0.27013773,0.48307696,0.058174126,6.67691,-6.2926755,-4.8229337,1.1498514,9.741795,0.106713444,1,1683969690.7071528
-0.27013773,0.48307696,0.058174126,6.0854397,-5.7080774,-4.2117634,1.1498514,9.741795,0.106713444,1,1683969690.722483
-0.27013773,0.48307696,0.058174126,6.0854397,-5.7080774,-4.2117634,0.7076938,9.770268,-0.52644646,1,1683969690.7327201
-0.43575716,0.49496788,0.011159187,6.0854397,-5.7080774,-4.2117634,0.7076938,9.770268,-0.52644646,1,1683969690.7480783
-0.43575716,0.49496788,0.011159187,5.251456,-4.7091603,-3.3027956,0.7076938,9.770268,-0.52644646,1,1683969690.7583566
-0.43575716,0.49496788,0.011159187,5.251456,-4.7091603,-3.3027956,0.2842162,9.746011,-1.0819595,1,1683969690.7737195
-0.76364213,0.47051528,-0.07250423,5.251456,-4.7091603,-3.3027956,0.2842162,9.746011,-1.0819595,1,1683969690.7891295
-0.76364213,0.47051528,-0.07250423,4.124104,-3.1687107,-2.0832033,0.2842162,9.746011,-1.0819595,1,1683969690.794269
-0.76364213,0.47051528,-0.07250423,4.124104,-3.1687107,-2.0832033,-0.071742564,9.68824,-1.5391469,1,1683969690.8096712
-0.9616415,0.36111864,-0.30428603,4.124104,-3.1687107,-2.0832033,-0.071742564,9.68824,-1.5391469,1,1683969690.819902
-0.9616415,0.36111864,-0.30428603,4.124104,-3.1687107,-2.0832033,-0.37245896,9.594871,-2.008935,1,1683969690.8250384
-0.9616415,0.36111864,-0.30428603,2.1681135,-0.58368176,-0.2096795,-0.37245896,9.594871,-2.008935,1,1683969690.8352718
-0.9616415,0.36111864,-0.30428603,-0.3764457,2.2240076,1.6997325,-0.37245896,9.594871,-2.008935,1,1683969690.86103
-0.9616415,0.36111864,-0.30428603,-0.3764457,2.2240076,1.6997325,-0.3627517,9.565022,-2.1482255,1,1683969690.8712592
-0.8466348,0.34056866,-0.55344695,-0.3764457,2.2240076,1.6997325,-0.3627517,9.565022,-2.1482255,1,1683969690.876396
1.4059967,1.4598414,1.3722751,-0.3764457,2.2240076,1.6997325,-0.3627517,9.565022,-2.1482255,1,1683969690.8815358
1.0840267,1.2093998,0.92846876,-0.3764457,2.2240076,1.6997325,-0.3627517,9.565022,-2.1482255,1,1683969690.9020708
1.0840267,1.2093998,0.92846876,-0.3764457,2.2240076,1.6997325,2.5320272,9.01719,2.9180858,1,1683969690.9071412
1.0840267,1.2093998,0.92846876,6.313445,-5.637217,-4.43534,2.5320272,9.01719,2.9180858,1,1683969690.9225345
0.8198649,1.0192058,0.6243047,6.313445,-5.637217,-4.43534,2.5320272,9.01719,2.9180858,1,1683969690.943081
0.8198649,1.0192058,0.6243047,7.311599,-6.4597473,-5.171127,2.5320272,9.01719,2.9180858,1,1683969690.9533083
0.8198649,1.0192058,0.6243047,7.311599,-6.4597473,-5.171127,2.173675,9.365342,1.9497722,1,1683969690.9584453
0.8198649,1.0192058,0.6243047,7.311599,-6.4597473,-5.171127,1.8191496,9.566027,1.1907791,1,1683969690.9687226
0.61991423,0.8812099,0.3939864,7.311599,-6.4597473,-5.171127,1.8191496,9.566027,1.1907791,1,1683969690.9738626
0.61991423,0.8812099,0.3939864,7.7656245,-7.0043335,-5.6210294,1.8191496,9.566027,1.1907791,1,1683969690.9944017
0.61991423,0.8812099,0.3939864,7.7656245,-7.0043335,-5.6210294,1.3801953,9.70368,0.4120498,1,1683969691.0098045
0.61991423,0.8812099,0.3939864,7.7537127,-7.189426,-5.8421626,1.3801953,9.70368,0.4120498,1,1683969691.0149403
0.30520073,0.73839676,0.22787915,7.7537127,-7.189426,-5.8421626,1.3801953,9.70368,0.4120498,1,1683969691.02521
0.30520073,0.73839676,0.22787915,7.7537127,-7.189426,-5.8421626,0.87244964,9.76533,-0.33659673,1,1683969691.056014
0.30520073,0.73839676,0.22787915,7.3644385,-6.8849096,-5.654321,0.87244964,9.76533,-0.33659673,1,1683969691.0611513
0.03390442,0.59588844,0.11390909,7.3644385,-6.8849096,-5.654321,0.87244964,9.76533,-0.33659673,1,1683969691.0662825
0.03390442,0.59588844,0.11390909,6.703941,-6.212347,-5.0524664,0.87244964,9.76533,-0.33659673,1,1683969691.0817327
-0.18025441,0.51813996,0.036892395,6.703941,-6.212347,-5.0524664,0.87244964,9.76533,-0.33659673,1,1683969691.0868533
-0.18025441,0.51813996,0.036892395,6.703941,-6.212347,-5.0524664,0.32906213,9.751616,-1.0167841,1,1683969691.1022563
-0.18025441,0.51813996,0.036892395,5.766721,-5.05323,-4.0679045,0.32906213,9.751616,-1.0167841,1,1683969691.1176171
-0.5950347,0.4885651,-0.03280679,5.766721,-5.05323,-4.0679045,0.32906213,9.751616,-1.0167841,1,1683969691.12275
-0.5950347,0.4885651,-0.03280679,5.766721,-5.05323,-4.0679045,-0.19673125,9.676442,-1.6012051,1,1683969691.1278949
-1.0252427,0.37624148,-0.23641624,5.766721,-5.05323,-4.0679045,-0.19673125,9.676442,-1.6012051,1,1683969691.1432545
-1.0252427,0.37624148,-0.23641624,5.766721,-5.05323,-4.0679045,-0.8162743,9.509797,-2.2657347,1,1683969691.153534
-1.0252427,0.37624148,-0.23641624,-6.782131,6.9186597,4.390594,-0.8162743,9.509797,-2.2657347,1,1683969691.1586394
-1.0252427,0.37624148,-0.23641624,-6.782131,6.9186597,4.390594,0.5718593,9.744087,-0.98075175,1,1683969691.174005
-0.023050126,0.6126577,-0.36008197,-6.782131,6.9186597,4.390594,0.5718593,9.744087,-0.98075175,1,1683969691.1893833
-0.023050126,0.6126577,-0.36008197,-7.7239327,7.1729326,4.447557,0.5718593,9.744087,-0.98075175,1,1683969691.199651
0.22873287,0.65955067,-0.17714448,-7.7239327,7.1729326,4.447557,0.5718593,9.744087,-0.98075175,1,1683969691.2098856
0.22873287,0.65955067,-0.17714448,-7.7239327,7.1729326,4.447557,1.0084317,9.753053,-0.3116917,1,1683969691.2201173
0.22873287,0.65955067,-0.17714448,-7.7239327,7.1729326,4.447557,1.4009254,9.699283,0.4443586,1,1683969691.2355158
0.4492945,0.725957,-0.056954544,-7.7239327,7.1729326,4.447557,1.4009254,9.699283,0.4443586,1,1683969691.2406585
0.4492945,0.725957,-0.056954544,-7.959574,6.6846986,4.069126,1.4009254,9.699283,0.4443586,1,1683969691.2457922
0.6661974,0.8543791,0.18946227,-7.959574,6.6846986,4.069126,1.4009254,9.699283,0.4443586,1,1683969691.2714581
0.6661974,0.8543791,0.18946227,-7.585725,5.5318427,3.3301318,1.4009254,9.699283,0.4443586,1,1683969691.2817647
0.6661974,0.8543791,0.18946227,-7.585725,5.5318427,3.3301318,1.7126089,9.580765,1.2296473,1,1683969691.297134
0.6661974,0.8543791,0.18946227,-6.4139323,3.8858666,2.3248005,1.7126089,9.580765,1.2296473,1,1683969691.3073924
0.8716972,1.0732334,0.5499101,-6.4139323,3.8858666,2.3248005,1.7126089,9.580765,1.2296473,1,1683969691.317664
0.8716972,1.0732334,0.5499101,-6.4139323,3.8858666,2.3248005,1.925592,9.416241,1.9653516,1,1683969691.3279364
1.1434814,1.3055639,0.9828012,-6.4139323,3.8858666,2.3248005,1.925592,9.416241,1.9653516,1,1683969691.343308
1.1434814,1.3055639,0.9828012,-6.4139323,3.8858666,2.3248005,2.0826476,9.172636,2.7859383,1,1683969691.353547
1.1434814,1.3055639,0.9828012,-3.8093557,1.3246613,0.84406304,2.0826476,9.172636,2.7859383,1,1683969691.3688993
1.1434814,1.3055639,0.9828012,-3.8093557,1.3246613,0.84406304,2.1129582,9.083064,3.0445817,1,1683969691.3894467
1.1434814,1.3055639,0.9828012,-0.40103304,-1.3471106,-0.6743952,2.1129582,9.083064,3.0445817,1,1683969691.3997216
1.2360477,1.3917276,1.3893493,-0.40103304,-1.3471106,-0.6743952,2.1129582,9.083064,3.0445817,1,1683969691.404852
1.1236632,1.3549571,1.4580729,-0.40103304,-1.3471106,-0.6743952,2.1129582,9.083064,3.0445817,1,1683969691.415126
1.1236632,1.3549571,1.4580729,-0.40103304,-1.3471106,-0.6743952,2.0995662,9.088419,3.0378573,1,1683969691.4305232
1.1236632,1.3549571,1.4580729,6.820463,-5.4432673,-4.225966,2.0995662,9.088419,3.0378573,1,1683969691.4356587
1.1236632,1.3549571,1.4580729,6.820463,-5.4432673,-4.225966,1.3486363,9.69359,0.67201704,1,1683969691.4407938
0.21940304,0.7535805,0.20702426,6.820463,-5.4432673,-4.225966,1.3486363,9.69359,0.67201704,1,1683969691.466474
0.21940304,0.7535805,0.20702426,6.490596,-5.199685,-4.0607266,1.3486363,9.69359,0.67201704,1,1683969691.4818528
0.06329638,0.702541,0.03146525,6.490596,-5.199685,-4.0607266,1.3486363,9.69359,0.67201704,1,1683969691.4869936
0.06329638,0.702541,0.03146525,6.490596,-5.199685,-4.0607266,0.99651,9.759237,0.019342005,1,1683969691.4972258
-0.17299789,0.66229475,-0.19354787,6.490596,-5.199685,-4.0607266,0.99651,9.759237,0.019342005,1,1683969691.5074906
-0.17299789,0.66229475,-0.19354787,6.490596,-5.199685,-4.0607266,0.4381216,9.761263,-0.872887,1,1683969691.5228975
-0.17299789,0.66229475,-0.19354787,5.7694697,-4.518265,-3.5446982,0.4381216,9.761263,-0.872887,1,1683969691.5383127
-0.17299789,0.66229475,-0.19354787,5.7694697,-4.518265,-3.5446982,0.09098641,9.712783,-1.3746717,1,1683969691.5485752
-0.37514386,0.65814817,-0.3646554,5.7694697,-4.518265,-3.5446982,0.09098641,9.712783,-1.3746717,1,1683969691.5588455
-0.37514386,0.65814817,-0.3646554,4.8769956,-3.7097847,-2.8545732,0.09098641,9.712783,-1.3746717,1,1683969691.563985
-0.37514386,0.65814817,-0.3646554,4.8769956,-3.7097847,-2.8545732,-0.062526874,9.680058,-1.5901773,1,1683969691.5844688
-0.6181458,0.6216216,-0.48941877,4.8769956,-3.7097847,-2.8545732,-0.062526874,9.680058,-1.5901773,1,1683969691.5998783
-0.6181458,0.6216216,-0.48941877,3.6658022,-2.5908322,-1.8848248,-0.062526874,9.680058,-1.5901773,1,1683969691.605013
-0.80327857,0.55832523,-0.5871684,3.6658022,-2.5908322,-1.8848248,-0.062526874,9.680058,-1.5901773,1,1683969691.6152434
-0.80327857,0.55832523,-0.5871684,3.6658022,-2.5908322,-1.8848248,-0.3768772,9.584624,-2.0564618,1,1683969691.6255152
-0.80327857,0.55832523,-0.5871684,2.079538,-0.9973902,-0.6400341,-0.3768772,9.584624,-2.0564618,1,1683969691.6460626
-0.85767204,0.4922848,-0.7238837,2.079538,-0.9973902,-0.6400341,-0.3768772,9.584624,-2.0564618,1,1683969691.666591
-0.85767204,0.4922848,-0.7238837,-0.4277584,1.5754215,1.0658071,-0.3768772,9.584624,-2.0564618,1,1683969691.6768656
-0.85767204,0.4922848,-0.7238837,-0.4277584,1.5754215,1.0658071,-0.41596532,9.553401,-2.189894,1,1683969691.681966
-0.85767204,0.4922848,-0.7238837,-3.0960178,4.0955462,2.5561657,-0.41596532,9.553401,-2.189894,1,1683969691.702457
-0.85767204,0.4922848,-0.7238837,-3.0960178,4.0955462,2.5561657,-0.29641533,9.565931,-2.1543477,1,1683969691.7075977
-0.29111454,0.5991203,-0.5271649,-3.0960178,4.0955462,2.5561657,-0.29641533,9.565931,-2.1543477,1,1683969691.7127326
-0.29111454,0.5991203,-0.5271649,-4.490318,4.372268,3.2653801,-0.29641533,9.565931,-2.1543477,1,1683969691.7230132
-0.29111454,0.5991203,-0.5271649,-4.490318,4.372268,3.2653801,-0.16764121,9.5705,-2.1479115,1,1683969691.7332838
-0.14299615,0.643879,-0.33227548,-4.490318,4.372268,3.2653801,-0.16764121,9.5705,-2.1479115,1,1683969691.748647
-0.14299615,0.643879,-0.33227548,-4.490318,4.372268,3.2653801,0.19064285,9.649505,-1.756944,1,1683969691.7691498
-0.14299615,0.643879,-0.33227548,-5.747173,5.49962,3.6286924,0.19064285,9.649505,-1.756944,1,1683969691.7794175
-0.14299615,0.643879,-0.33227548,-6.742883,6.2896214,3.9046507,0.19064285,9.649505,-1.756944,1,1683969691.7896976
-0.051466417,0.6251584,-0.12348281,-6.742883,6.2896214,3.9046507,0.19064285,9.649505,-1.756944,1,1683969691.794838
-0.051466417,0.6251584,-0.12348281,-6.742883,6.2896214,3.9046507,0.7780982,9.734868,-0.92899865,1,1683969691.8153129
0.020793896,0.5905222,-0.0009146876,-6.742883,6.2896214,3.9046507,0.7780982,9.734868,-0.92899865,1,1683969691.8307197
0.020793896,0.5905222,-0.0009146876,-6.742883,6.2896214,3.9046507,0.9719172,9.743028,-0.6040712,1,1683969691.8358746
0.020793896,0.5905222,-0.0009146876,-7.1202455,6.447072,4.08959,0.9719172,9.743028,-0.6040712,1,1683969691.8512845
0.020793896,0.5905222,-0.0009146876,-7.2181363,6.1714187,4.1245623,0.9719172,9.743028,-0.6040712,1,1683969691.8666966
0.1542773,0.62509745,0.08494398,-7.2181363,6.1714187,4.1245623,0.9719172,9.743028,-0.6040712,1,1683969691.8820362
0.1542773,0.62509745,0.08494398,-7.2181363,6.1714187,4.1245623,1.3443813,9.717044,0.088595845,1,1683969691.8871477
0.4133168,0.74144566,0.31666481,-7.2181363,6.1714187,4.1245623,1.3443813,9.717044,0.088595845,1,1683969691.902549
0.4133168,0.74144566,0.31666481,-6.963558,5.508172,3.8754818,1.3443813,9.717044,0.088595845,1,1683969691.9076881
0.4133168,0.74144566,0.31666481,-6.963558,5.508172,3.8754818,1.8374541,9.565047,1.1703635,1,1683969691.9230957
0.7487022,0.81364506,0.59198576,-6.963558,5.508172,3.8754818,1.8374541,9.565047,1.1703635,1,1683969691.9384937
0.7487022,0.81364506,0.59198576,-6.963558,5.508172,3.8754818,2.0967958,9.402411,1.8531651,1,1683969691.9436295
0.7487022,0.81364506,0.59198576,-6.0672665,4.1720567,3.2220087,2.0967958,9.402411,1.8531651,1,1683969691.9539022
1.162324,1.0929906,1.0468904,-6.0672665,4.1720567,3.2220087,2.0967958,9.402411,1.8531651,1,1683969691.9795132
1.162324,1.0929906,1.0468904,-4.33134,2.378251,1.958434,2.0967958,9.402411,1.8531651,1,1683969691.9846187
-0.6478427,0.57222855,-0.719981,-4.33134,2.378251,1.958434,2.0967958,9.402411,1.8531651,1,1683969691.9897227
-0.6478427,0.57222855,-0.719981,-4.33134,2.378251,1.958434,-0.54724556,9.344207,-2.9363983,1,1683969691.999913
-0.6478427,0.57222855,-0.719981,0.2576324,-1.1218541,0.3494149,-0.54724556,9.344207,-2.9363983,1,1683969692.0101635
-0.6478427,0.57222855,-0.719981,0.2576324,-1.1218541,0.3494149,-0.54960775,9.339859,-2.9497545,1,1683969692.025539
-0.49374834,0.58119243,-0.75345856,0.2576324,-1.1218541,0.3494149,-0.54960775,9.339859,-2.9497545,1,1683969692.030682
-0.49374834,0.58119243,-0.75345856,-2.1316142,1.2342533,1.3859005,-0.54960775,9.339859,-2.9497545,1,1683969692.0511985
-0.29861498,0.646867,-0.6871742,-2.1316142,1.2342533,1.3859005,-0.54960775,9.339859,-2.9497545,1,1683969692.0614681
-0.29861498,0.646867,-0.6871742,-2.1316142,1.2342533,1.3859005,-0.3314846,9.42828,-2.6895585,1,1683969692.0717015
-0.29861498,0.646867,-0.6871742,-3.6758816,2.6154196,1.9451476,-0.3314846,9.42828,-2.6895585,1,1683969692.0922017
-0.29861498,0.646867,-0.6871742,-3.6758816,2.6154196,1.9451476,-0.21734306,9.474041,-2.5360217,1,1683969692.1127288
-0.29861498,0.646867,-0.6871742,-4.543616,3.2765284,2.2589796,-0.21734306,9.474041,-2.5360217,1,1683969692.1178641
-0.21184163,0.6524161,-0.56076443,-4.543616,3.2765284,2.2589796,-0.21734306,9.474041,-2.5360217,1,1683969692.1280985
-0.21184163,0.6524161,-0.56076443,-4.543616,3.2765284,2.2589796,0.187586,9.617893,-1.9227762,1,1683969692.1537607
-0.1247024,0.6375372,-0.23867247,-4.543616,3.2765284,2.2589796,0.187586,9.617893,-1.9227762,1,1683969692.1589017
-0.1247024,0.6375372,-0.23867247,-5.48557,3.9570324,2.6481009,0.187586,9.617893,-1.9227762,1,1683969692.1640375
-0.1247024,0.6375372,-0.23867247,-5.48557,3.9570324,2.6481009,0.48491883,9.695411,-1.4142152,1,1683969692.1794245
-0.13708118,0.57253337,0.07226031,-5.48557,3.9570324,2.6481009,0.48491883,9.695411,-1.4142152,1,1683969692.1948314
-0.13708118,0.57253337,0.07226031,-5.999613,4.5744643,3.0534098,0.48491883,9.695411,-1.4142152,1,1683969692.1999707
-0.09476163,0.5646671,0.26233238,-5.999613,4.5744643,3.0534098,0.48491883,9.695411,-1.4142152,1,1683969692.2153387
-0.09476163,0.5646671,0.26233238,-6.2117357,4.9756503,3.3942728,0.48491883,9.695411,-1.4142152,1,1683969692.2204747
-0.09476163,0.5646671,0.26233238,-6.2117357,4.9756503,3.3942728,0.7975837,9.740754,-0.8471803,1,1683969692.2358794
-0.09476163,0.5646671,0.26233238,-6.2109723,5.243362,3.7271943,0.7975837,9.740754,-0.8471803,1,1683969692.241011
0.021647604,0.5552153,0.4688688,-6.2109723,5.243362,3.7271943,0.7975837,9.740754,-0.8471803,1,1683969692.2461448
0.021647604,0.5552153,0.4688688,-6.2109723,5.243362,3.7271943,1.2809117,9.72575,0.07188626,1,1683969692.2666442
0.42752492,0.5104566,1.1986674,-6.2109723,5.243362,3.7271943,1.2809117,9.72575,0.07188626,1,1683969692.287141
0.42752492,0.5104566,1.1986674,-6.2109723,5.243362,3.7271943,2.1265566,5.723703,7.678092,1,1683969692.2922373
0.42752492,0.5104566,1.1986674,-0.34788775,0.02107485,0.29901853,2.1265566,5.723703,7.678092,1,1683969692.2973225
0.42752492,0.5104566,1.1986674,0.15118915,-0.12629639,0.2098322,2.1265566,5.723703,7.678092,1,1683969692.322758
0.42752492,0.5104566,1.1986674,0.15118915,-0.12629639,0.2098322,2.1431,5.691487,7.6974163,1,1683969692.3278506
0.41093862,0.49710217,1.2576344,0.15118915,-0.12629639,0.2098322,2.1431,5.691487,7.6974163,1,1683969692.332986
0.39447424,0.4844185,1.2483655,0.15118915,-0.12629639,0.2098322,2.1431,5.691487,7.6974163,1,1683969692.3483508
0.39447424,0.4844185,1.2483655,0.15118915,-0.12629639,0.2098322,2.1639693,5.694645,7.6892376,1,1683969692.3688862
0.39447424,0.4844185,1.2483655,0.5224425,-0.0720821,0.17134771,2.1639693,5.694645,7.6892376,1,1683969692.374021
0.35642326,0.4698445,1.132505,0.5224425,-0.0720821,0.17134771,2.1639693,5.694645,7.6892376,1,1683969692.3893878
0.35642326,0.4698445,1.132505,0.72066826,0.17394388,0.183565,2.1639693,5.694645,7.6892376,1,1683969692.4047117
0.35642326,0.4698445,1.132505,0.72066826,0.17394388,0.183565,2.1776745,5.7231636,7.664153,1,1683969692.4098482
0.35642326,0.4698445,1.132505,0.72066826,0.17394388,0.183565,2.1692615,5.785227,7.6198134,1,1683969692.4252458
0.37916848,0.49393123,0.98097193,0.72066826,0.17394388,0.183565,2.1692615,5.785227,7.6198134,1,1683969692.4355123
0.37916848,0.49393123,0.98097193,0.6966918,0.46593747,0.21487185,2.1692615,5.785227,7.6198134,1,1683969692.4406457
0.37916848,0.49393123,0.98097193,0.4503604,0.70341134,0.21487185,2.1692615,5.785227,7.6198134,1,1683969692.4509106
0.38337603,0.53033584,0.88066113,0.4503604,0.70341134,0.21487185,2.1692615,5.785227,7.6198134,1,1683969692.4611814
0.38337603,0.53033584,0.88066113,0.4503604,0.70341134,0.21487185,2.1336057,5.8368616,7.5904474,1,1683969692.4817019
0.38337603,0.53033584,0.88066113,0.27931812,0.8555168,0.18753563,2.1336057,5.8368616,7.5904474,1,1683969692.5072188
0.38337603,0.53033584,0.88066113,0.27931812,0.8555168,0.18753563,2.1163979,5.8486648,7.586178,1,1683969692.5123541
0.38886416,0.56917953,0.8055348,0.27931812,0.8555168,0.18753563,2.1163979,5.8486648,7.586178,1,1683969692.5174904
0.38886416,0.56917953,0.8055348,0.113926366,0.91538155,0.13988814,2.1163979,5.8486648,7.586178,1,1683969692.5329075
0.38886416,0.56917953,0.8055348,0.113926366,0.91538155,0.13988814,2.0489647,5.869304,7.5887494,1,1683969692.5380447
0.38886416,0.56917953,0.8055348,0.113926366,0.91538155,0.13988814,1.5364451,5.49129,7.982555,1,1683969692.5534391
0.2157443,0.48130858,0.8483422,0.113926366,0.91538155,0.13988814,1.5364451,5.49129,7.982555,1,1683969692.5637102
0.2157443,0.48130858,0.8483422,0.14477506,0.0047342055,-0.16661349,1.5364451,5.49129,7.982555,1,1683969692.5739226
0.2157443,0.48130858,0.8483422,0.15836681,-0.03436117,-0.1516473,1.5364451,5.49129,7.982555,1,1683969692.5892782
0.1797056,0.44276974,0.78968024,0.15836681,-0.03436117,-0.1516473,1.5364451,5.49129,7.982555,1,1683969692.5943787
0.1797056,0.44276974,0.78968024,0.15836681,-0.03436117,-0.1516473,1.5232427,5.5131645,7.9699974,1,1683969692.5994718
0.15439926,0.44697732,0.7778503,0.15836681,-0.03436117,-0.1516473,1.5232427,5.5131645,7.9699974,1,1683969692.6199036
0.15439926,0.44697732,0.7778503,0.13607024,-0.082161374,-0.0759,1.5232427,5.5131645,7.9699974,1,1683969692.6301289
0.15439926,0.44697732,0.7778503,0.13607024,-0.082161374,-0.0759,1.5209553,5.5242057,7.962786,1,1683969692.6454692
0.16061912,0.4688688,0.7894973,0.13607024,-0.082161374,-0.0759,1.5209553,5.5242057,7.962786,1,1683969692.6557362
0.16061912,0.4688688,0.7894973,0.11133019,-0.095753126,-0.034513887,1.5209553,5.5242057,7.962786,1,1683969692.666004
0.16061912,0.4688688,0.7894973,0.11133019,-0.095753126,-0.034513887,1.5240002,5.5329204,7.9561505,1,1683969692.6814022
0.16061912,0.4688688,0.7894973,0.11133019,-0.095753126,-0.034513887,1.5269653,5.5398717,7.950743,1,1683969692.7018676
0.15128931,0.50655395,0.7893143,0.11133019,-0.095753126,-0.034513887,1.5269653,5.5398717,7.950743,1,1683969692.7069597
