acc_x,acc_y,acc_z,gyr_x,gyr_y,gyr_z,grav_x,grav_y,grav_z,label,timestamp
1.7875433,2.2636077,0.18409611,1.478752,0.09086621,3.4319937,1.8632365,7.4704137,6.079258,1,1683969708.0372055
1.7221128,2.39764,0.104396336,1.478752,0.09086621,3.4319937,1.8632365,7.4704137,6.079258,1,1683969708.0574586
1.7221128,2.39764,0.104396336,0.5879578,-0.20463985,0.032070424,2.08682,7.5517178,5.90363,1,1683969708.0626247
1.2886727,2.0564613,0.030184686,-0.45814893,0.06047566,-1.6354389,2.0660098,7.61618,5.8276505,1,1683969708.0678174
1.132627,1.8098617,0.052686002,-1.1082623,0.34193182,-2.3956609,2.0660098,7.61618,5.8276505,1,1683969708.0729651
1.132627,1.8098617,0.052686002,-1.1082623,0.34193182,-2.3956609,1.8989428,7.6310472,5.864917,1,1683969708.0780296
0.92865175,1.4243515,0.11110405,-1.1082623,0.34193182,-2.3956609,1.8989428,7.6310472,5.864917,1,1683969708.0882952
0.92865175,1.4243515,0.11110405,-1.1082623,0.34193182,-2.3956609,1.7209722,7.615596,5.9394503,1,1683969708.103676
0.92865175,1.4243515,0.11110405,-1.6029104,0.5717699,-2.9191723,1.7209722,7.615596,5.9394503,1,1683969708.1088028
0.92865175,1.4243515,0.11110405,-2.0410535,0.7075347,-3.4041994,1.7209722,7.615596,5.9394503,1,1683969708.1446455
0.92865175,1.4243515,0.11110405,-2.0410535,0.7075347,-3.4041994,1.4961046,7.5754414,6.050658,1,1683969708.1497738
0.71168786,1.0242062,0.14915505,-2.0410535,0.7075347,-3.4041994,1.4961046,7.5754414,6.050658,1,1683969708.154895
0.3240433,0.4936264,0.2359284,-2.0410535,0.7075347,-3.4041994,1.4961046,7.5754414,6.050658,1,1683969708.175404
0.3240433,0.4936264,0.2359284,-2.4888177,0.7305948,-3.8362339,1.4961046,7.5754414,6.050658,1,1683969708.180535
0.3240433,0.4936264,0.2359284,-2.4888177,0.7305948,-3.8362339,1.2334398,7.50791,6.1924176,1,1683969708.190788
0.08878566,0.17403455,0.3405077,-2.4888177,0.7305948,-3.8362339,1.2334398,7.50791,6.1924176,1,1683969708.2061765
0.08878566,0.17403455,0.3405077,-2.4888177,0.7305948,-3.8362339,0.9457679,7.408228,6.360801,1,1683969708.2112684
0.08878566,0.17403455,0.3405077,-2.6650524,0.6598872,-3.9796343,0.9457679,7.408228,6.360801,1,1683969708.226656
0.08878566,0.17403455,0.3405077,-2.651766,0.3136793,-3.998724,0.9457679,7.408228,6.360801,1,1683969708.2369227
0.08878566,0.17403455,0.3405077,-2.651766,0.3136793,-3.998724,0.4892032,7.190921,6.6548815,1,1683969708.2472003
-0.3638627,-0.38575423,0.6710147,-2.651766,0.3136793,-3.998724,0.4892032,7.190921,6.6548815,1,1683969708.2625918
-0.3638627,-0.38575423,0.6710147,-2.651766,0.3136793,-3.998724,0.21318744,7.032932,6.835827,1,1683969708.2882416
-0.3638627,-0.38575423,0.6710147,-2.060143,-0.17302758,-3.450167,0.21318744,7.032932,6.835827,1,1683969708.293373
-0.9529824,-0.8959059,1.1347613,-2.060143,-0.17302758,-3.450167,0.21318744,7.032932,6.835827,1,1683969708.298503
-1.4005086,-1.1451279,1.4316078,-2.060143,-0.17302758,-3.450167,0.21318744,7.032932,6.835827,1,1683969708.3087606
-1.4005086,-1.1451279,1.4316078,-1.14018,-0.54382277,-2.5196664,0.21318744,7.032932,6.835827,1,1683969708.3189337
-1.4005086,-1.1451279,1.4316078,-1.14018,-0.54382277,-2.5196664,0.09692725,6.96073,6.9119425,1,1683969708.3291924
-1.4005086,-1.1451279,1.4316078,-1.14018,-0.54382277,-2.5196664,-0.13033561,6.8164964,7.0536866,1,1683969708.3496785
-1.4005086,-1.1451279,1.4316078,0.35155296,-0.9790643,-0.9804387,-0.13033561,6.8164964,7.0536866,1,1683969708.3548093
-1.6505232,-1.258976,1.5689939,0.35155296,-0.9790643,-0.9804387,-0.13033561,6.8164964,7.0536866,1,1683969708.3701994
-1.6505232,-1.258976,1.5689939,1.5108224,-1.2692252,0.33765575,-0.13033561,6.8164964,7.0536866,1,1683969708.3752918
-1.6769271,-1.2079973,1.507161,1.5108224,-1.2692252,0.33765575,-0.13033561,6.8164964,7.0536866,1,1683969708.3958085
-1.6769271,-1.2079973,1.507161,1.5108224,-1.2692252,0.33765575,-0.13894476,6.8365145,7.0341225,1,1683969708.4009337
-1.5374067,-1.071404,1.3241017,1.5108224,-1.2692252,0.33765575,-0.13894476,6.8365145,7.0341225,1,1683969708.4111938
-1.5374067,-1.071404,1.3241017,1.5108224,-1.2692252,0.33765575,-0.02420338,6.9395075,6.933885,1,1683969708.416328
-1.5374067,-1.071404,1.3241017,2.414292,-1.3712398,1.6131424,-0.02420338,6.9395075,6.933885,1,1683969708.4214585
-1.5374067,-1.071404,1.3241017,2.414292,-1.3712398,1.6131424,0.171003,7.0870523,6.780897,1,1683969708.4573226
-1.5374067,-1.071404,1.3241017,2.983924,-1.1840096,3.0795245,0.171003,7.0870523,6.780897,1,1683969708.4727004
-1.1216508,-0.7879728,1.0260355,2.983924,-1.1840096,3.0795245,0.171003,7.0870523,6.780897,1,1683969708.477832
-1.1216508,-0.7879728,1.0260355,2.9927816,-0.7788532,3.9985712,0.171003,7.0870523,6.780897,1,1683969708.4829674
-0.59107107,-0.3969134,0.8082179,2.9927816,-0.7788532,3.9985712,0.171003,7.0870523,6.780897,1,1683969708.4932234
-0.59107107,-0.3969134,0.8082179,2.9927816,-0.7788532,3.9985712,0.42954642,7.2456713,6.599382,1,1683969708.5136945
-0.59107107,-0.3969134,0.8082179,2.9927816,-0.7788532,3.9985712,0.7293259,7.385773,6.4151816,1,1683969708.5290852
-0.16970502,-0.040124293,0.6852839,2.9927816,-0.7788532,3.9985712,0.7293259,7.385773,6.4151816,1,1683969708.5342112
-0.16970502,-0.040124293,0.6852839,2.8241827,-0.41248676,4.447252,0.7293259,7.385773,6.4151816,1,1683969708.5495281
-0.16970502,-0.040124293,0.6852839,2.2299635,0.43600506,4.7326784,0.7293259,7.385773,6.4151816,1,1683969708.5546584
-0.16970502,-0.040124293,0.6852839,2.2299635,0.43600506,4.7326784,1.2168351,7.5389547,6.1578884,1,1683969708.5751522
0.6979676,0.79925394,0.5375314,2.2299635,0.43600506,4.7326784,1.2168351,7.5389547,6.1578884,1,1683969708.5802307
0.6979676,0.79925394,0.5375314,2.2299635,0.43600506,4.7326784,1.3718561,7.573061,6.0829983,1,1683969708.5956225
0.6979676,0.79925394,0.5375314,1.8046486,0.91981035,4.389983,1.3718561,7.573061,6.0829983,1,1683969708.605884
1.2247665,1.4384986,0.42313445,1.8046486,0.91981035,4.389983,1.3718561,7.573061,6.0829983,1,1683969708.6161041
1.2247665,1.4384986,0.42313445,1.8046486,0.91981035,4.389983,1.762207,7.631857,5.9063945,1,1683969708.6417477
1.2247665,1.4384986,0.42313445,1.382999,1.1583532,3.4434474,1.762207,7.631857,5.9063945,1,1683969708.6520002
1.7605907,2.046522,0.23873344,1.382999,1.1583532,3.4434474,1.762207,7.631857,5.9063945,1,1683969708.6571317
1.7605907,2.046522,0.23873344,1.382999,1.1583532,3.4434474,1.9464692,7.6526556,5.821017,1,1683969708.6827464
1.7605907,2.046522,0.23873344,1.079857,1.0398453,2.349235,1.9464692,7.6526556,5.821017,1,1683969708.6878784
2.0148127,2.388432,0.023294043,1.079857,1.0398453,2.349235,1.9464692,7.6526556,5.821017,1,1683969708.69301
2.0398142,2.593993,-0.14220342,1.079857,1.0398453,2.349235,1.9464692,7.6526556,5.821017,1,1683969708.7031844
2.0398142,2.593993,-0.14220342,1.079857,1.0398453,2.349235,2.0618253,7.672611,5.7546515,1,1683969708.7083225
2.0398142,2.593993,-0.14220342,0.7467828,0.74006325,1.1154399,2.0618253,7.672611,5.7546515,1,1683969708.723702
1.826448,2.6067374,-0.19867012,0.7467828,0.74006325,1.1154399,2.0618253,7.672611,5.7546515,1,1683969708.7493434
1.826448,2.6067374,-0.19867012,0.33307427,0.26832256,-0.32788193,2.0618253,7.672611,5.7546515,1,1683969708.7544756
1.826448,2.6067374,-0.19867012,0.33307427,0.26832256,-0.32788193,2.1067286,7.7111535,5.6864696,1,1683969708.7596087
1.5694208,2.400079,-0.14293517,0.33307427,0.26832256,-0.32788193,2.1067286,7.7111535,5.6864696,1,1683969708.790342
1.5694208,2.400079,-0.14293517,0.022143865,0.004276057,-1.2701416,2.1067286,7.7111535,5.6864696,1,1683969708.7954597
1.5694208,2.400079,-0.14293517,0.022143865,0.004276057,-1.2701416,2.0621023,7.741958,5.660912,1,1683969708.8005927
1.5694208,2.400079,-0.14293517,0.022143865,0.004276057,-1.2701416,1.9673479,7.772184,5.653212,1,1683969708.8057215
1.5694208,2.400079,-0.14293517,-0.3791946,-0.17562376,-2.1560488,1.9673479,7.772184,5.653212,1,1683969708.815983
1.3380659,2.1552477,-0.109762505,-0.3791946,-0.17562376,-2.1560488,1.9673479,7.772184,5.653212,1,1683969708.8262432
1.100613,1.7864457,-0.07677277,-0.3791946,-0.17562376,-2.1560488,1.9673479,7.772184,5.653212,1,1683969708.8518496
1.100613,1.7864457,-0.07677277,-0.3791946,-0.17562376,-2.1560488,1.8306428,7.7956805,5.6667647,1,1683969708.8621056
1.100613,1.7864457,-0.07677277,-0.73746705,-0.19043724,-2.7130053,1.8306428,7.7956805,5.6667647,1,1683969708.872327
1.100613,1.7864457,-0.07677277,-1.1647673,-0.088728175,-3.1538973,1.8306428,7.7956805,5.6667647,1,1683969708.8825884
1.100613,1.7864457,-0.07677277,-1.1647673,-0.088728175,-3.1538973,1.655375,7.8056707,5.70678,1,1683969708.8928497
0.9138948,1.4361813,-0.052198168,-1.1647673,-0.088728175,-3.1538973,1.655375,7.8056707,5.70678,1,1683969708.9082477
0.9138948,1.4361813,-0.052198168,-1.1647673,-0.088728175,-3.1538973,1.4446638,7.7941422,5.779309,1,1683969708.9236333
0.72778636,1.0689648,-0.031038398,-1.1647673,-0.088728175,-3.1538973,1.4446638,7.7941422,5.779309,1,1683969708.9338863
0.72778636,1.0689648,-0.031038398,-1.6406313,0.06078109,-3.523318,1.4446638,7.7941422,5.779309,1,1683969708.9441478
0.72778636,1.0689648,-0.031038398,-2.2591324,0.1647809,-3.9555051,1.4446638,7.7941422,5.779309,1,1683969708.9544086
0.46063665,0.56686234,-0.04189269,-2.2591324,0.1647809,-3.9555051,1.4446638,7.7941422,5.779309,1,1683969708.9697444
0.46063665,0.56686234,-0.04189269,-2.2591324,0.1647809,-3.9555051,1.2026019,7.754285,5.887352,1,1683969708.980003
0.46063665,0.56686234,-0.04189269,-2.8170052,0.00076358154,-4.2749877,1.2026019,7.754285,5.887352,1,1683969708.995394
0.19574313,0.14000817,0.011890938,-2.8170052,0.00076358154,-4.2749877,1.2026019,7.754285,5.887352,1,1683969709.000525
0.19574313,0.14000817,0.011890938,-2.8170052,0.00076358154,-4.2749877,0.798459,7.6300364,6.1140103,1,1683969709.0159104
0.19574313,0.14000817,0.011890938,-3.0876184,-0.28420505,-4.394717,0.798459,7.6300364,6.1140103,1,1683969709.0363991
0.19574313,0.14000817,0.011890938,-3.0876184,-0.28420505,-4.394717,0.51276517,7.482228,6.323722,1,1683969709.0466518
-0.20312162,-0.39977944,0.32477504,-3.0876184,-0.28420505,-4.394717,0.51276517,7.482228,6.323722,1,1683969709.0517828
-0.64186674,-0.8537083,0.8377318,-3.0876184,-0.28420505,-4.394717,0.51276517,7.482228,6.323722,1,1683969709.062037
-0.64186674,-0.8537083,0.8377318,-2.961933,-0.7622071,-4.1367793,0.51276517,7.482228,6.323722,1,1683969709.077364
-0.64186674,-0.8537083,0.8377318,-2.961933,-0.7622071,-4.1367793,0.22594637,7.3016596,6.5475826,1,1683969709.087636
-0.64186674,-0.8537083,0.8377318,-2.961933,-0.7622071,-4.1367793,-0.114683494,7.0193276,6.852153,1,1683969709.092771
-1.2767818,-1.299588,1.3310533,-2.961933,-0.7622071,-4.1367793,-0.114683494,7.0193276,6.852153,1,1683969709.1184168
-1.2767818,-1.299588,1.3310533,-2.346639,-1.2049317,-3.3589952,-0.114683494,7.0193276,6.852153,1,1683969709.1235502
-1.730101,-1.4760617,1.7763232,-2.346639,-1.2049317,-3.3589952,-0.114683494,7.0193276,6.852153,1,1683969709.128673
-1.730101,-1.4760617,1.7763232,-0.8703303,-1.4740179,-1.701107,-0.114683494,7.0193276,6.852153,1,1683969709.1338055
-1.730101,-1.4760617,1.7763232,-0.8703303,-1.4740179,-1.701107,-0.23345506,6.8747125,6.9942784,1,1683969709.1440682
-1.730101,-1.4760617,1.7763232,-0.8703303,-1.4740179,-1.701107,-0.25197408,6.809582,7.057069,1,1683969709.1645734
-1.730101,-1.4760617,1.7763232,0.5529858,-1.4660766,-0.05971208,-0.25197408,6.809582,7.057069,1,1683969709.1799588
-1.9332225,-1.5036852,1.893891,0.5529858,-1.4660766,-0.05971208,-0.25197408,6.809582,7.057069,1,1683969709.195217
-1.9332225,-1.5036852,1.893891,0.5529858,-1.4660766,-0.05971208,-0.2231859,6.8122873,7.0554266,1,1683969709.2003443
-1.7811406,-1.3645918,1.7287595,0.5529858,-1.4660766,-0.05971208,-0.2231859,6.8122873,7.0554266,1,1683969709.210558
-1.7811406,-1.3645918,1.7287595,1.7867808,-1.317331,1.5862644,-0.2231859,6.8122873,7.0554266,1,1683969709.2208073
-1.7811406,-1.3645918,1.7287595,1.7867808,-1.317331,1.5862644,0.11695543,7.0118513,6.859765,1,1683969709.2413137
-1.7811406,-1.3645918,1.7287595,2.7302623,-0.907593,3.3438764,0.11695543,7.0118513,6.859765,1,1683969709.2464058
-1.3039175,-1.03939,1.3133084,2.7302623,-0.907593,3.3438764,0.11695543,7.0118513,6.859765,1,1683969709.2617888
-0.9208464,-0.8118766,1.0756725,2.7302623,-0.907593,3.3438764,0.11695543,7.0118513,6.859765,1,1683969709.2771702
-0.9208464,-0.8118766,1.0756725,2.931237,-0.57971114,4.2035165,0.11695543,7.0118513,6.859765,1,1683969709.2822654
-0.9208464,-0.8118766,1.0756725,2.931237,-0.57971114,4.2035165,0.24645664,7.086966,6.7786646,1,1683969709.297586
-0.9208464,-0.8118766,1.0756725,2.8275425,0.076816306,5.229312,0.24645664,7.086966,6.7786646,1,1683969709.318096
-0.090554066,-0.24037987,0.7739476,2.8275425,0.076816306,5.229312,0.24645664,7.086966,6.7786646,1,1683969709.3231804
-0.090554066,-0.24037987,0.7739476,2.8275425,0.076816306,5.229312,0.5439665,7.2338176,6.6039457,1,1683969709.3334434
-0.090554066,-0.24037987,0.7739476,2.345417,0.7293731,5.4260106,0.5439665,7.2338176,6.6039457,1,1683969709.3437095
0.5775947,0.4027674,0.5780215,2.345417,0.7293731,5.4260106,0.5439665,7.2338176,6.6039457,1,1683969709.3488007
0.5775947,0.4027674,0.5780215,2.345417,0.7293731,5.4260106,1.0583724,7.4039273,6.348056,1,1683969709.3539326
0.22964753,0.12378771,0.26733267,2.345417,0.7293731,5.4260106,1.0583724,7.4039273,6.348056,1,1683969709.410157
0.22964753,0.12378771,0.26733267,-2.6968174,-0.21395555,-4.446488,1.0583724,7.4039273,6.348056,1,1683969709.4152498
0.22964753,0.12378771,0.26733267,-2.6968174,-0.21395555,-4.446488,0.99171925,7.535105,6.202806,1,1683969709.4255097
-0.11689706,-0.39148626,0.5170424,-2.6968174,-0.21395555,-4.446488,0.99171925,7.535105,6.202806,1,1683969709.4409037
-0.11689706,-0.39148626,0.5170424,-3.0401237,-0.22556199,-4.5582767,0.99171925,7.535105,6.202806,1,1683969709.4562976
-0.11689706,-0.39148626,0.5170424,-3.0401237,-0.22556199,-4.5582767,0.7012677,7.3925743,6.4104733,1,1683969709.4614296
-0.11689706,-0.39148626,0.5170424,-3.1279354,-0.3361286,-4.387387,0.7012677,7.3925743,6.4104733,1,1683969709.4665632
-0.11689706,-0.39148626,0.5170424,-3.1279354,-0.3361286,-4.387387,0.40679607,7.2162066,6.6330233,1,1683969709.4818776
-0.5789972,-0.88736886,0.85755,-3.1279354,-0.3361286,-4.387387,0.40679607,7.2162066,6.6330233,1,1683969709.4972675
-0.5789972,-0.88736886,0.85755,-2.6442828,-0.6087272,-3.5013268,0.40679607,7.2162066,6.6330233,1,1683969709.5075433
-1.2250715,-1.3296508,1.3963009,-2.6442828,-0.6087272,-3.5013268,0.40679607,7.2162066,6.6330233,1,1683969709.5228896
-1.2250715,-1.3296508,1.3963009,-2.6442828,-0.6087272,-3.5013268,0.14670402,7.0247436,6.845989,1,1683969709.5331137
-1.2250715,-1.3296508,1.3963009,-2.6442828,-0.6087272,-3.5013268,-0.042021018,6.850757,7.0215006,1,1683969709.5382051
-1.2250715,-1.3296508,1.3963009,-1.65911,-0.7629707,-2.2774584,-0.042021018,6.850757,7.0215006,1,1683969709.553526
-1.6430838,-1.4347788,1.7573587,-1.65911,-0.7629707,-2.2774584,-0.042021018,6.850757,7.0215006,1,1683969709.5688457
-1.8248626,-1.4482552,1.8885249,-1.65911,-0.7629707,-2.2774584,-0.042021018,6.850757,7.0215006,1,1683969709.5893407
-1.8248626,-1.4482552,1.8885249,-1.65911,-0.7629707,-2.2774584,-0.13972259,6.7350717,7.131297,1,1683969709.5996013
-1.8248626,-1.4482552,1.8885249,-0.042913284,-0.9246973,-0.41691554,-0.13972259,6.7350717,7.131297,1,1683969709.6047308
-1.8248626,-1.4482552,1.8885249,1.2400564,-0.8544478,1.1209377,-0.13972259,6.7350717,7.131297,1,1683969709.6150014
-1.8248626,-1.4482552,1.8885249,1.2400564,-0.8544478,1.1209377,-0.10120843,6.7190075,7.147084,1,1683969709.625265
-1.73004,-1.2940389,1.7922996,1.2400564,-0.8544478,1.1209377,-0.10120843,6.7190075,7.147084,1,1683969709.6304
-1.5156372,-1.1273829,1.5897269,1.2400564,-0.8544478,1.1209377,-0.10120843,6.7190075,7.147084,1,1683969709.6457844
-1.5156372,-1.1273829,1.5897269,1.2400564,-0.8544478,1.1209377,-0.043787755,6.7552304,7.1134424,1,1683969709.6509151
-1.2857457,-0.9997535,1.2900143,1.2400564,-0.8544478,1.1209377,-0.043787755,6.7552304,7.1134424,1,1683969709.6816766
-1.2857457,-0.9997535,1.2900143,1.2400564,-0.8544478,1.1209377,-0.12118647,7.2044873,6.657086,1,1683969709.6919405
-1.2857457,-0.9997535,1.2900143,2.1679606,0.14920384,2.54517,-0.12118647,7.2044873,6.657086,1,1683969709.6970634
-1.2857457,-0.9997535,1.2900143,2.4550674,0.35521814,3.7485745,-0.12118647,7.2044873,6.657086,1,1683969709.7124135
-1.2857457,-0.9997535,1.2900143,2.4550674,0.35521814,3.7485745,0.123320125,7.38494,6.456281,1,1683969709.7329693
-0.76315427,-0.65601385,0.8747462,2.4550674,0.35521814,3.7485745,0.123320125,7.38494,6.456281,1,1683969709.7381027
-0.21946402,-0.22958656,0.6574164,2.4550674,0.35521814,3.7485745,0.123320125,7.38494,6.456281,1,1683969709.7585576
-0.21946402,-0.22958656,0.6574164,2.425746,0.54534996,4.3928847,0.123320125,7.38494,6.456281,1,1683969709.7636867
-0.21946402,-0.22958656,0.6574164,2.425746,0.54534996,4.3928847,0.3571462,7.5037713,6.3088803,1,1683969709.768821
-0.21946402,-0.22958656,0.6574164,2.425746,0.54534996,4.3928847,0.63407385,7.607372,6.161328,1,1683969709.799527
-0.21946402,-0.22958656,0.6574164,2.2139285,0.77198094,4.6638036,0.63407385,7.607372,6.161328,1,1683969709.80461
0.38014415,0.47100312,0.47405204,2.2139285,0.77198094,4.6638036,0.63407385,7.607372,6.161328,1,1683969709.809689
0.7857775,1.0539029,0.38240036,2.2139285,0.77198094,4.6638036,0.63407385,7.607372,6.161328,1,1683969709.8148074
0.7857775,1.0539029,0.38240036,2.0182989,0.9414961,4.478864,0.63407385,7.607372,6.161328,1,1683969709.8352845
0.7857775,1.0539029,0.38240036,2.0182989,0.9414961,4.478864,0.92513686,7.6960917,6.0125217,1,1683969709.845539
0.7857775,1.0539029,0.38240036,2.0182989,0.9414961,4.478864,1.19793,7.7650385,5.8741164,1,1683969709.8609302
1.2537317,1.7040019,0.24251415,2.0182989,0.9414961,4.478864,1.19793,7.7650385,5.8741164,1,1683969709.8763225
1.2537317,1.7040019,0.24251415,1.7878499,1.1301007,3.8838813,1.19793,7.7650385,5.8741164,1,1683969709.8814526
1.4098383,1.9281613,0.16342416,1.7878499,1.1301007,3.8838813,1.19793,7.7650385,5.8741164,1,1683969709.8865921
1.4098383,1.9281613,0.16342416,1.7878499,1.1301007,3.8838813,1.4332824,7.8184195,5.7492714,1,1683969709.9019284
1.4098383,1.9281613,0.16342416,1.6346754,1.2017246,3.3617442,1.4332824,7.8184195,5.7492714,1,1683969709.907011
1.7618101,2.5213056,-0.21818347,1.6346754,1.2017246,3.3617442,1.4332824,7.8184195,5.7492714,1,1683969709.922325
1.7618101,2.5213056,-0.21818347,1.6346754,1.2017246,3.3617442,1.6868284,7.881048,5.592834,1,1683969709.9274452
1.7197344,2.6101522,-0.22928166,1.6346754,1.2017246,3.3617442,1.6868284,7.881048,5.592834,1,1683969709.9581838
1.7197344,2.6101522,-0.22928166,0.7069238,0.6017023,0.67057735,1.6868284,7.881048,5.592834,1,1683969709.9632723
1.7197344,2.6101522,-0.22928166,0.7069238,0.6017023,0.67057735,1.8000557,7.8517923,5.5986834,1,1683969709.9684107
1.7197344,2.6101522,-0.22928166,0.4654793,0.11804971,-0.37766743,1.8000557,7.8517923,5.5986834,1,1683969709.9991488
1.7197344,2.6101522,-0.22928166,0.4654793,0.11804971,-0.37766743,1.8108133,7.8853474,5.547824,1,1683969710.0042417
1.6208262,2.6013105,-0.310262,0.4654793,0.11804971,-0.37766743,1.8108133,7.8853474,5.547824,1,1683969710.0093281
1.6208262,2.6013105,-0.310262,0.1386664,-0.33337972,-1.5021176,1.8108133,7.8853474,5.547824,1,1683969710.0195286
1.6208262,2.6013105,-0.310262,0.1386664,-0.33337972,-1.5021176,1.7717552,7.9229684,5.506684,1,1683969710.039977
1.364104,2.3554423,-0.27769914,0.1386664,-0.33337972,-1.5021176,1.7717552,7.9229684,5.506684,1,1683969710.045108
1.129639,2.1026835,-0.27788207,0.1386664,-0.33337972,-1.5021176,1.7717552,7.9229684,5.506684,1,1683969710.0553606
1.129639,2.1026835,-0.27788207,-0.18493946,-0.50426924,-2.143526,1.7717552,7.9229684,5.506684,1,1683969710.0707262
1.129639,2.1026835,-0.27788207,-0.18493946,-0.50426924,-2.143526,1.6867081,7.9600806,5.4798036,1,1683969710.0758705
1.129639,2.1026835,-0.27788207,-0.18493946,-0.50426924,-2.143526,1.4879603,7.996978,5.4836507,1,1683969710.0963361
1.129639,2.1026835,-0.27788207,-0.7307475,-0.51083606,-2.7139215,1.4879603,7.996978,5.4836507,1,1683969710.1168725
0.89377165,1.7130269,-0.25885656,-0.7307475,-0.51083606,-2.7139215,1.4879603,7.996978,5.4836507,1,1683969710.1220088
0.73309153,1.3499569,-0.18623038,-0.7307475,-0.51083606,-2.7139215,1.4879603,7.996978,5.4836507,1,1683969710.137368
0.73309153,1.3499569,-0.18623038,-0.7307475,-0.51083606,-2.7139215,1.3153824,7.995358,5.5299315,1,1683969710.1424983
0.73309153,1.3499569,-0.18623038,-1.2689198,-0.40225476,-3.0724995,1.3153824,7.995358,5.5299315,1,1683969710.157891
0.614548,1.065489,-0.090737,-1.2689198,-0.40225476,-3.0724995,1.3153824,7.995358,5.5299315,1,1683969710.1732757
0.614548,1.065489,-0.090737,-1.679574,-0.27748555,-3.304781,1.3153824,7.995358,5.5299315,1,1683969710.1784062
0.614548,1.065489,-0.090737,-1.679574,-0.27748555,-3.304781,1.2179011,7.9836845,5.5689855,1,1683969710.183529
0.614548,1.065489,-0.090737,-2.2992969,-0.11301007,-3.6419785,1.2179011,7.9836845,5.5689855,1,1683969710.2040446
0.37855867,0.5603376,0.0757971,-2.2992969,-0.11301007,-3.6419785,1.2179011,7.9836845,5.5689855,1,1683969710.2143052
0.37855867,0.5603376,0.0757971,-2.2992969,-0.11301007,-3.6419785,0.88526905,7.8994823,5.748964,1,1683969710.2245557
1.3766047,1.8646818,0.28782168,-2.2992969,-0.11301007,-3.6419785,0.88526905,7.8994823,5.748964,1,1683969710.2296875
1.6255217,2.2467165,0.063113436,-2.2992969,-0.11301007,-3.6419785,0.88526905,7.8994823,5.748964,1,1683969710.245082
1.6255217,2.2467165,0.063113436,1.0989466,0.8895725,2.5086708,0.88526905,7.8994823,5.748964,1,1683969710.2553055
1.6255217,2.2467165,0.063113436,1.0989466,0.8895725,2.5086708,1.5310707,7.828342,5.7104278,1,1683969710.2604384
1.6774759,2.4895356,-0.1188484,1.0989466,0.8895725,2.5086708,1.5310707,7.828342,5.7104278,1,1683969710.2809606
1.6774759,2.4895356,-0.1188484,1.0989466,0.8895725,2.5086708,1.671105,7.854508,5.634734,1,1683969710.2911983
1.6774759,2.4895356,-0.1188484,0.8593347,0.63087106,1.5314392,1.671105,7.854508,5.634734,1,1683969710.3014424
1.6774759,2.4895356,-0.1188484,0.52870387,0.18493946,0.26419923,1.671105,7.854508,5.634734,1,1683969710.3167987
1.6774759,2.4895356,-0.1188484,0.52870387,0.18493946,0.26419923,1.7546326,7.8811564,5.571781,1,1683969710.3270042
1.6445472,2.5915534,-0.22922069,0.52870387,0.18493946,0.26419923,1.7546326,7.8811564,5.571781,1,1683969710.3321404
1.4886844,2.4971578,-0.2526367,0.52870387,0.18493946,0.26419923,1.7546326,7.8811564,5.571781,1,1683969710.3424056
1.4886844,2.4971578,-0.2526367,0.52870387,0.18493946,0.26419923,1.7781038,7.924987,5.501729,1,1683969710.35779
1.4886844,2.4971578,-0.2526367,0.24388795,-0.1414153,-0.6765333,1.7781038,7.924987,5.501729,1,1683969710.3680449
1.3035517,2.3108056,-0.26775953,0.24388795,-0.1414153,-0.6765333,1.7781038,7.924987,5.501729,1,1683969710.38343
1.3035517,2.3108056,-0.26775953,0.24388795,-0.1414153,-0.6765333,1.7297863,7.9541016,5.4750547,1,1683969710.393681
1.3035517,2.3108056,-0.26775953,-0.07498371,-0.32375857,-1.4581354,1.7297863,7.9541016,5.4750547,1,1683969710.409074
1.0821364,2.0018241,-0.2992248,-0.07498371,-0.32375857,-1.4581354,1.7297863,7.9541016,5.4750547,1,1683969710.4192939
1.0821364,2.0018241,-0.2992248,-0.07498371,-0.32375857,-1.4581354,1.6359365,7.976733,5.4709735,1,1683969710.4244304
1.0821364,2.0018241,-0.2992248,-0.60154957,-0.4120286,-2.2134702,1.6359365,7.976733,5.4709735,1,1683969710.4295204
1.0821364,2.0018241,-0.2992248,-0.982424,-0.40424007,-2.5804474,1.6359365,7.976733,5.4709735,1,1683969710.4500477
0.96261716,1.7741888,-0.27025968,-0.982424,-0.40424007,-2.5804474,1.6359365,7.976733,5.4709735,1,1683969710.4551969
0.96261716,1.7741888,-0.27025968,-0.982424,-0.40424007,-2.5804474,1.5025933,7.98416,5.498318,1,1683969710.4756713
0.96261716,1.7741888,-0.27025968,-1.6310102,-0.28970283,-3.0859385,1.5025933,7.98416,5.498318,1,1683969710.4961886
0.96261716,1.7741888,-0.27025968,-1.6310102,-0.28970283,-3.0859385,1.473204,7.893616,5.6352987,1,1683969710.5013204
0.96261716,1.7741888,-0.27025968,-1.4362969,-0.5342017,-3.200781,1.473204,7.893616,5.6352987,1,1683969710.5064538
0.8687092,1.4597193,-0.30288354,-1.4362969,-0.5342017,-3.200781,1.473204,7.893616,5.6352987,1,1683969710.5269704
0.8687092,1.4597193,-0.30288354,-2.0642664,-0.4017966,-3.545462,1.473204,7.893616,5.6352987,1,1683969710.5372505
0.62302417,0.9824963,-0.15439926,-2.0642664,-0.4017966,-3.545462,1.473204,7.893616,5.6352987,1,1683969710.5474913
0.62302417,0.9824963,-0.15439926,-2.0642664,-0.4017966,-3.545462,1.2798446,7.8652706,5.7215056,1,1683969710.5577552
0.62302417,0.9824963,-0.15439926,-2.0642664,-0.4017966,-3.545462,1.0585235,7.7996373,5.855022,1,1683969710.57313
0.62302417,0.9824963,-0.15439926,-2.6623034,-0.25045475,-3.8179078,1.0585235,7.7996373,5.855022,1,1683969710.5782182
0.41343874,0.57704586,-0.003963646,-2.6623034,-0.25045475,-3.8179078,1.0585235,7.7996373,5.855022,1,1683969710.5833066
0.19074284,0.172693,0.18318142,-2.6623034,-0.25045475,-3.8179078,1.0585235,7.7996373,5.855022,1,1683969710.6089315
0.19074284,0.172693,0.18318142,-3.2621732,-0.16539176,-4.1034875,1.0585235,7.7996373,5.855022,1,1683969710.614059
0.19074284,0.172693,0.18318142,-3.2621732,-0.16539176,-4.1034875,0.8158556,7.6911917,6.034571,1,1683969710.6345892
-0.15470415,-0.38038805,0.5371045,-3.2621732,-0.16539176,-4.1034875,0.8158556,7.6911917,6.034571,1,1683969710.6499743
-0.15470415,-0.38038805,0.5371045,-3.2621732,-0.16539176,-4.1034875,0.41227463,7.4300094,6.3922687,1,1683969710.6551137
-0.5368606,-0.83895135,0.9472504,-3.2621732,-0.16539176,-4.1034875,0.41227463,7.4300094,6.3922687,1,1683969710.6756325
-0.5368606,-0.83895135,0.9472504,-3.4106133,-0.5012149,-3.9892554,0.41227463,7.4300094,6.3922687,1,1683969710.6807609
-0.5368606,-0.83895135,0.9472504,-3.4106133,-0.5012149,-3.9892554,0.14241216,7.214259,6.646075,1,1683969710.6858952
-1.0339018,-1.1982406,1.461,-3.4106133,-0.5012149,-3.9892554,0.14241216,7.214259,6.646075,1,1683969710.7166674
-1.0339018,-1.1982406,1.461,-3.4106133,-0.5012149,-3.9892554,-0.09158903,6.9934473,6.878911,1,1683969710.7269356
-1.0339018,-1.1982406,1.461,-2.957046,-0.57543504,-3.4898732,-0.09158903,6.9934473,6.878911,1,1683969710.7320268
-1.6238143,-1.3589207,1.9446867,-2.957046,-0.57543504,-3.4898732,-0.09158903,6.9934473,6.878911,1,1683969710.7575855
-1.6238143,-1.3589207,1.9446867,-1.5720617,-0.4728097,-2.0271564,-0.09158903,6.9934473,6.878911,1,1683969710.7627165
-1.6238143,-1.3589207,1.9446867,-1.5720617,-0.4728097,-2.0271564,-0.26637986,6.806517,7.059496,1,1683969710.7678523
-1.6749148,-1.3369073,1.9205998,-1.5720617,-0.4728097,-2.0271564,-0.26637986,6.806517,7.059496,1,1683969710.778107
-1.6749148,-1.3369073,1.9205998,-0.45341474,-0.593761,-1.2954924,-0.26637986,6.806517,7.059496,1,1683969710.78832
-1.6749148,-1.3369073,1.9205998,-0.45341474,-0.593761,-1.2954924,-0.30308664,6.7522798,7.109921,1,1683969710.7934527
-1.6749148,-1.3369073,1.9205998,0.70952,-0.48166725,0.19394971,-0.30308664,6.7522798,7.109921,1,1683969710.824231
-1.6749148,-1.3369073,1.9205998,0.70952,-0.48166725,0.19394971,-0.3516153,6.71102,7.146656,1,1683969710.8344896
-1.773701,-1.2943438,1.870536,0.70952,-0.48166725,0.19394971,-0.3516153,6.71102,7.146656,1,1683969710.8396163
-1.6132649,-1.1015277,1.5785067,0.70952,-0.48166725,0.19394971,-0.3516153,6.71102,7.146656,1,1683969710.86528
-1.6132649,-1.1015277,1.5785067,0.70952,-0.48166725,0.19394971,-0.26948136,6.7921605,7.073193,1,1683969710.8704147
-1.6132649,-1.1015277,1.5785067,1.8628336,-0.2932153,2.079538,-0.26948136,6.7921605,7.073193,1,1683969710.875547
-1.6132649,-1.1015277,1.5785067,2.4367414,-0.08445212,3.4358115,-0.26948136,6.7921605,7.073193,1,1683969710.901197
-1.6132649,-1.1015277,1.5785067,2.4367414,-0.08445212,3.4358115,-0.11277057,6.913861,6.9585867,1,1683969710.9114447
-1.2226323,-0.85675734,1.3064786,2.4367414,-0.08445212,3.4358115,-0.11277057,6.913861,6.9585867,1,1683969710.9165866
-0.6734539,-0.52582335,1.0429877,2.4367414,-0.08445212,3.4358115,-0.11277057,6.913861,6.9585867,1,1683969710.9370944
-0.6734539,-0.52582335,1.0429877,2.4367414,-0.08445212,3.4358115,0.113483645,7.058222,6.8121037,1,1683969710.9422286
-0.6734539,-0.52582335,1.0429877,2.741716,0.34162638,4.7201557,0.113483645,7.058222,6.8121037,1,1683969710.9473162
-0.19946286,-0.2125734,0.8879787,2.741716,0.34162638,4.7201557,0.113483645,7.058222,6.8121037,1,1683969710.9780328
-0.19946286,-0.2125734,0.8879787,2.741716,0.34162638,4.7201557,0.24730127,7.130607,6.7327113,1,1683969710.983161
-0.19946286,-0.2125734,0.8879787,2.7462974,0.56153786,5.0582695,0.24730127,7.130607,6.7327113,1,1683969710.988298
-0.19946286,-0.2125734,0.8879787,2.7462974,0.56153786,5.0582695,0.6985948,7.323096,6.4900184,1,1683969710.9985209
-0.19946286,-0.2125734,0.8879787,2.496301,1.1675162,5.396689,0.6985948,7.323096,6.4900184,1,1683969711.0036545
0.6210728,0.45630714,0.62418276,2.496301,1.1675162,5.396689,0.6985948,7.323096,6.4900184,1,1683969711.013922
1.2845261,1.3714216,0.30452996,2.496301,1.1675162,5.396689,0.6985948,7.323096,6.4900184,1,1683969711.0293124
1.2845261,1.3714216,0.30452996,1.9908098,1.4434745,4.810564,0.6985948,7.323096,6.4900184,1,1683969711.0447133
-1.3344071,-0.8877957,1.3625795,1.9908098,1.4434745,4.810564,0.6985948,7.323096,6.4900184,1,1683969711.054975
-1.3344071,-0.8877957,1.3625795,1.9908098,1.4434745,4.810564,-0.3104031,6.982425,6.883713,1,1683969711.0601127
-1.3344071,-0.8877957,1.3625795,2.4008532,-0.009315695,2.9643762,-0.3104031,6.982425,6.883713,1,1683969711.0703714
-1.3344071,-0.8877957,1.3625795,2.4008532,-0.009315695,2.9643762,-0.13186145,7.1235414,6.7434325,1,1683969711.0857303
-1.3344071,-0.8877957,1.3625795,2.671161,0.3089451,4.055076,-0.13186145,7.1235414,6.7434325,1,1683969711.0959916
-0.78016746,-0.58570486,1.0240841,2.671161,0.3089451,4.055076,-0.13186145,7.1235414,6.7434325,1,1683969711.116475
-0.07750452,-0.094212815,0.7649227,2.671161,0.3089451,4.055076,-0.13186145,7.1235414,6.7434325,1,1683969711.1318712
-0.07750452,-0.094212815,0.7649227,2.671161,0.3089451,4.055076,1.0720466,7.623798,6.0798473,1,1683969711.1421275
1.3562376,1.7110754,0.24306297,2.671161,0.3089451,4.055076,1.0720466,7.623798,6.0798473,1,1683969711.1523075
1.3562376,1.7110754,0.24306297,1.557401,1.4037683,3.6835175,1.0720466,7.623798,6.0798473,1,1683969711.157436
1.4875869,2.0397532,0.06915038,1.557401,1.4037683,3.6835175,1.0720466,7.623798,6.0798473,1,1683969711.188235
1.4875869,2.0397532,0.06915038,1.4327844,1.0885619,2.7791314,1.0720466,7.623798,6.0798473,1,1683969711.1933646
1.4875869,2.0397532,0.06915038,1.4327844,1.0885619,2.7791314,1.27397,7.6758566,5.9744735,1,1683969711.1984985
1.4875869,2.0397532,0.06915038,1.3509285,0.5870415,1.8649716,1.27397,7.6758566,5.9744735,1,1683969711.2138917
1.5419192,2.3589792,-0.11537258,1.3509285,0.5870415,1.8649716,1.27397,7.6758566,5.9744735,1,1683969711.2241168
1.5419192,2.3589792,-0.11537258,1.3509285,0.5870415,1.8649716,1.4932144,7.7503595,5.8256617,1,1683969711.2292535
1.5419192,2.3589792,-0.11537258,1.2481505,0.21395555,1.1708759,1.4932144,7.7503595,5.8256617,1,1683969711.2496505
1.5344188,2.443923,-0.17135146,1.2481505,0.21395555,1.1708759,1.4932144,7.7503595,5.8256617,1,1683969711.254786
1.5344188,2.443923,-0.17135146,1.2481505,0.21395555,1.1708759,1.5473799,7.7769604,5.7758646,1,1683969711.259915
1.5344188,2.443923,-0.17135146,1.2481505,0.21395555,1.1708759,1.6496938,7.860424,5.632794,1,1683969711.2803917
1.4420964,2.5072803,-0.34782517,1.2481505,0.21395555,1.1708759,1.6496938,7.860424,5.632794,1,1683969711.2906523
1.4420964,2.5072803,-0.34782517,0.853226,-0.45265114,-0.17256944,1.6496938,7.860424,5.632794,1,1683969711.311172
1.4420964,2.5072803,-0.34782517,0.5739079,-0.6942484,-0.79641557,1.6496938,7.860424,5.632794,1,1683969711.316308
-0.49277264,-0.42039037,0.7943146,0.5739079,-0.6942484,-0.79641557,1.6496938,7.860424,5.632794,1,1683969711.3419144
-0.49277264,-0.42039037,0.7943146,2.8524354,0.1049161,4.837747,1.6496938,7.860424,5.632794,1,1683969711.3470454
-0.49277264,-0.42039037,0.7943146,2.8524354,0.1049161,4.837747,0.031016849,7.206241,6.6562185,1,1683969711.357307
-0.49277264,-0.42039037,0.7943146,2.5621216,0.5493206,5.425705,0.031016849,7.206241,6.6562185,1,1683969711.367585
-0.49277264,-0.42039037,0.7943146,2.5621216,0.5493206,5.425705,0.5057991,7.414446,6.4036145,1,1683969711.393224
0.2409287,0.13628843,0.5975958,2.5621216,0.5493206,5.425705,0.5057991,7.414446,6.4036145,1,1683969711.3983512
0.81699884,0.6889427,0.45764863,2.5621216,0.5493206,5.425705,0.5057991,7.414446,6.4036145,1,1683969711.4086094
0.81699884,0.6889427,0.45764863,2.1600194,0.9129381,5.3484306,0.5057991,7.414446,6.4036145,1,1683969711.4137385
0.81699884,0.6889427,0.45764863,2.1600194,0.9129381,5.3484306,0.8499767,7.517166,6.2454677,1,1683969711.4239922
0.81699884,0.6889427,0.45764863,1.6687311,1.1476631,4.528344,0.8499767,7.517166,6.2454677,1,1683969711.4598453
1.3525789,1.4974654,0.31428665,1.6687311,1.1476631,4.528344,0.8499767,7.517166,6.2454677,1,1683969711.4649732
1.3525789,1.4974654,0.31428665,1.6687311,1.1476631,4.528344,1.1659307,7.5860243,6.1097417,1,1683969711.4701033
1.3525789,1.4974654,0.31428665,1.4043792,1.151481,3.535077,1.1659307,7.5860243,6.1097417,1,1683969711.4803092
1.3525789,1.4974654,0.31428665,1.4043792,1.151481,3.535077,1.4230815,7.629195,6.000527,1,1683969711.4956963
1.5614935,1.9334664,0.1855596,1.4043792,1.151481,3.535077,1.4230815,7.629195,6.000527,1,1683969711.505952
1.6597309,2.1496377,0.0775655,1.4043792,1.151481,3.535077,1.4230815,7.629195,6.000527,1,1683969711.5110857
1.6597309,2.1496377,0.0775655,1.2556335,0.88239485,2.542574,1.4230815,7.629195,6.000527,1,1683969711.5162156
1.6597309,2.1496377,0.0775655,1.2556335,0.88239485,2.542574,1.6156228,7.662717,5.9083533,1,1683969711.5213487
1.685891,2.4636192,-0.07079682,1.2556335,0.88239485,2.542574,1.6156228,7.662717,5.9083533,1,1683969711.5521095
1.685891,2.4636192,-0.07079682,1.2556335,0.88239485,2.542574,1.7539885,7.697761,5.8227243,1,1683969711.5623193
1.685891,2.4636192,-0.07079682,1.1275045,0.48197266,1.5176947,1.7539885,7.697761,5.8227243,1,1683969711.5674403
1.685891,2.4636192,-0.07079682,1.1275045,0.48197266,1.5176947,1.8674864,7.7632017,5.6992383,1,1683969711.5879047
1.565945,2.5267937,-0.15976542,1.1275045,0.48197266,1.5176947,1.8674864,7.7632017,5.6992383,1,1683969711.6031742
1.565945,2.5267937,-0.15976542,0.92164296,-0.009468411,0.30268374,1.8674864,7.7632017,5.6992383,1,1683969711.6083076
1.565945,2.5267937,-0.15976542,0.92164296,-0.009468411,0.30268374,1.7926855,7.741539,5.7524757,1,1683969711.6288366
1.565945,2.5267937,-0.15976542,0.869414,-0.24877487,-0.19425514,1.7926855,7.741539,5.7524757,1,1683969711.6339695
1.498746,2.4953284,-0.12183637,0.869414,-0.24877487,-0.19425514,1.7926855,7.741539,5.7524757,1,1683969711.6442022
1.3177598,2.348003,-0.16653411,0.869414,-0.24877487,-0.19425514,1.7926855,7.741539,5.7524757,1,1683969711.6595113
1.3177598,2.348003,-0.16653411,0.54702985,-0.4373795,-0.9966267,1.7926855,7.741539,5.7524757,1,1683969711.674885
1.3177598,2.348003,-0.16653411,0.54702985,-0.4373795,-0.9966267,1.7854236,7.796061,5.680653,1,1683969711.6800172
1.1381152,2.1756146,-0.19812131,0.54702985,-0.4373795,-0.9966267,1.7854236,7.796061,5.680653,1,1683969711.695396
1.1381152,2.1756146,-0.19812131,0.16905695,-0.5386304,-1.6278032,1.7854236,7.796061,5.680653,1,1683969711.7056563
1.1381152,2.1756146,-0.19812131,0.16905695,-0.5386304,-1.6278032,1.732624,7.844713,5.6297965,1,1683969711.710794
1.1381152,2.1756146,-0.19812131,0.16905695,-0.5386304,-1.6278032,1.6399634,7.8809114,5.606948,1,1683969711.7210557
1.1381152,2.1756146,-0.19812131,-0.43157628,-0.5164866,-2.257147,1.6399634,7.8809114,5.606948,1,1683969711.7261863
0.94536,1.8571205,-0.20854875,-0.43157628,-0.5164866,-2.257147,1.6399634,7.8809114,5.606948,1,1683969711.7517388
0.94536,1.8571205,-0.20854875,-0.9964739,-0.39843684,-2.6671903,1.6399634,7.8809114,5.606948,1,1683969711.756836
0.81419384,1.566067,-0.17757133,-0.9964739,-0.39843684,-2.6671903,1.6399634,7.8809114,5.606948,1,1683969711.7619257
0.81419384,1.566067,-0.17757133,-0.9964739,-0.39843684,-2.6671903,1.5103441,7.8968787,5.6208797,1,1683969711.777311
0.6638192,1.2489144,-0.120494835,-0.9964739,-0.39843684,-2.6671903,1.5103441,7.8968787,5.6208797,1,1683969711.7927
0.6638192,1.2489144,-0.120494835,-0.9964739,-0.39843684,-2.6671903,1.3460016,7.885966,5.6776695,1,1683969711.8131804
0.6638192,1.2489144,-0.120494835,-1.7221818,-0.18371773,-3.1077769,1.3460016,7.885966,5.6776695,1,1683969711.8183174
0.6638192,1.2489144,-0.120494835,-1.7221818,-0.18371773,-3.1077769,1.0406477,7.809876,5.84457,1,1683969711.8388324
0.6638192,1.2489144,-0.120494835,-2.264783,-0.04795292,-3.3884695,1.0406477,7.809876,5.84457,1,1683969711.8490973
0.447892,0.8199868,-0.027623562,-2.264783,-0.04795292,-3.3884695,1.0406477,7.809876,5.84457,1,1683969711.854222
0.26007617,0.47338125,0.07293109,-2.7290404,0.00030543262,-3.613268,1.0406477,7.809876,5.84457,1,1683969711.8644552
0.26007617,0.47338125,0.07293109,-2.7290404,0.00030543262,-3.613268,1.1520846,7.800042,5.8367925,1,1683969711.8695698
0.26007617,0.47338125,0.07293109,-2.9113839,0.30482176,-3.5486689,0.8924869,7.6764765,6.0424566,1,1683969711.8747358
-0.10488417,-0.13049541,0.32221392,-3.5753944,-0.1797471,-4.0026946,0.8924869,7.6764765,6.0424566,1,1683969711.8799155
-0.10488417,-0.13049541,0.32221392,-3.5753944,-0.1797471,-4.0026946,0.48889887,7.4108443,6.4090924,1,1683969711.8850098
-0.31337196,-0.35806966,0.5336897,-3.2782083,-0.84116143,-3.9026654,0.1148478,7.0890627,6.7799797,1,1683969711.8902473
-0.550398,-0.5798509,0.76974,-3.2782083,-0.84116143,-3.9026654,0.1148478,7.0890627,6.7799797,1,1683969711.8953674
-0.550398,-0.5798509,0.76974,-3.2782083,-0.84116143,-3.9026654,-0.14528489,6.78671,7.082061,1,1683969711.9107625
-0.550398,-0.5798509,0.76974,-2.2866213,-1.4521794,-3.0109549,-0.14528489,6.78671,7.082061,1,1683969711.9312396
-1.0432316,-0.95548254,1.3029419,-2.2866213,-1.4521794,-3.0109549,-0.14528489,6.78671,7.082061,1,1683969711.9363701
-1.0432316,-0.95548254,1.3029419,-2.2866213,-1.4521794,-3.0109549,-0.19446085,6.705535,7.1578,1,1683969711.9618669
-1.0432316,-0.95548254,1.3029419,-1.2023355,-1.6615535,-1.8936822,-0.19446085,6.705535,7.1578,1,1683969711.966986
-1.346176,-1.0391461,1.6292413,-1.2023355,-1.6615535,-1.8936822,-0.19446085,6.705535,7.1578,1,1683969711.9721198
-1.346176,-1.0391461,1.6292413,-1.2023355,-1.6615535,-1.8936822,-0.21475509,6.5714946,7.280484,1,1683969711.987493
-1.346176,-1.0391461,1.6292413,0.37003163,-1.5812247,-0.23335053,-0.21475509,6.5714946,7.280484,1,1683969711.9977531
-1.4982581,-0.96719056,1.8068737,0.37003163,-1.5812247,-0.23335053,-0.21475509,6.5714946,7.280484,1,1683969712.0028791
0.8543791,1.6529013,0.07616298,0.37003163,-1.5812247,-0.23335053,-0.21475509,6.5714946,7.280484,1,1683969712.0233517
0.8543791,1.6529013,0.07616298,-0.12140947,-0.38560867,-2.6743681,-0.21475509,6.5714946,7.280484,1,1683969712.0284836
0.8543791,1.6529013,0.07616298,-0.12140947,-0.38560867,-2.6743681,1.6648101,7.723009,5.8154655,1,1683969712.0335767
0.8543791,1.6529013,0.07616298,-0.12140947,-0.38560867,-2.6743681,1.496184,7.757502,5.815385,1,1683969712.0489268
0.8543791,1.6529013,0.07616298,-0.59223384,-0.3494149,-3.1419854,1.496184,7.757502,5.815385,1,1683969712.0744698
0.6394885,1.2930633,0.03469715,-0.59223384,-0.3494149,-3.1419854,1.496184,7.757502,5.815385,1,1683969712.079606
0.6394885,1.2930633,0.03469715,-1.0474812,-0.27672195,-3.43291,1.496184,7.757502,5.815385,1,1683969712.0898836
0.6394885,1.2930633,0.03469715,-1.0474812,-0.27672195,-3.43291,1.2999187,7.7713375,5.844027,1,1683969712.0950184
0.48075974,1.0134128,0.030611541,-1.0474812,-0.27672195,-3.43291,1.2999187,7.7713375,5.844027,1,1683969712.100155
0.3646554,0.8249262,0.051771317,-1.0474812,-0.27672195,-3.43291,1.2999187,7.7713375,5.844027,1,1683969712.1360846
0.3646554,0.8249262,0.051771317,-1.401783,-0.22495113,-3.6144896,1.2999187,7.7713375,5.844027,1,1683969712.1463468
0.3646554,0.8249262,0.051771317,-1.401783,-0.22495113,-3.6144896,1.0792689,7.7577777,5.9066215,1,1683969712.1514444
0.3646554,0.8249262,0.051771317,-2.0234911,-0.19914207,-3.90236,1.0792689,7.7577777,5.9066215,1,1683969712.1616619
0.3646554,0.8249262,0.051771317,-2.0234911,-0.19914207,-3.90236,0.7135659,7.678575,6.0635314,1,1683969712.1820922
0.13336144,0.4422209,0.110006414,-2.0234911,-0.19914207,-3.90236,0.7135659,7.678575,6.0635314,1,1683969712.1871855
0.13336144,0.4422209,0.110006414,-2.0234911,-0.19914207,-3.90236,0.5848882,7.635586,6.1312194,1,1683969712.2077186
0.13336144,0.4422209,0.110006414,-2.3113613,-0.2938262,-3.998724,0.5848882,7.635586,6.1312194,1,1683969712.2179563
-0.042502478,0.18769388,0.22056165,-2.3113613,-0.2938262,-3.998724,0.5848882,7.635586,6.1312194,1,1683969712.2230885
-0.2581858,-0.08159013,0.42197582,-2.3113613,-0.2938262,-3.998724,0.5848882,7.635586,6.1312194,1,1683969712.228191
-0.2581858,-0.08159013,0.42197582,-2.3113613,-0.2938262,-3.998724,0.18746905,7.448786,6.3809533,1,1683969712.2384615
-0.2581858,-0.08159013,0.42197582,-2.4740043,-0.39446622,-3.9735258,0.18746905,7.448786,6.3809533,1,1683969712.2435894
-0.5817413,-0.45252642,0.69510156,-2.4740043,-0.39446622,-3.9735258,0.18746905,7.448786,6.3809533,1,1683969712.2691202
-0.5817413,-0.45252642,0.69510156,-2.4320073,-0.45906523,-3.6436584,0.18746905,7.448786,6.3809533,1,1683969712.2793465
-0.5817413,-0.45252642,0.69510156,-3.7358992,-0.40607268,-3.218191,0.18746905,7.448786,6.3809533,1,1683969712.2998388
-0.5817413,-0.45252642,0.69510156,-3.7358992,-0.40607268,-3.218191,-0.35630098,7.213237,6.639156,1,1683969712.3049777
-0.6855888,-0.62168264,0.9332252,-3.7358992,-0.40607268,-3.218191,-0.35630098,7.213237,6.639156,1,1683969712.3203099
-0.6855888,-0.62168264,0.9332252,-3.7358992,-0.40607268,-3.218191,-0.5465394,6.9587846,6.892949,1,1683969712.3254414
-0.98078895,-0.8982231,1.4173998,-3.7358992,-0.40607268,-3.218191,-0.5465394,6.9587846,6.892949,1,1683969712.340818
-0.98078895,-0.8982231,1.4173998,-3.0703614,-0.61453044,-2.603355,-0.5465394,6.9587846,6.892949,1,1683969712.3459618
-1.3702629,-1.0734773,1.8790731,-3.0703614,-0.61453044,-2.603355,-0.5465394,6.9587846,6.892949,1,1683969712.3765953
-1.3702629,-1.0734773,1.8790731,-3.0703614,-0.61453044,-2.603355,-0.7169884,6.6593165,7.167674,1,1683969712.386861
-1.3702629,-1.0734773,1.8790731,-1.5402967,-0.6058256,-1.2822062,-0.7169884,6.6593165,7.167674,1,1683969712.3919587
-1.5287478,-1.0696965,1.9652976,-1.5402967,-0.6058256,-1.2822062,-0.7169884,6.6593165,7.167674,1,1683969712.397089
-1.5287478,-1.0696965,1.9652976,-0.05009095,-0.52503866,0.06291912,-0.7169884,6.6593165,7.167674,1,1683969712.4227138
-1.5287478,-1.0696965,1.9652976,-0.05009095,-0.52503866,0.06291912,-0.7432262,6.5701194,7.2468786,1,1683969712.4278524
-1.5287478,-1.0696965,1.9652976,-0.05009095,-0.52503866,0.06291912,-0.7277549,6.565547,7.252592,1,1683969712.4483297
-1.5287478,-1.0696965,1.9652976,1.0326678,-0.5296202,1.075581,-0.7277549,6.565547,7.252592,1,1683969712.4534278
-1.5204545,-1.0179253,1.8393147,1.0326678,-0.5296202,1.075581,-0.7277549,6.565547,7.252592,1,1683969712.4585245
-1.3040395,-0.8599892,1.5156982,1.0326678,-0.5296202,1.075581,-0.7277549,6.565547,7.252592,1,1683969712.4840927
-1.3040395,-0.8599892,1.5156982,1.0326678,-0.5296202,1.075581,-0.55811703,6.697324,7.1463604,1,1683969712.494359
-1.3040395,-0.8599892,1.5156982,2.4877486,-0.6432411,2.6678011,-0.55811703,6.697324,7.1463604,1,1683969712.4994872
-0.7857166,-0.59222966,1.2158027,2.4877486,-0.6432411,2.6678011,-0.55811703,6.697324,7.1463604,1,1683969712.5148818
-0.7857166,-0.59222966,1.2158027,2.4877486,-0.6432411,2.6678011,-0.34315643,6.872086,6.9923377,1,1683969712.5251422
-0.7857166,-0.59222966,1.2158027,3.3690746,-0.46746463,4.077373,-0.34315643,6.872086,6.9923377,1,1683969712.5302901
-0.7857166,-0.59222966,1.2158027,3.6251798,0.12156218,5.0469685,-0.34315643,6.872086,6.9923377,1,1683969712.5507739
-0.2978832,-0.15385045,0.9252369,3.6251798,0.12156218,5.0469685,-0.34315643,6.872086,6.9923377,1,1683969712.555912
-0.2978832,-0.15385045,0.9252369,3.6251798,0.12156218,5.0469685,-0.0658224,7.0761447,6.794112,1,1683969712.5610523
-0.26300314,-0.2669668,1.1254925,3.6251798,0.12156218,5.0469685,-0.0658224,7.0761447,6.794112,1,1683969712.5661695
-0.26300314,-0.2669668,1.1254925,3.2030718,-0.4457789,4.903415,-0.0658224,7.0761447,6.794112,1,1683969712.5867412
-0.26300314,-0.2669668,1.1254925,3.2030718,-0.4457789,4.903415,0.40794578,6.9977064,6.863075,1,1683969712.5970054
-0.26300314,-0.2669668,1.1254925,3.1661146,0.35888332,5.434868,0.40794578,6.9977064,6.863075,1,1683969712.617458
-0.26300314,-0.2669668,1.1254925,3.1661146,0.35888332,5.434868,0.7459181,7.1538076,6.671038,1,1683969712.6225924
0.2581858,0.16061912,0.9695687,3.1661146,0.35888332,5.434868,0.7459181,7.1538076,6.671038,1,1683969712.6328564
0.2581858,0.16061912,0.9695687,2.6548204,1.348485,5.519931,0.7459181,7.1538076,6.671038,1,1683969712.6431234
0.9443234,0.84157354,0.6676609,2.6548204,1.348485,5.519931,0.7459181,7.1538076,6.671038,1,1683969712.6533937
0.9443234,0.84157354,0.6676609,2.6548204,1.348485,5.519931,1.2476361,7.340275,6.387479,1,1683969712.6687887
0.9443234,0.84157354,0.6676609,2.0647244,1.9408716,5.0184107,1.2476361,7.340275,6.387479,1,1683969712.6790476
1.2846482,1.2958683,0.52990896,2.0647244,1.9408716,5.0184107,1.2476361,7.340275,6.387479,1,1683969712.6893132
1.2846482,1.2958683,0.52990896,2.0647244,1.9408716,5.0184107,1.3980688,7.3827205,6.306898,1,1683969712.704705
1.6758295,1.8713286,0.2992248,2.0647244,1.9408716,5.0184107,1.3980688,7.3827205,6.306898,1,1683969712.7252204
1.6758295,1.8713286,0.2992248,1.5474744,2.3064744,4.130518,1.3980688,7.3827205,6.306898,1,1683969712.730354
1.6758295,1.8713286,0.2992248,1.5474744,2.3064744,4.130518,1.7498913,7.4535294,6.133423,1,1683969712.740608
1.6758295,1.8713286,0.2992248,1.5474744,2.3064744,4.130518,1.8933506,7.4750524,6.0642343,1,1683969712.7457416
1.6758295,1.8713286,0.2992248,1.1194105,1.9341521,2.7380507,1.8933506,7.4750524,6.0642343,1,1683969712.7508688
1.9182826,2.3873954,-0.051771317,1.1194105,1.9341521,2.7380507,1.8933506,7.4750524,6.0642343,1,1683969712.771324
1.9809693,2.6715584,-0.184401,1.1194105,1.9341521,2.7380507,1.8933506,7.4750524,6.0642343,1,1683969712.7917523
1.9809693,2.6715584,-0.184401,0.9512699,1.0325149,1.3884968,1.8933506,7.4750524,6.0642343,1,1683969712.8020205
1.9809693,2.6715584,-0.184401,0.9512699,1.0325149,1.3884968,1.9828207,7.496517,6.008889,1,1683969712.8071578
1.7718716,2.6436908,-0.111896776,0.9512699,1.0325149,1.3884968,1.9828207,7.496517,6.008889,1,1683969712.827698
1.7718716,2.6436908,-0.111896776,0.9512699,1.0325149,1.3884968,1.8519038,7.7779775,5.6841545,1,1683969712.8585343
1.7718716,2.6436908,-0.111896776,0.37766743,-1.1794281,-2.9142854,1.8519038,7.7779775,5.6841545,1,1683969712.8636718
0.9766424,1.8605353,0.00951275,0.37766743,-1.1794281,-2.9142854,1.8519038,7.7779775,5.6841545,1,1683969712.8688104
0.8484642,1.5689939,-0.07421165,0.37766743,-1.1794281,-2.9142854,1.8519038,7.7779775,5.6841545,1,1683969712.8790758
0.8484642,1.5689939,-0.07421165,0.37766743,-1.1794281,-2.9142854,1.711923,7.850148,5.628553,1,1683969712.8944793
0.8484642,1.5689939,-0.07421165,0.003970624,-1.2331842,-3.3649511,1.711923,7.850148,5.628553,1,1683969712.8996296
0.8484642,1.5689939,-0.07421165,-0.63423085,-1.2426527,-3.8541017,1.711923,7.850148,5.628553,1,1683969712.9047594
0.6816861,1.1610433,-0.078480184,-0.63423085,-1.2426527,-3.8541017,1.711923,7.850148,5.628553,1,1683969712.909895
0.6816861,1.1610433,-0.078480184,-0.63423085,-1.2426527,-3.8541017,1.4447632,7.9231844,5.6010637,1,1683969712.9150321
0.5781435,0.91663885,-0.029574897,-1.0554224,-1.2063061,-4.0921865,1.3419937,7.93366,5.6117907,1,1683969712.9355793
0.36569205,0.48862606,0.056039855,-1.7580702,-1.1259774,-4.408767,1.3419937,7.93366,5.6117907,1,1683969712.940737
0.08549279,0.041953668,0.24056281,-2.3967297,-1.0775663,-4.567592,0.75316876,7.8473883,5.838437,1,1683969712.9459226
0.08549279,0.041953668,0.24056281,-2.8715248,-0.9334021,-4.4538183,0.75316876,7.8473883,5.838437,1,1683969712.9613123
0.08549279,0.041953668,0.24056281,-2.8715248,-0.9334021,-4.4538183,0.48721752,7.728353,6.022566,1,1683969712.966448
-0.19860914,-0.36435053,0.52381104,-2.8715248,-0.9334021,-4.4538183,0.48721752,7.728353,6.022566,1,1683969712.976643
-0.19860914,-0.36435053,0.52381104,-2.8715248,-0.9334021,-4.4538183,0.08909754,7.4815974,6.344594,1,1683969712.9868102
-0.19860914,-0.36435053,0.52381104,-3.0369165,-0.77014834,-4.107916,0.08909754,7.4815974,6.344594,1,1683969712.9919019
-0.5975958,-0.6199752,0.81364506,-3.0369165,-0.77014834,-4.107916,0.08909754,7.4815974,6.344594,1,1683969713.0123274
-0.16250949,-0.14171559,0.21495157,-3.0369165,-0.77014834,-4.107916,0.08909754,7.4815974,6.344594,1,1683969713.0174584
-0.16250949,-0.14171559,0.21495157,-3.0369165,-0.77014834,-4.107916,0.5954261,7.9026713,5.7818136,1,1683969713.0328617
-0.16250949,-0.14171559,0.21495157,-3.1622968,-0.43172902,-3.9845214,0.5954261,7.9026713,5.7818136,1,1683969713.0431378
-0.16250949,-0.14171559,0.21495157,-3.1622968,-0.43172902,-3.9845214,0.32119927,7.7351494,6.024983,1,1683969713.0533984
-0.16250949,-0.14171559,0.21495157,-3.5430183,-0.30390546,-3.8153117,0.32119927,7.7351494,6.024983,1,1683969713.0636685
-0.4437454,-0.43508637,0.48813823,-3.5430183,-0.30390546,-3.8153117,0.32119927,7.7351494,6.024983,1,1683969713.0739062
-0.4437454,-0.43508637,0.48813823,-3.5430183,-0.30390546,-3.8153117,-0.059092548,7.4180098,6.419171,1,1683969713.1046767
-0.86748964,-0.79901004,0.8851736,-3.5430183,-0.30390546,-3.8153117,-0.059092548,7.4180098,6.419171,1,1683969713.1098175
-0.86748964,-0.79901004,0.8851736,-3.6008978,-0.2049453,-3.220787,-0.059092548,7.4180098,6.419171,1,1683969713.1149147
-0.86748964,-0.79901004,0.8851736,-3.6008978,-0.2049453,-3.220787,-0.25629005,7.193244,6.6654086,1,1683969713.135408
-1.2427554,-1.0083514,1.2922705,-3.6008978,-0.2049453,-3.220787,-0.25629005,7.193244,6.6654086,1,1683969713.1508086
-1.2427554,-1.0083514,1.2922705,-3.1610749,-0.20998493,-2.2789855,-0.25629005,7.193244,6.6654086,1,1683969713.1559455
-1.5519809,-1.0615864,1.7143074,-3.1610749,-0.20998493,-2.2789855,-0.25629005,7.193244,6.6654086,1,1683969713.1713116
-1.5519809,-1.0615864,1.7143074,-2.1927009,-0.107665,-0.9746355,-0.25629005,7.193244,6.6654086,1,1683969713.1764524
-1.5519809,-1.0615864,1.7143074,-2.1927009,-0.107665,-0.9746355,-0.38040408,6.997044,6.8653326,1,1683969713.1815526
-1.5519809,-1.0615864,1.7143074,-2.1927009,-0.107665,-0.9746355,-0.42433363,6.87186,6.9881043,1,1683969713.2071946
-1.6816225,-1.0575007,1.8554131,-2.1927009,-0.107665,-0.9746355,-0.42433363,6.87186,6.9881043,1,1683969713.2123358
-1.6816225,-1.0575007,1.8554131,-0.4195117,0.13225232,0.8921687,-0.42433363,6.87186,6.9881043,1,1683969713.227738
-1.6816225,-1.0575007,1.8554131,1.0355693,0.14950927,2.387414,-0.42433363,6.87186,6.9881043,1,1683969713.2380166
-1.5821655,-0.9843867,1.6892449,1.0355693,0.14950927,2.387414,-0.42433363,6.87186,6.9881043,1,1683969713.2534196
-1.5821655,-0.9843867,1.6892449,1.0355693,0.14950927,2.387414,-0.3845907,6.842929,7.0187273,1,1683969713.2636495
-1.1667144,-0.7839482,1.3255042,1.0355693,0.14950927,2.387414,-0.3845907,6.842929,7.0187273,1,1683969713.273913
-1.1667144,-0.7839482,1.3255042,2.4810293,0.18325958,4.0081925,-0.3845907,6.842929,7.0187273,1,1683969713.2841828
0.50021213,0.91340697,-0.1636681,2.4810293,0.18325958,4.0081925,-0.3845907,6.842929,7.0187273,1,1683969713.2995806
0.50021213,0.91340697,-0.1636681,-2.362216,0.34025195,-3.44696,-0.3845907,6.842929,7.0187273,1,1683969713.3149788
0.50021213,0.91340697,-0.1636681,-2.362216,0.34025195,-3.44696,1.3576715,8.0696125,5.410562,1,1683969713.3200889
0.50021213,0.91340697,-0.1636681,-2.362216,0.34025195,-3.44696,0.96844804,7.9553657,5.6577706,1,1683969713.3405979
0.50021213,0.91340697,-0.1636681,-2.9124527,0.47128254,-3.6995525,0.96844804,7.9553657,5.6577706,1,1683969713.3457289
0.30587152,0.57588726,-0.10579886,-2.9124527,0.47128254,-3.6995525,0.96844804,7.9553657,5.6577706,1,1683969713.350866
0.30587152,0.57588726,-0.10579886,-3.4697146,0.52610767,-3.9396226,0.96844804,7.9553657,5.6577706,1,1683969713.3713503
0.08085837,0.23409903,0.008598062,-3.4697146,0.52610767,-3.9396226,0.96844804,7.9553657,5.6577706,1,1683969713.3764856
0.08085837,0.23409903,0.008598062,-3.4697146,0.52610767,-3.9396226,0.6815965,7.8313055,5.8687477,1,1683969713.3816197
-0.15958248,-0.084212236,0.20171909,-3.4697146,0.52610767,-3.9396226,0.6815965,7.8313055,5.8687477,1,1683969713.396931
-0.15958248,-0.084212236,0.20171909,-3.4697146,0.52610767,-3.9396226,0.5277753,7.7512674,5.9896097,1,1683969713.4225943
-0.15958248,-0.084212236,0.20171909,-3.6699257,0.50823987,-4.012621,0.5277753,7.7512674,5.9896097,1,1683969713.4277327
-0.15958248,-0.084212236,0.20171909,-3.6699257,0.50823987,-4.012621,0.0483059,7.4393063,6.394568,1,1683969713.4379983
-0.15958248,-0.084212236,0.20171909,-3.7174203,0.3840815,-3.9635992,0.0483059,7.4393063,6.394568,1,1683969713.4431381
-0.41441444,-0.35691106,0.41301188,-3.7174203,0.3840815,-3.9635992,0.0483059,7.4393063,6.394568,1,1683969713.4482334
-0.41441444,-0.35691106,0.41301188,-3.4058793,0.067500606,-3.6114354,0.0483059,7.4393063,6.394568,1,1683969713.4892118
-0.41441444,-0.35691106,0.41301188,-3.4058793,0.067500606,-3.6114354,-0.24493374,7.2048435,6.653297,1,1683969713.4943476
-0.7519341,-0.6179629,0.7027849,-3.4058793,0.067500606,-3.6114354,-0.24493374,7.2048435,6.653297,1,1683969713.4994693
-1.1151261,-0.85212296,1.0698185,-3.4058793,0.067500606,-3.6114354,-0.24493374,7.2048435,6.653297,1,1683969713.5097413
-1.1151261,-0.85212296,1.0698185,-3.4058793,0.067500606,-3.6114354,-0.59256667,6.865188,6.9824176,1,1683969713.5200129
-1.1151261,-0.85212296,1.0698185,-2.6155722,-0.36010507,-2.8119655,-0.59256667,6.865188,6.9824176,1,1683969713.5251436
-1.1151261,-0.85212296,1.0698185,-1.5735888,-0.59696805,-1.7325666,-0.59256667,6.865188,6.9824176,1,1683969713.5404816
-1.3977646,-1.0001804,1.3750802,-1.5735888,-0.59696805,-1.7325666,-0.59256667,6.865188,6.9824176,1,1683969713.5456207
-1.3977646,-1.0001804,1.3750802,-1.5735888,-0.59696805,-1.7325666,-0.732549,6.6888757,7.1385164,1,1683969713.5558784
-1.3977646,-1.0001804,1.3750802,-1.5735888,-0.59696805,-1.7325666,-0.68155044,6.9959974,6.843071,1,1683969713.5866337
-1.0356092,-0.9459089,1.1523843,-1.5735888,-0.59696805,-1.7325666,-0.68155044,6.9959974,6.843071,1,1683969713.5917687
-1.0356092,-0.9459089,1.1523843,-1.9269744,-0.38347065,-2.9298625,-0.68155044,6.9959974,6.843071,1,1683969713.5968692
-1.3384318,-1.1258584,1.366543,-1.9269744,-0.38347065,-2.9298625,-0.68155044,6.9959974,6.843071,1,1683969713.6122637
-1.3384318,-1.1258584,1.366543,-1.1137601,-0.474795,-1.856114,-0.68155044,6.9959974,6.843071,1,1683969713.6225235
-1.3384318,-1.1258584,1.366543,-1.1137601,-0.474795,-1.856114,-0.83356154,6.8582196,6.964633,1,1683969713.632781
-1.5800312,-1.138664,1.4731957,-1.1137601,-0.474795,-1.856114,-0.83356154,6.8582196,6.964633,1,1683969713.6481624
-1.5800312,-1.138664,1.4731957,-0.07666359,-0.5309946,-0.46043968,-0.83356154,6.8582196,6.964633,1,1683969713.6532938
-1.5800312,-1.138664,1.4731957,-0.07666359,-0.5309946,-0.46043968,-0.8801235,6.811322,7.0048113,1,1683969713.6584256
-1.6294852,-1.0335358,1.4091675,-0.07666359,-0.5309946,-0.46043968,-0.8801235,6.811322,7.0048113,1,1683969713.6891203
-1.6294852,-1.0335358,1.4091675,0.9763154,-0.6372852,0.9952522,-0.8801235,6.811322,7.0048113,1,1683969713.6993482
-1.6294852,-1.0335358,1.4091675,0.9763154,-0.6372852,0.9952522,-0.8836605,6.7868137,7.028116,1,1683969713.704439
-1.425693,-0.9095652,1.1936061,0.9763154,-0.6372852,0.9952522,-0.8836605,6.7868137,7.028116,1,1683969713.7095673
-1.425693,-0.9095652,1.1936061,2.0431914,-0.77549344,2.7146852,-0.8836605,6.7868137,7.028116,1,1683969713.7197802
-1.425693,-0.9095652,1.1936061,2.0431914,-0.77549344,2.7146852,-0.7666054,6.865514,6.965138,1,1683969713.7300506
-0.97804487,-0.6676609,0.99463123,2.0431914,-0.77549344,2.7146852,-0.7666054,6.865514,6.965138,1,1683969713.750572
-0.97804487,-0.6676609,0.99463123,2.7171285,-0.72601336,4.2529964,-0.7666054,6.865514,6.965138,1,1683969713.765962
-0.97804487,-0.6676609,0.99463123,2.7171285,-0.72601336,4.2529964,-0.42166993,7.07868,6.7786865,1,1683969713.776225
-0.97804487,-0.6676609,0.99463123,3.0196595,-0.33475417,5.4056993,-0.42166993,7.07868,6.7786865,1,1683969713.7916086
-0.97804487,-0.6676609,0.99463123,3.0196595,-0.33475417,5.4056993,-0.09770961,7.2464757,6.611744,1,1683969713.79673
-0.3969134,-0.26501545,0.8618186,3.0196595,-0.33475417,5.4056993,-0.09770961,7.2464757,6.611744,1,1683969713.8069801
-0.3969134,-0.26501545,0.8618186,3.0196595,-0.33475417,5.4056993,0.27576786,7.406215,6.427132,1,1683969713.8172414
-0.3969134,-0.26501545,0.8618186,2.990338,0.15836681,5.961892,0.27576786,7.406215,6.427132,1,1683969713.8274972
0.16446081,0.11494574,0.75412935,2.990338,0.15836681,5.961892,0.27576786,7.406215,6.427132,1,1683969713.8326287
0.24720955,0.497651,-0.023111105,2.990338,0.15836681,5.961892,0.27576786,7.406215,6.427132,1,1683969713.8479795
0.24720955,0.497651,-0.023111105,-3.7368155,0.23014349,-3.7238345,0.27576786,7.406215,6.427132,1,1683969713.8531075
0.24720955,0.497651,-0.023111105,-3.7368155,0.23014349,-3.7238345,0.7997661,7.715433,6.0057116,1,1683969713.8684692
0.24720955,0.497651,-0.023111105,-3.7368155,0.23014349,-3.7238345,0.53383386,7.5265455,6.26915,1,1683969713.8787367
0.064089105,0.16659509,0.20818289,-3.7368155,0.23014349,-3.7238345,0.53383386,7.5265455,6.26915,1,1683969713.8838735
0.064089105,0.16659509,0.20818289,-4.120897,0.17348573,-3.9354994,0.53383386,7.5265455,6.26915,1,1683969713.8991947
0.064089105,0.16659509,0.20818289,-4.1518984,0.09208794,-3.9817724,0.53383386,7.5265455,6.26915,1,1683969713.9145951
-0.08963938,-0.07152857,0.4103288,-4.1518984,0.09208794,-3.9817724,0.53383386,7.5265455,6.26915,1,1683969713.935116
-0.08963938,-0.07152857,0.4103288,-4.1518984,0.09208794,-3.9817724,0.39500135,7.411717,6.4145575,1,1683969713.9453795
-0.08963938,-0.07152857,0.4103288,-3.7618608,-0.17180584,-3.823253,0.39500135,7.411717,6.4145575,1,1683969713.9556332
-0.43331796,-0.4861869,0.8766975,-3.7618608,-0.17180584,-3.823253,0.39500135,7.411717,6.4145575,1,1683969713.9659007
-0.43331796,-0.4861869,0.8766975,-3.7618608,-0.17180584,-3.823253,-0.014819184,7.0266066,6.8456335,1,1683969713.9812973
-0.43331796,-0.4861869,0.8766975,-3.7618608,-0.17180584,-3.823253,-0.2581065,6.7635455,7.1009817,1,1683969713.99666
-0.72016394,-0.71735895,1.2242787,-3.7618608,-0.17180584,-3.823253,-0.2581065,6.7635455,7.1009817,1,1683969714.0120528
-0.72016394,-0.71735895,1.2242787,-3.3023374,-0.31566462,-3.554014,-0.2581065,6.7635455,7.1009817,1,1683969714.0171907
-0.72016394,-0.71735895,1.2242787,-2.1354322,-0.47739118,-2.6902506,-0.2581065,6.7635455,7.1009817,1,1683969714.0274436
-1.1093329,-0.9573119,1.6066791,-2.1354322,-0.47739118,-2.6902506,-0.2581065,6.7635455,7.1009817,1,1683969714.0377214
-1.1093329,-0.9573119,1.6066791,-2.1354322,-0.47739118,-2.6902506,-0.54069394,6.424461,7.3939204,1,1683969714.0428557
-1.1093329,-0.9573119,1.6066791,-0.5555819,-0.5532912,-1.0961977,-0.54069394,6.424461,7.3939204,1,1683969714.0736105
-1.1093329,-0.9573119,1.6066791,-0.5555819,-0.5532912,-1.0961977,-0.65330476,6.2782702,7.5095024,1,1683969714.0787098
-1.437462,-1.1479938,1.8130326,-0.5555819,-0.5532912,-1.0961977,-0.65330476,6.2782702,7.5095024,1,1683969714.088986
-1.437462,-1.1479938,1.8130326,0.8350528,-0.59849524,0.5306892,-0.65330476,6.2782702,7.5095024,1,1683969714.0992
-1.437462,-1.1479938,1.8130326,0.8350528,-0.59849524,0.5306892,-0.6795146,6.2397885,7.539191,1,1683969714.1197288
-1.437462,-1.1479938,1.8130326,-3.1160235,0.062155537,-3.9939897,-0.6795146,6.2397885,7.539191,1,1683969714.1351411
-0.5904003,-0.5585082,0.81736475,-3.1160235,0.062155537,-3.9939897,-0.6795146,6.2397885,7.539191,1,1683969714.145407
-0.5904003,-0.5585082,0.81736475,-3.1160235,0.062155537,-3.9939897,-0.27451158,7.013119,6.853971,1,1683969714.1505404
-0.5904003,-0.5585082,0.81736475,-3.1160235,0.062155537,-3.9939897,-0.53797543,6.7887616,7.0611196,1,1683969714.1556735
-0.5904003,-0.5585082,0.81736475,-2.6074784,-0.129198,-3.397327,-0.53797543,6.7887616,7.0611196,1,1683969714.165942
-0.9648734,-0.872185,1.1515917,-2.6074784,-0.129198,-3.397327,-0.53797543,6.7887616,7.0611196,1,1683969714.181338
-1.3430052,-1.0878685,1.5504563,-2.6074784,-0.129198,-3.397327,-0.53797543,6.7887616,7.0611196,1,1683969714.1966865
-1.3430052,-1.0878685,1.5504563,-1.534188,-0.25702155,-2.1755965,-0.53797543,6.7887616,7.0611196,1,1683969714.2068806
-1.3430052,-1.0878685,1.5504563,-1.534188,-0.25702155,-2.1755965,-0.82203233,6.508316,7.293984,1,1683969714.2119641
-1.3430052,-1.0878685,1.5504563,-0.40469822,-0.236863,-0.88224214,-0.82203233,6.508316,7.293984,1,1683969714.2324471
-1.3430052,-1.0878685,1.5504563,-0.40469822,-0.236863,-0.88224214,-0.92263335,6.401242,7.376243,1,1683969714.2478447
-1.548383,-1.150189,1.7063191,-0.40469822,-0.236863,-0.88224214,-0.92263335,6.401242,7.376243,1,1683969714.252939
-1.548383,-1.150189,1.7063191,-0.40469822,-0.236863,-0.88224214,-0.94705194,6.381782,7.389998,1,1683969714.2837217
-1.6236923,-1.1012228,1.6583285,-0.40469822,-0.236863,-0.88224214,-0.94705194,6.381782,7.389998,1,1683969714.2888558
-1.6236923,-1.1012228,1.6583285,1.0467176,-0.17058411,0.8872818,-0.94705194,6.381782,7.389998,1,1683969714.2939863
-1.6236923,-1.1012228,1.6583285,1.0467176,-0.17058411,0.8872818,-0.9301007,6.4057837,7.3713613,1,1683969714.2991247
-1.4912456,-0.9751788,1.3948375,1.0467176,-0.17058411,0.8872818,-0.9301007,6.4057837,7.3713613,1,1683969714.3042624
-1.4912456,-0.9751788,1.3948375,1.9866865,-0.10873401,2.2476788,-0.9301007,6.4057837,7.3713613,1,1683969714.3247979
-1.4912456,-0.9751788,1.3948375,2.6021333,0.07788532,3.492164,-0.9301007,6.4057837,7.3713613,1,1683969714.3453066
-1.212022,-0.8331583,1.1505549,2.6021333,0.07788532,3.492164,-0.9301007,6.4057837,7.3713613,1,1683969714.3504417
-1.212022,-0.8331583,1.1505549,2.6021333,0.07788532,3.492164,-0.7649563,6.5869517,7.2293167,1,1683969714.3606987
-1.212022,-0.8331583,1.1505549,2.8782444,0.40790528,4.7522264,-0.7649563,6.5869517,7.2293167,1,1683969714.381212
-0.85273266,-0.62540233,0.83974415,2.8782444,0.40790528,4.7522264,-0.7649563,6.5869517,7.2293167,1,1683969714.3914587
-0.85273266,-0.62540233,0.83974415,2.8782444,0.40790528,4.7522264,0.43527436,7.115497,6.739166,1,1683969714.4068267
-0.50185853,-0.40240154,0.8208406,2.8782444,0.40790528,4.7522264,0.43527436,7.115497,6.739166,1,1683969714.4221842
-0.50185853,-0.40240154,0.8208406,-3.833485,-0.3129157,-3.646102,0.43527436,7.115497,6.739166,1,1683969714.427279
-0.50185853,-0.40240154,0.8208406,-3.833485,-0.3129157,-3.646102,0.2111779,6.8739295,6.9957557,1,1683969714.4478073
-0.6694293,-0.61101127,1.1565309,-3.833485,-0.3129157,-3.646102,0.2111779,6.8739295,6.9957557,1,1683969714.452928
-0.6694293,-0.61101127,1.1565309,-3.5327864,-0.1001819,-3.233157,0.2111779,6.8739295,6.9957557,1,1683969714.463154
-0.6694293,-0.61101127,1.1565309,-3.5327864,-0.1001819,-3.233157,0.008331406,6.636323,7.224629,1,1683969714.4836717
-0.6694293,-0.61101127,1.1565309,-2.9460504,0.07345655,-2.7084239,0.008331406,6.636323,7.224629,1,1683969714.488796
-0.825414,-0.79053396,1.381727,-2.9460504,0.07345655,-2.7084239,0.008331406,6.636323,7.224629,1,1683969714.499058
-0.825414,-0.79053396,1.381727,-2.0841196,0.07574729,-1.9801197,0.008331406,6.636323,7.224629,1,1683969714.5092478
-1.0587814,-0.98219144,1.5271013,-2.0841196,0.07574729,-1.9801197,0.008331406,6.636323,7.224629,1,1683969714.5194693
-1.0587814,-0.98219144,1.5271013,-2.0841196,0.07574729,-1.9801197,-0.16559038,6.4277606,7.408952,1,1683969714.5348618
-1.0587814,-0.98219144,1.5271013,-0.710589,-0.13927728,-0.7111999,-0.16559038,6.4277606,7.408952,1,1683969714.54
-1.0587814,-0.98219144,1.5271013,-0.710589,-0.13927728,-0.7111999,-0.2922722,6.2727346,7.5368085,1,1683969714.5451272
-1.375751,-1.053598,1.6639386,-0.710589,-0.13927728,-0.7111999,-0.2922722,6.2727346,7.5368085,1,1683969714.5656002
-1.4504505,-1.0204864,1.6503402,-0.710589,-0.13927728,-0.7111999,-0.2922722,6.2727346,7.5368085,1,1683969714.5860624
-1.4504505,-1.0204864,1.6503402,-0.710589,-0.13927728,-0.7111999,-0.3483793,6.184644,7.6068993,1,1683969714.5912006
-1.4504505,-1.0204864,1.6503402,0.47326785,-0.33490688,0.53221637,-0.3483793,6.184644,7.6068993,1,1683969714.6014824
-1.288124,-0.8629772,1.4852697,0.47326785,-0.33490688,0.53221637,-0.3483793,6.184644,7.6068993,1,1683969714.616765
-1.288124,-0.8629772,1.4852697,1.7182112,-0.41309762,2.1658227,-0.3483793,6.184644,7.6068993,1,1683969714.621876
-1.288124,-0.8629772,1.4852697,1.7182112,-0.41309762,2.1658227,-0.28257138,6.2298183,7.5726895,1,1683969714.6320925
-1.288124,-0.8629772,1.4852697,1.7182112,-0.41309762,2.1658227,-0.14193152,6.339133,7.4854097,1,1683969714.657756
-0.98828936,-0.6621728,1.2792209,1.7182112,-0.41309762,2.1658227,-0.14193152,6.339133,7.4854097,1,1683969714.662895
-1.0454879,-0.7587028,0.9077358,1.7182112,-0.41309762,2.1658227,-0.14193152,6.339133,7.4854097,1,1683969714.67825
-1.0454879,-0.7587028,0.9077358,1.7182112,-0.41309762,2.1658227,-0.7142215,6.517169,7.2974315,1,1683969714.6936367
-1.0454879,-0.7587028,0.9077358,2.702468,-0.04062254,4.370435,-0.7142215,6.517169,7.2974315,1,1683969714.7090154
-1.0454879,-0.7587028,0.9077358,2.74981,0.46807548,5.3111677,-0.7142215,6.517169,7.2974315,1,1683969714.7243187
-0.50283426,-0.43313503,0.7720573,2.74981,0.46807548,5.3111677,-0.7142215,6.517169,7.2974315,1,1683969714.729459
-0.50283426,-0.43313503,0.7720573,2.74981,0.46807548,5.3111677,-0.46322915,6.7028093,7.147998,1,1683969714.74486
-0.0,-0.054515377,0.60399866,2.74981,0.46807548,5.3111677,-0.46322915,6.7028093,7.147998,1,1683969714.755133
-0.0,-0.054515377,0.60399866,2.5305092,1.0086912,5.8465915,-0.46322915,6.7028093,7.147998,1,1683969714.7654107
-0.0,-0.054515377,0.60399866,2.5305092,1.0086912,5.8465915,-0.1758518,6.8769426,6.993772,1,1683969714.7756875
-0.0,-0.054515377,0.60399866,2.5305092,1.0086912,5.8465915,0.13536334,7.0241218,6.8468604,1,1683969714.7962122
-0.0,-0.054515377,0.60399866,2.1329887,1.4912748,6.029851,0.13536334,7.0241218,6.8468604,1,1683969714.8116033
0.51740825,0.40538952,0.53844607,2.1329887,1.4912748,6.029851,0.13536334,7.0241218,6.8468604,1,1683969714.8167388
0.51740825,0.40538952,0.53844607,1.6022996,1.9265163,5.7063975,0.13536334,7.0241218,6.8468604,1,1683969714.8372748
1.1521404,1.0995153,0.41782925,1.6022996,1.9265163,5.7063975,0.13536334,7.0241218,6.8468604,1,1683969714.8424115
1.1521404,1.0995153,0.41782925,1.6022996,1.9265163,5.7063975,0.5895125,7.1788797,6.659751,1,1683969714.847534
1.1521404,1.0995153,0.41782925,1.6022996,1.9265163,5.7063975,0.8473522,7.2372336,6.5681467,1,1683969714.8783698
1.7340647,1.8491933,0.2880046,1.6022996,1.9265163,5.7063975,0.8473522,7.2372336,6.5681467,1,1683969714.883505
1.7340647,1.8491933,0.2880046,1.1916454,1.9226984,4.6341763,0.8473522,7.2372336,6.5681467,1,1683969714.888639
1.7340647,1.8491933,0.2880046,0.95707315,1.440573,3.3371568,0.8473522,7.2372336,6.5681467,1,1683969714.9091713
1.9370643,2.2543387,0.062442668,0.95707315,1.440573,3.3371568,0.8473522,7.2372336,6.5681467,1,1683969714.914302
1.9370643,2.2543387,0.062442668,0.95707315,1.440573,3.3371568,1.0493028,7.2745647,6.4973674,1,1683969714.9194288
1.9370643,2.2543387,0.062442668,0.95707315,1.440573,3.3371568,1.1979429,7.304929,6.4373174,1,1683969714.929652
1.9370643,2.2543387,0.062442668,0.742354,0.35918877,1.6455183,1.1979429,7.304929,6.4373174,1,1683969714.9552548
1.9370643,2.2543387,0.062442668,1.5204436,0.3213151,1.6963727,1.1979429,7.304929,6.4373174,1,1683969714.9706473
1.7880312,2.4977067,0.026099084,1.5204436,0.3213151,1.6963727,1.1979429,7.304929,6.4373174,1,1683969714.9757812
1.5742382,2.5763698,-0.11336028,1.5204436,0.3213151,1.6963727,1.1979429,7.304929,6.4373174,1,1683969714.9962952
1.5742382,2.5763698,-0.11336028,1.2492194,-0.70295316,-0.006872234,1.1979429,7.304929,6.4373174,1,1683969715.0065632
1.5742382,2.5763698,-0.11336028,1.2492194,-0.70295316,-0.006872234,1.6014314,7.677212,5.8933806,1,1683969715.0116951
1.5742382,2.5763698,-0.11336028,1.2492194,-0.70295316,-0.006872234,1.6234038,7.7142477,5.838755,1,1683969715.0475945
1.4299005,2.476303,-0.113421254,1.2492194,-0.70295316,-0.006872234,1.6234038,7.7142477,5.838755,1,1683969715.0527277
1.2325109,2.2823892,-0.06756492,1.2492194,-0.70295316,-0.006872234,1.6234038,7.7142477,5.838755,1,1683969715.0578568
1.2325109,2.2823892,-0.06756492,1.2492194,-0.70295316,-0.006872234,1.6251547,7.817951,5.6986523,1,1683969715.0629525
1.2325109,2.2823892,-0.06756492,0.6123924,-1.0896308,-1.5030339,1.6251547,7.817951,5.6986523,1,1683969715.0782478
1.2325109,2.2823892,-0.06756492,0.067500606,-0.84497935,-2.2050707,1.6251547,7.817951,5.6986523,1,1683969715.1090133
1.2325109,2.2823892,-0.06756492,0.067500606,-0.84497935,-2.2050707,1.566622,7.8741403,5.637351,1,1683969715.1141455
1.0823191,1.9956652,-0.15098442,0.067500606,-0.84497935,-2.2050707,1.566622,7.8741403,5.637351,1,1683969715.1243362
0.96810526,1.7115023,-0.21482961,0.067500606,-0.84497935,-2.2050707,1.566622,7.8741403,5.637351,1,1683969715.134513
0.96810526,1.7115023,-0.21482961,-0.5908594,-0.567952,-2.849381,1.566622,7.8741403,5.637351,1,1683969715.139599
0.96810526,1.7115023,-0.21482961,-0.5908594,-0.567952,-2.849381,1.4571052,7.9134984,5.611551,1,1683969715.1447332
0.96810526,1.7115023,-0.21482961,-0.5908594,-0.567952,-2.849381,1.20424,7.928325,5.650449,1,1683969715.1755214
0.96810526,1.7115023,-0.21482961,-1.1691961,-0.38881573,-3.298825,1.20424,7.928325,5.650449,1,1683969715.185794
0.7714474,1.2984904,-0.26184455,-1.1691961,-0.38881573,-3.298825,1.20424,7.928325,5.650449,1,1683969715.1960597
0.7714474,1.2984904,-0.26184455,-1.7881553,-0.27000242,-3.689626,1.20424,7.928325,5.650449,1,1683969715.2113314
0.5843634,0.92011464,-0.24501431,-1.7881553,-0.27000242,-3.689626,1.20424,7.928325,5.650449,1,1683969715.2164652
0.5843634,0.92011464,-0.24501431,-1.7881553,-0.27000242,-3.689626,0.98688114,7.900119,5.7315183,1,1683969715.221564
0.5843634,0.92011464,-0.24501431,-1.7881553,-0.27000242,-3.689626,0.57557243,7.350544,6.471038,1,1683969715.2419193
0.933774,0.96578807,0.39654753,-1.7881553,-0.27000242,-3.689626,0.57557243,7.350544,6.471038,1,1683969715.25728
0.933774,0.96578807,0.39654753,2.7795897,0.66767573,5.4238725,0.57557243,7.350544,6.471038,1,1683969715.2674963
0.933774,0.96578807,0.39654753,2.5567765,0.54825157,4.858364,0.57557243,7.350544,6.471038,1,1683969715.2931647
0.933774,0.96578807,0.39654753,2.5567765,0.54825157,4.858364,0.9141762,7.4783726,6.2828603,1,1683969715.2983031
1.2400724,1.5030146,0.33642206,2.5567765,0.54825157,4.858364,0.9141762,7.4783726,6.2828603,1,1683969715.303429
1.4811231,1.9244416,0.16379005,2.5567765,0.54825157,4.858364,0.9141762,7.4783726,6.2828603,1,1683969715.3239284
1.4811231,1.9244416,0.16379005,2.2595906,0.5002986,3.571118,0.9141762,7.4783726,6.2828603,1,1683969715.3341253
1.4811231,1.9244416,0.16379005,2.2595906,0.5002986,3.571118,1.2058079,7.5796676,6.1098914,1,1683969715.3392098
1.6300342,2.215739,-0.05933273,2.2595906,0.5002986,3.571118,1.2058079,7.5796676,6.1098914,1,1683969715.359741
1.6300342,2.215739,-0.05933273,1.9231565,-0.013286319,2.302962,1.2058079,7.5796676,6.1098914,1,1683969715.3648775
1.6300342,2.215739,-0.05933273,1.9231565,-0.013286319,2.302962,1.5329845,7.7063265,5.8735514,1,1683969715.3700101
1.6383883,2.475876,-0.11464083,1.9231565,-0.013286319,2.302962,1.5329845,7.7063265,5.8735514,1,1683969715.3956368
1.6383883,2.475876,-0.11464083,1.9231565,-0.013286319,2.302962,1.6891891,7.779964,5.7319207,1,1683969715.4007726
1.6383883,2.475876,-0.11464083,1.4813483,-0.40882155,0.9494373,1.6891891,7.779964,5.7319207,1,1683969715.411046
1.5361263,2.4498382,-0.1437279,1.4813483,-0.40882155,0.9494373,1.6891891,7.779964,5.7319207,1,1683969715.431504
1.5361263,2.4498382,-0.1437279,1.4813483,-0.40882155,0.9494373,1.7816534,7.847038,5.6112223,1,1683969715.4365928
1.5361263,2.4498382,-0.1437279,1.0146471,-0.35995236,-0.040317107,1.7816534,7.847038,5.6112223,1,1683969715.4468253
1.2878191,2.2677543,-0.25074634,1.0146471,-0.35995236,-0.040317107,1.7816534,7.847038,5.6112223,1,1683969715.4673228
1.2878191,2.2677543,-0.25074634,0.24862215,-0.065515295,-1.03786,1.7816534,7.847038,5.6112223,1,1683969715.4775972
1.2878191,2.2677543,-0.25074634,0.24862215,-0.065515295,-1.03786,1.7834857,7.926367,5.4980016,1,1683969715.482733
1.2878191,2.2677543,-0.25074634,0.24862215,-0.065515295,-1.03786,1.7012612,7.9543357,5.4836473,1,1683969715.498131
1.1030521,2.0684133,-0.3568501,0.24862215,-0.065515295,-1.03786,1.7012612,7.9543357,5.4836473,1,1683969715.5082903
1.1030521,2.0684133,-0.3568501,-1.3336716,-0.4156938,-2.6299276,1.7012612,7.9543357,5.4836473,1,1683969715.5185652
0.746263,1.3106252,-0.23781876,-1.3336716,-0.4156938,-2.6299276,1.7012612,7.9543357,5.4836473,1,1683969715.5390432
0.746263,1.3106252,-0.23781876,-1.3336716,-0.4156938,-2.6299276,1.5940883,7.518292,6.096744,1,1683969715.5441768
0.746263,1.3106252,-0.23781876,-1.3336716,-0.4156938,-2.6299276,1.5196006,7.5033274,6.134085,1,1683969715.5493143
0.6255243,1.0610986,-0.22867186,-1.3336716,-0.4156938,-2.6299276,1.5196006,7.5033274,6.134085,1,1683969715.5595884
0.6255243,1.0610986,-0.22867186,-1.8387043,-0.35353827,-2.962391,1.5196006,7.5033274,6.134085,1,1683969715.5646877
0.6255243,1.0610986,-0.22867186,-1.8387043,-0.35353827,-2.962391,1.250721,7.4026546,6.314468,1,1683969715.6005623
0.6255243,1.0610986,-0.22867186,-2.624888,-0.30604348,-3.385568,1.250721,7.4026546,6.314468,1,1683969715.6056955
0.3047739,0.5918638,-0.09616415,-2.624888,-0.30604348,-3.385568,1.250721,7.4026546,6.314468,1,1683969715.6159668
0.3047739,0.5918638,-0.09616415,-2.624888,-0.30604348,-3.385568,1.0428944,7.2849584,6.4867454,1,1683969715.6262302
0.3047739,0.5918638,-0.09616415,-3.2104023,-0.18341228,-3.5052974,1.0428944,7.2849584,6.4867454,1,1683969715.6364138
-0.054576356,0.18543765,0.15171617,-3.2104023,-0.18341228,-3.5052974,1.0428944,7.2849584,6.4867454,1,1683969715.6517642
-0.054576356,0.18543765,0.15171617,-3.2104023,-0.18341228,-3.5052974,0.81132257,7.115982,6.703779,1,1683969715.662045
-0.054576356,0.18543765,0.15171617,-3.4761286,0.018784106,-3.3687692,0.81132257,7.115982,6.703779,1,1683969715.6671944
-0.38459563,-0.13805683,0.5428975,-3.4761286,0.018784106,-3.3687692,0.81132257,7.115982,6.703779,1,1683969715.68773
-0.38459563,-0.13805683,0.5428975,-3.39412,0.25518894,-3.057075,0.81132257,7.115982,6.703779,1,1683969715.7082686
-0.38459563,-0.13805683,0.5428975,-3.39412,0.25518894,-3.057075,0.46726477,6.8022676,7.05315,1,1683969715.713409
-0.6424765,-0.37209487,0.8756608,-3.39412,0.25518894,-3.057075,0.46726477,6.8022676,7.05315,1,1683969715.723629
-0.8733436,-0.5638134,1.121285,-3.39412,0.25518894,-3.057075,0.46726477,6.8022676,7.05315,1,1683969715.7287683
-0.8733436,-0.5638134,1.121285,-3.39412,0.25518894,-3.057075,0.2548746,6.584511,7.2674193,1,1683969715.7542343
-0.8733436,-0.5638134,1.121285,-2.9927816,0.45204028,-2.503173,0.2548746,6.584511,7.2674193,1,1683969715.7593262
-1.1075037,-0.72168845,1.240926,-2.9927816,0.45204028,-2.503173,0.2548746,6.584511,7.2674193,1,1683969715.7798193
-1.1075037,-0.72168845,1.240926,-2.9927816,0.45204028,-2.503173,0.07600708,6.3878646,7.444831,1,1683969715.7849543
0.03500204,0.491736,0.910236,-2.9927816,0.45204028,-2.503173,0.07600708,6.3878646,7.444831,1,1683969715.7900872
0.03500204,0.491736,0.910236,-2.9927816,0.45204028,-2.503173,1.1132339,5.291488,8.185168,1,1683969715.8157275
0.010671355,0.4631368,0.9063333,-2.9927816,0.45204028,-2.503173,1.1132339,5.291488,8.185168,1,1683969715.8208632
0.010671355,0.4631368,0.9063333,0.64904433,-0.43493605,-0.55939984,1.1132339,5.291488,8.185168,1,1683969715.8311253
0.010671355,0.4631368,0.9063333,0.64828074,-0.34574974,-0.3828598,1.1132339,5.291488,8.185168,1,1683969715.8413138
-0.0061588963,0.44703826,0.8854175,0.64828074,-0.34574974,-0.3828598,1.1132339,5.291488,8.185168,1,1683969715.8464038
-0.0061588963,0.44703826,0.8854175,0.64828074,-0.34574974,-0.3828598,1.1145223,5.31733,8.168228,1,1683969715.861766
-0.0061588963,0.44703826,0.8854175,0.5636759,-0.21166481,-0.14492778,1.1145223,5.31733,8.168228,1,1683969715.8925216
-0.0061588963,0.44703826,0.8854175,0.5636759,-0.21166481,-0.14492778,1.1203258,5.3908157,8.119119,1,1683969715.8976195
-0.00042685418,0.45941702,0.8365122,0.5636759,-0.21166481,-0.14492778,1.1203258,5.3908157,8.119119,1,1683969715.9027545
-0.00042685418,0.45941702,0.8365122,0.5636759,-0.21166481,-0.14492778,1.1260003,5.4312387,8.091346,1,1683969715.9181075
0.037868064,0.48941877,0.80712026,0.5636759,-0.21166481,-0.14492778,1.1260003,5.4312387,8.091346,1,1683969715.9231887
0.037868064,0.48941877,0.80712026,0.4005749,-0.056199603,0.06078109,1.1260003,5.4312387,8.091346,1,1683969715.9385471
0.037868064,0.48941877,0.80712026,0.4005749,-0.056199603,0.06078109,1.1342114,5.471873,8.062772,1,1683969715.9589722
0.11079915,0.5422268,0.77498424,0.4005749,-0.056199603,0.06078109,1.1342114,5.471873,8.062772,1,1683969715.9640634
0.11079915,0.5422268,0.77498424,0.24205536,0.084146686,0.16783522,1.1342114,5.471873,8.062772,1,1683969715.9743233
0.15939954,0.5852781,0.73979926,0.24205536,0.084146686,0.16783522,1.1342114,5.471873,8.062772,1,1683969715.984546
0.15939954,0.5852781,0.73979926,0.075594574,0.19715676,0.21273382,1.1342114,5.471873,8.062772,1,1683969715.989675
0.15939954,0.5852781,0.73979926,0.075594574,0.19715676,0.21273382,1.135259,5.4845443,8.054009,1,1683969715.9999402
0.17555903,0.6186337,0.7272375,0.075594574,0.19715676,0.21273382,1.135259,5.4845443,8.054009,1,1683969716.030684
0.17555903,0.6186337,0.7272375,-0.053297993,0.26251933,0.20311269,1.135259,5.4845443,8.054009,1,1683969716.0408766
0.17555903,0.6186337,0.7272375,-0.053297993,0.26251933,0.20311269,1.1310815,5.486401,8.053332,1,1683969716.045985
0.17446141,0.6627216,0.73626244,-0.053297993,0.26251933,0.20311269,1.1310815,5.486401,8.053332,1,1683969716.0613194
0.15561883,0.6132065,0.8331583,-0.053297993,0.26251933,0.20311269,1.1310815,5.486401,8.053332,1,1683969716.0715916
0.18043736,0.62735367,0.84291506,-0.053297993,0.26251933,0.20311269,1.1310815,5.486401,8.053332,1,1683969716.0870123
0.18043736,0.62735367,0.84291506,-0.16661349,0.02076942,0.14263703,1.1310815,5.486401,8.053332,1,1683969716.0921504
