acc_x,acc_y,acc_z,gyr_x,gyr_y,gyr_z,grav_x,grav_y,grav_z,label,timestamp
-0.8535864,0.3547768,0.75004375,-0.48808134,-1.2125676,-1.2402092,-4.997473,5.174634,6.669673,0,1683969436.245063
-0.90761393,0.3811198,0.84163445,-0.47616947,-1.1901182,-1.2061534,-4.981613,5.0385785,6.784715,0,1683969436.2846105
-0.90761393,0.3811198,0.84163445,-0.4071417,-1.1450669,-1.1290317,-4.981613,5.0385785,6.784715,0,1683969436.3000195
-0.98286223,0.39203507,0.9598121,-0.4071417,-1.1450669,-1.1290317,-4.981613,5.0385785,6.784715,0,1683969436.310279
-0.98286223,0.39203507,0.9598121,-0.4071417,-1.1450669,-1.1290317,-4.9597917,4.90851,6.895151,0,1683969436.3153644
-1.050793,0.39673045,1.0751237,-0.4071417,-1.1450669,-1.1290317,-4.9597917,4.90851,6.895151,0,1683969436.3358328
-1.050793,0.39673045,1.0751237,-0.4071417,-1.1450669,-1.1290317,-4.9433146,4.829083,6.962737,0,1683969436.34609
-1.050793,0.39673045,1.0751237,-0.344528,-1.0546589,-1.0511464,-4.9433146,4.829083,6.962737,0,1683969436.3562934
-1.1187848,0.38569325,1.1507988,-0.344528,-1.0546589,-1.0511464,-4.9433146,4.829083,6.962737,0,1683969436.3717883
-1.1187848,0.38569325,1.1507988,-0.344528,-1.0546589,-1.0511464,-4.929557,4.7566547,7.022095,0,1683969436.376919
-1.1187848,0.38569325,1.1507988,-0.27183503,-0.837649,-0.94806284,-4.929557,4.7566547,7.022095,0,1683969436.3820395
-1.1745807,0.3734974,1.1616532,-0.27183503,-0.837649,-0.94806284,-4.929557,4.7566547,7.022095,0,1683969436.4025745
-1.1745807,0.3734974,1.1616532,-0.21746802,-0.655153,-0.838718,-4.929557,4.7566547,7.022095,0,1683969436.4076853
-1.1745807,0.3734974,1.1616532,-0.21746802,-0.655153,-0.838718,-4.922744,4.6915975,7.0704756,0,1683969436.4179525
-1.223425,0.37337545,1.1657388,-0.21746802,-0.655153,-0.838718,-4.922744,4.6915975,7.0704756,0,1683969436.4435642
-1.223425,0.37337545,1.1657388,-0.21746802,-0.655153,-0.838718,-4.921898,4.6621146,7.0905375,0,1683969436.4486928
-1.223425,0.37337545,1.1657388,-0.14813483,-0.5323691,-0.690125,-4.921898,4.6621146,7.0905375,0,1683969436.4538178
-1.2557441,0.37916848,1.1771418,-0.14813483,-0.5323691,-0.690125,-4.921898,4.6621146,7.0905375,0,1683969436.4691648
-1.2557441,0.37916848,1.1771418,-0.056963183,-0.43768495,-0.52656585,-4.921898,4.6621146,7.0905375,0,1683969436.4896896
-1.2557441,0.37916848,1.1771418,-0.056963183,-0.43768495,-0.52656585,-4.9219394,4.6351147,7.1081877,0,1683969436.494826
-1.2557441,0.37916848,1.1771418,-0.056963183,-0.43768495,-0.52656585,-4.9223633,4.557959,7.1576157,0,1683969436.5204315
-1.2557441,0.37916848,1.1771418,0.04444045,-0.3651447,-0.37018433,-4.9223633,4.557959,7.1576157,0,1683969436.5306852
-1.2720864,0.38209546,1.2017165,0.04444045,-0.3651447,-0.37018433,-4.9223633,4.557959,7.1576157,0,1683969436.535835
-1.2720864,0.38209546,1.2017165,0.04444045,-0.3651447,-0.37018433,-4.9200473,4.5397286,7.1707816,0,1683969436.5511837
-1.2786722,0.3715461,1.2312914,0.04444045,-0.3651447,-0.37018433,-4.9200473,4.5397286,7.1707816,0,1683969436.5563138
-1.2786722,0.3715461,1.2312914,0.18188512,-0.2490803,-0.16264287,-4.9200473,4.5397286,7.1707816,0,1683969436.561405
-1.2786722,0.3715461,1.2312914,0.29061913,-0.06688975,0.05299256,-4.9200473,4.5397286,7.1707816,0,1683969436.5921347
-1.2786722,0.3715461,1.2312914,0.29061913,-0.06688975,0.05299256,-4.9152427,4.5393434,7.1743197,0,1683969436.5972188
-1.2607442,0.35380113,1.249829,0.29061913,-0.06688975,0.05299256,-4.9152427,4.5393434,7.1743197,0,1683969436.6023273
-1.2396455,0.34410545,1.2393407,0.29061913,-0.06688975,0.05299256,-4.9152427,4.5393434,7.1743197,0,1683969436.6125562
-1.2396455,0.34410545,1.2393407,0.29061913,-0.06688975,0.05299256,-4.915192,4.555171,7.164315,0,1683969436.617689
-1.2396455,0.34410545,1.2393407,0.3304781,0.07880162,0.1769982,-4.915192,4.555171,7.164315,0,1683969436.6330857
-1.2396455,0.34410545,1.2393407,0.37980548,0.3575089,0.40530908,-4.915192,4.555171,7.164315,0,1683969436.6484354
-1.1992164,0.3305071,1.1979357,0.37980548,0.3575089,0.40530908,-4.915192,4.555171,7.164315,0,1683969436.6535642
-1.1719587,0.32605562,1.1540308,0.37980548,0.3575089,0.40530908,-4.915192,4.555171,7.164315,0,1683969436.679203
-1.1719587,0.32605562,1.1540308,0.37980548,0.3575089,0.40530908,-4.9317937,4.6160493,7.1137614,0,1683969436.6843412
-1.1719587,0.32605562,1.1540308,0.419359,0.5216789,0.5535966,-4.9317937,4.6160493,7.1137614,0,1683969436.6945326
-1.1431764,0.3137988,1.1009789,0.419359,0.5216789,0.5535966,-4.9317937,4.6160493,7.1137614,0,1683969436.7149606
-1.1431764,0.3137988,1.1009789,0.419359,0.5216789,0.5535966,-4.95583,4.685169,7.051599,0,1683969436.735428
-1.1431764,0.3137988,1.1009789,0.47143525,0.6418667,0.6985244,-4.95583,4.685169,7.051599,0,1683969436.7405572
-1.0986006,0.30349332,1.0310358,0.47143525,0.6418667,0.6985244,-4.95583,4.685169,7.051599,0,1683969436.7456942
-1.0986006,0.30349332,1.0310358,0.54412824,0.7609854,0.8727737,-4.95583,4.685169,7.051599,0,1683969436.761083
-1.0986006,0.30349332,1.0310358,0.54412824,0.7609854,0.8727737,-4.9730396,4.7433763,7.000383,0,1683969436.7712688
-1.0986006,0.30349332,1.0310358,0.6001751,0.84299403,1.0068586,-4.9730396,4.7433763,7.000383,0,1683969436.79174
-1.0554883,0.2883095,0.96353185,0.6001751,0.84299403,1.0068586,-4.9730396,4.7433763,7.000383,0,1683969436.7968328
-1.0554883,0.2883095,0.96353185,0.6001751,0.84299403,1.0068586,-4.9897246,4.8114038,6.941841,0,1683969436.8070004
-1.0137787,0.260503,0.8849297,0.6001751,0.84299403,1.0068586,-4.9897246,4.8114038,6.941841,0,1683969436.8172162
-1.0137787,0.260503,0.8849297,0.6525568,0.9077458,1.1604912,-4.9897246,4.8114038,6.941841,0,1683969436.8223443
-1.0137787,0.260503,0.8849297,0.6525568,0.9077458,1.1604912,-5.0109634,4.930004,6.8426185,0,1683969436.8377342
-1.0137787,0.260503,0.8849297,0.66721755,0.9599747,1.2872458,-5.0109634,4.930004,6.8426185,0,1683969436.8582652
-0.980484,0.237087,0.8222431,0.66721755,0.9599747,1.2872458,-5.0109634,4.930004,6.8426185,0,1683969436.8633564
-0.980484,0.237087,0.8222431,0.66721755,0.9599747,1.2872458,-5.0213094,5.018153,6.7705765,0,1683969436.8684924
-0.9296274,0.21958598,0.761081,0.66721755,0.9599747,1.2872458,-5.0213094,5.018153,6.7705765,0,1683969436.8890297
-0.9296274,0.21958598,0.761081,0.64965516,1.0181596,1.4515685,-5.0213094,5.018153,6.7705765,0,1683969436.894124
-0.9296274,0.21958598,0.761081,0.64965516,1.0181596,1.4515685,-5.0273566,5.1116095,6.695763,0,1683969436.899214
-0.8726119,0.21903718,0.7183346,0.64965516,1.0181596,1.4515685,-5.0273566,5.1116095,6.695763,0,1683969436.924718
-0.8726119,0.21903718,0.7183346,0.64965516,1.0181596,1.4515685,-5.0284257,5.209485,6.6190863,0,1683969436.9298441
-0.8726119,0.21903718,0.7183346,0.5981898,1.0648909,1.571909,-5.0284257,5.209485,6.6190863,0,1683969436.9400973
-0.79608303,0.22202514,0.67906404,0.5981898,1.0648909,1.571909,-5.0284257,5.209485,6.6190863,0,1683969436.9554772
-0.79608303,0.22202514,0.67906404,0.5195409,1.1531608,1.6844609,-5.0284257,5.209485,6.6190863,0,1683969436.9606175
-0.79608303,0.22202514,0.67906404,0.5195409,1.1531608,1.6844609,-5.0216985,5.359303,6.5035777,0,1683969436.9708383
-0.79608303,0.22202514,0.67906404,0.4352415,1.238682,1.7579174,-5.0216985,5.359303,6.5035777,0,1683969436.9913173
-0.79608303,0.22202514,0.67906404,0.4352415,1.238682,1.7579174,-5.018058,5.4091296,6.4650235,0,1683969436.9964085
-0.755349,0.22635466,0.6507087,0.4352415,1.238682,1.7579174,-5.018058,5.4091296,6.4650235,0,1683969437.016792
-0.755349,0.22635466,0.6507087,0.4352415,1.238682,1.7579174,-5.0056243,5.555228,6.349747,0,1683969437.027039
-0.755349,0.22635466,0.6507087,0.3387248,1.3154984,1.8168659,-5.0056243,5.555228,6.349747,0,1683969437.0475557
-0.6952845,0.22434235,0.5992423,0.3387248,1.3154984,1.8168659,-5.0056243,5.555228,6.349747,0,1683969437.052688
-0.6524771,0.21415883,0.55832523,0.3387248,1.3154984,1.8168659,-5.0056243,5.555228,6.349747,0,1683969437.0629063
-0.6524771,0.21415883,0.55832523,0.20769419,1.3946054,1.8901697,-5.0056243,5.555228,6.349747,0,1683969437.078302
-0.6524771,0.21415883,0.55832523,0.20769419,1.3946054,1.8901697,-4.9961195,5.6485596,6.2744455,0,1683969437.0834312
-0.62101185,0.20879267,0.53527516,0.20769419,1.3946054,1.8901697,-4.9961195,5.6485596,6.2744455,0,1683969437.1089487
-0.62101185,0.20879267,0.53527516,0.20769419,1.3946054,1.8901697,-4.984268,5.7381406,6.202172,0,1683969437.1140785
-0.62101185,0.20879267,0.53527516,0.11499538,1.433548,1.9674442,-4.984268,5.7381406,6.202172,0,1683969437.119183
-0.62101185,0.20879267,0.53527516,0.11499538,1.433548,1.9674442,-4.967695,5.8257837,6.1333804,0,1683969437.1447942
-0.62101185,0.20879267,0.53527516,0.038331795,1.4344643,2.0645719,-4.967695,5.8257837,6.1333804,0,1683969437.1550486
-0.62101185,0.20879267,0.53527516,0.038331795,1.4344643,2.0645719,-4.930088,5.9567904,6.0371356,0,1683969437.175526
-0.62101185,0.20879267,0.53527516,0.0010690142,1.4271339,2.1230621,-4.930088,5.9567904,6.0371356,0,1683969437.1857464
-0.5348483,0.21232945,0.5082004,0.0010690142,1.4271339,2.1230621,-4.930088,5.9567904,6.0371356,0,1683969437.1908333
-0.5348483,0.21232945,0.5082004,-0.032223143,1.4184291,2.1569653,-4.930088,5.9567904,6.0371356,0,1683969437.2061405
-0.5348483,0.21232945,0.5082004,-0.032223143,1.4184291,2.1569653,-4.8968244,6.044117,5.977114,0,1683969437.2162986
-0.49472398,0.21239044,0.5011268,-0.032223143,1.4184291,2.1569653,-4.8968244,6.044117,5.977114,0,1683969437.2265186
-0.49472398,0.21239044,0.5011268,-0.09758572,1.4559973,2.1820107,-4.8968244,6.044117,5.977114,0,1683969437.2419016
-0.49472398,0.21239044,0.5011268,-0.09758572,1.4559973,2.1820107,-4.8594046,6.1298666,5.9200525,0,1683969437.2470264
-0.45307523,0.2037314,0.48978466,-0.09758572,1.4559973,2.1820107,-4.8594046,6.1298666,5.9200525,0,1683969437.2521603
-0.45307523,0.2037314,0.48978466,-0.17898351,1.5180001,2.2020166,-4.820398,6.212583,5.865465,0,1683969437.2573886
-0.424476,0.19836523,0.45899022,-0.17898351,1.5180001,2.2020166,-4.820398,6.212583,5.865465,0,1683969437.2573984
-0.424476,0.19836523,0.45899022,-0.3129157,1.5760323,2.2156084,-4.820398,6.212583,5.865465,0,1683969437.262516
-0.37886357,0.17299789,0.38331506,-0.5487097,1.6209309,2.232407,-4.6824665,6.460439,5.7073073,0,1683969437.267747
-0.3697167,0.15933856,0.3407516,-0.5487097,1.6209309,2.232407,-4.6824665,6.460439,5.7073073,0,1683969437.277994
-0.3697167,0.15933856,0.3407516,-0.6930266,1.55847,2.250122,-4.6824665,6.460439,5.7073073,0,1683969437.28826
-0.3586185,0.14805742,0.30452996,-0.6930266,1.55847,2.250122,-4.6824665,6.460439,5.7073073,0,1683969437.2984867
-0.3586185,0.14805742,0.30452996,-0.6930266,1.55847,2.250122,-4.6408544,6.516819,5.677117,0,1683969437.313776
-0.3586185,0.14805742,0.30452996,-0.6930266,1.55847,2.250122,-4.5950828,6.5673275,5.656108,0,1683969437.3291252
-0.3682532,0.14988679,0.28416294,-0.6930266,1.55847,2.250122,-4.5950828,6.5673275,5.656108,0,1683969437.3342547
-0.3682532,0.14988679,0.28416294,-0.80924374,1.476614,2.2840252,-4.5950828,6.5673275,5.656108,0,1683969437.3393767
-0.3682532,0.14988679,0.28416294,-0.97097033,1.3358096,2.377793,-4.5950828,6.5673275,5.656108,0,1683969437.3701425
-0.35904533,0.15866779,0.29288295,-0.97097033,1.3358096,2.377793,-4.5950828,6.5673275,5.656108,0,1683969437.3751886
-0.35904533,0.15866779,0.29288295,-0.97097033,1.3358096,2.377793,-4.511732,6.6331882,5.6463447,0,1683969437.3905885
-0.3233725,0.17348573,0.34148335,-0.97097033,1.3358096,2.377793,-4.511732,6.6331882,5.6463447,0,1683969437.4059725
-0.3233725,0.17348573,0.34148335,-0.97097033,1.3358096,2.377793,-4.439386,6.6718583,5.6581163,0,1683969437.411104
-0.3233725,0.17348573,0.34148335,-1.0848967,1.2186762,2.475226,-4.439386,6.6718583,5.6581163,0,1683969437.4264996
-0.25178298,0.20739016,0.41880494,-1.0848967,1.2186762,2.475226,-4.439386,6.6718583,5.6581163,0,1683969437.4418457
-0.25178298,0.20739016,0.41880494,-1.0848967,1.2186762,2.475226,-4.3521733,6.7074456,5.6837378,0,1683969437.446976
-0.25178298,0.20739016,0.41880494,-1.1919508,1.1433871,2.586098,-4.3521733,6.7074456,5.6837378,0,1683969437.4521067
0.08622454,0.75528795,1.0367068,-1.1919508,1.1433871,2.586098,-4.3521733,6.7074456,5.6837378,0,1683969437.4623866
0.08622454,0.75528795,1.0367068,-2.306169,1.5129606,1.093296,-4.3521733,6.7074456,5.6837378,0,1683969437.467509
0.08622454,0.75528795,1.0367068,-2.306169,1.5129606,1.093296,-3.5996373,6.1143637,6.7744584,0,1683969437.472645
0.08622454,0.75528795,1.0367068,-1.9520199,1.2463179,0.9746355,-3.5996373,6.1143637,6.7744584,0,1683969437.5034087
0.011464084,0.7626055,1.0972592,-1.9520199,1.2463179,0.9746355,-3.5996373,6.1143637,6.7744584,0,1683969437.5135927
0.011464084,0.7626055,1.0972592,-1.9520199,1.2463179,0.9746355,-3.6316307,5.961726,6.892401,0,1683969437.5237498
0.011464084,0.7626055,1.0972592,-1.7125608,1.1488848,0.9789116,-3.6316307,5.961726,6.892401,0,1683969437.539103
-0.027013771,0.7926682,1.1352491,-1.7125608,1.1488848,0.9789116,-3.6316307,5.961726,6.892401,0,1683969437.5493662
-0.027013771,0.7926682,1.1352491,-1.7125608,1.1488848,0.9789116,-3.6462812,5.8762608,6.9577518,0,1683969437.5596197
-0.017744938,0.8482812,1.1303098,-1.7125608,1.1488848,0.9789116,-3.6462812,5.8762608,6.9577518,0,1683969437.5852604
-0.017744938,0.8482812,1.1303098,-1.7125608,1.1488848,0.9789116,-3.6680562,5.7644305,7.0393767,0,1683969437.5903883
-0.017744938,0.8482812,1.1303098,-1.6765196,1.2632693,0.9808969,-3.6680562,5.7644305,7.0393767,0,1683969437.5955114
-0.017744938,0.8482812,1.1303098,-1.7457001,1.3487904,1.0009027,-3.6680562,5.7644305,7.0393767,0,1683969437.6108625
-0.017744938,0.8482812,1.1303098,-1.7457001,1.3487904,1.0009027,-3.6906588,5.690363,7.087659,0,1683969437.6210475
-0.0023172083,0.91755354,1.1350663,-1.7457001,1.3487904,1.0009027,-3.6906588,5.690363,7.087659,0,1683969437.6261668
0.0582351,1.0248158,1.1758003,-1.7457001,1.3487904,1.0009027,-3.6906588,5.690363,7.087659,0,1683969437.6414866
0.0582351,1.0248158,1.1758003,-1.840537,1.4437801,0.99021256,-3.6906588,5.690363,7.087659,0,1683969437.6517518
0.0582351,1.0248158,1.1758003,-1.8608483,1.4396566,0.9266826,-3.6906588,5.690363,7.087659,0,1683969437.6722934
0.1188484,1.1233582,1.2049484,-1.8608483,1.4396566,0.9266826,-3.6906588,5.690363,7.087659,0,1683969437.6876519
0.1188484,1.1233582,1.2049484,-1.8608483,1.4396566,0.9266826,-3.7524502,5.5300236,7.1815085,0,1683969437.697879
0.1188484,1.1233582,1.2049484,-1.8608483,1.4396566,0.9266826,-3.7888765,5.4455667,7.226779,0,1683969437.703015
0.1188484,1.1233582,1.2049484,-1.7611245,1.3183999,0.8008443,-3.7888765,5.4455667,7.226779,0,1683969437.718345
0.18263261,1.2050703,1.2656226,-1.7611245,1.3183999,0.8008443,-3.7888765,5.4455667,7.226779,0,1683969437.72344
0.18263261,1.2050703,1.2656226,1.9555323,-0.40943244,-1.6668985,-3.7888765,5.4455667,7.226779,0,1683969437.7439506
-0.30946928,0.43228132,0.7762038,1.9555323,-0.40943244,-1.6668985,-3.7888765,5.4455667,7.226779,0,1683969437.754222
-0.30946928,0.43228132,0.7762038,1.9555323,-0.40943244,-1.6668985,-5.2488575,5.63084,6.0810566,0,1683969437.7593203
-0.31520134,0.41093862,0.7665081,1.9555323,-0.40943244,-1.6668985,-5.2488575,5.63084,6.0810566,0,1683969437.779823
-0.31520134,0.41093862,0.7665081,1.9555323,-0.40943244,-1.6668985,-5.335826,5.6689267,5.9689484,0,1683969437.7951875
-0.31520134,0.41093862,0.7665081,2.1125247,-0.48655418,-1.6265814,-5.335826,5.6689267,5.9689484,0,1683969437.8003247
-0.32007965,0.39380345,0.71668816,2.1125247,-0.48655418,-1.6265814,-5.335826,5.6689267,5.9689484,0,1683969437.8157334
-0.32007965,0.39380345,0.71668816,2.1125247,-0.48655418,-1.6265814,-5.387878,5.703405,5.8888083,0,1683969437.8208714
-0.32007965,0.39380345,0.71668816,2.2508857,-0.5222898,-1.6036739,-5.387878,5.703405,5.8888083,0,1683969437.8260088
-0.33593425,0.37258273,0.63241494,2.2508857,-0.5222898,-1.6036739,-5.387878,5.703405,5.8888083,0,1683969437.8465533
-0.33593425,0.37258273,0.63241494,2.2508857,-0.5222898,-1.6036739,-5.439691,5.7412944,5.8037415,0,1683969437.8517
-0.33593425,0.37258273,0.63241494,2.2912028,-0.5010622,-1.6024523,-5.439691,5.7412944,5.8037415,0,1683969437.8619912
-0.34502012,0.37124115,0.5514956,2.2912028,-0.5010622,-1.6024523,-5.439691,5.7412944,5.8037415,0,1683969437.8927963
-0.34502012,0.37124115,0.5514956,2.2912028,-0.5010622,-1.6024523,-5.522789,5.795814,5.669519,0,1683969437.8979332
-0.34502012,0.37124115,0.5514956,2.2162192,-0.4549419,-1.6067283,-5.522789,5.795814,5.669519,0,1683969437.9030752
-0.345386,0.3840468,0.4812476,2.2162192,-0.4549419,-1.6067283,-5.522789,5.795814,5.669519,0,1683969437.9236126
-0.345386,0.3840468,0.4812476,2.0030272,-0.4260785,-1.626276,-5.522789,5.795814,5.669519,0,1683969437.9338803
-0.345386,0.3840468,0.4812476,2.0030272,-0.4260785,-1.626276,-5.583084,5.8236756,5.581226,0,1683969437.93902
-0.345386,0.3840468,0.4812476,1.7974709,-0.42164972,-1.6714801,-5.583084,5.8236756,5.581226,0,1683969437.9595652
-0.32544583,0.41459736,0.4797841,1.7974709,-0.42164972,-1.6714801,-5.583084,5.8236756,5.581226,0,1683969437.9647048
-0.32544583,0.41459736,0.4797841,1.7974709,-0.42164972,-1.6714801,-5.645693,5.839661,5.500964,0,1683969437.9698453
-0.32544583,0.41459736,0.4797841,1.6449074,-0.4109596,-1.7467692,-5.645693,5.839661,5.500964,0,1683969437.985217
-0.33465368,0.42392716,0.5291162,1.6449074,-0.4109596,-1.7467692,-5.645693,5.839661,5.500964,0,1683969437.9903173
-0.33465368,0.42392716,0.5291162,1.6449074,-0.4109596,-1.7467692,-5.710709,5.8412642,5.4317174,0,1683969437.9954476
-0.33465368,0.42392716,0.5291162,0.40744713,-0.46670106,-2.2146919,-5.710709,5.8412642,5.4317174,0,1683969438.026264
-0.6980285,0.018293751,0.3876446,0.40744713,-0.46670106,-2.2146919,-5.710709,5.8412642,5.4317174,0,1683969438.0313716
-0.6980285,0.018293751,0.3876446,0.40744713,-0.46670106,-2.2146919,-6.7340417,5.0393634,5.0491204,0,1683969438.0364902
-0.6980285,0.018293751,0.3876446,0.40744713,-0.46670106,-2.2146919,-6.8172207,4.9143558,5.060703,0,1683969438.0467288
-0.7811431,0.014756958,0.3978281,0.40744713,-0.46670106,-2.2146919,-6.8172207,4.9143558,5.060703,0,1683969438.0621417
-0.7811431,0.014756958,0.3978281,0.5145013,-0.59650993,-2.0280726,-6.8172207,4.9143558,5.060703,0,1683969438.0723786
-0.7811431,0.014756958,0.3978281,0.80741113,-0.895223,-1.7956384,-6.8172207,4.9143558,5.060703,0,1683969438.0980268
-0.7811431,0.014756958,0.3978281,0.80741113,-0.895223,-1.7956384,-6.884954,4.803347,5.0755663,0,1683969438.1031394
-0.84462243,0.023294043,0.39886475,0.80741113,-0.895223,-1.7956384,-6.884954,4.803347,5.0755663,0,1683969438.108247
-0.84462243,0.023294043,0.39886475,0.80741113,-0.895223,-1.7956384,-6.946796,4.6784124,5.107896,0,1683969438.1236308
-0.87870985,0.04006331,0.3855713,0.80741113,-0.895223,-1.7956384,-6.946796,4.6784124,5.107896,0,1683969438.1338665
-0.87870985,0.04006331,0.3855713,1.110553,-1.2174544,-1.6166549,-6.946796,4.6784124,5.107896,0,1683969438.1440637
-0.87870985,0.04006331,0.3855713,1.110553,-1.2174544,-1.6166549,-6.958785,4.6263976,5.138858,0,1683969438.1492033
-0.87870985,0.04006331,0.3855713,1.3880385,-1.5302174,-1.4708108,-6.958785,4.6263976,5.138858,0,1683969438.164567
-0.9001745,0.06225973,0.3766683,1.3880385,-1.5302174,-1.4708108,-6.958785,4.6263976,5.138858,0,1683969438.1748083
-0.93212754,0.094456725,0.34349567,1.3880385,-1.5302174,-1.4708108,-6.958785,4.6263976,5.138858,0,1683969438.1850455
-0.93212754,0.094456725,0.34349567,1.3880385,-1.5302174,-1.4708108,-6.952013,4.5944157,5.17658,0,1683969438.2055087
-0.93212754,0.094456725,0.34349567,1.538006,-1.7434094,-1.35551,-6.952013,4.5944157,5.17658,0,1683969438.2106075
-0.93212754,0.094456725,0.34349567,1.4468343,-1.7635679,-1.288773,-6.952013,4.5944157,5.17658,0,1683969438.2208703
-0.93212754,0.094456725,0.34349567,1.4468343,-1.7635679,-1.288773,-6.934148,4.573096,5.2192435,0,1683969438.226012
-0.95395815,0.13104422,0.31617698,1.4468343,-1.7635679,-1.288773,-6.934148,4.573096,5.2192435,0,1683969438.246547
-0.97938645,0.18464492,0.30861557,1.4468343,-1.7635679,-1.288773,-6.934148,4.573096,5.2192435,0,1683969438.2619588
-0.97938645,0.18464492,0.30861557,1.4468343,-1.7635679,-1.288773,-6.900896,4.540405,5.2913585,0,1683969438.2671068
-0.97938645,0.18464492,0.30861557,1.1010846,-1.6406313,-1.204779,-6.900896,4.540405,5.2913585,0,1683969438.2773209
-0.97938645,0.18464492,0.30861557,-0.2658791,-0.6075055,-1.1088731,-6.900896,4.540405,5.2913585,0,1683969438.3029351
-0.97938645,0.18464492,0.30861557,-0.2658791,-0.6075055,-1.1088731,-6.8783226,4.101527,5.6658874,0,1683969438.308029
-1.2484266,0.2689791,0.7455313,-0.2658791,-0.6075055,-1.1088731,-6.8783226,4.101527,5.6658874,0,1683969438.3182979
-1.3125767,0.24519724,0.7689473,-0.2658791,-0.6075055,-1.1088731,-6.8783226,4.101527,5.6658874,0,1683969438.3234258
-1.3125767,0.24519724,0.7689473,-0.2658791,-0.6075055,-1.1088731,-6.893125,4.0163536,5.7087507,0,1683969438.3440454
-1.3125767,0.24519724,0.7689473,-0.1853976,-0.49098295,-0.9833403,-6.893125,4.0163536,5.7087507,0,1683969438.3491874
-1.3125767,0.24519724,0.7689473,-0.1853976,-0.49098295,-0.9833403,-6.9077272,3.9434536,5.7418284,0,1683969438.3594515
-1.3125767,0.24519724,0.7689473,-0.105374254,-0.41218132,-0.77350813,-6.9077272,3.9434536,5.7418284,0,1683969438.3851428
-1.3770316,0.24842913,0.7680936,-0.105374254,-0.41218132,-0.77350813,-6.9077272,3.9434536,5.7418284,0,1683969438.390281
-1.4279492,0.25367334,0.7823017,-0.105374254,-0.41218132,-0.77350813,-6.9077272,3.9434536,5.7418284,0,1683969438.395384
-1.4279492,0.25367334,0.7823017,-0.105374254,-0.41218132,-0.77350813,-6.917912,3.8850803,5.7692943,0,1683969438.4107974
-1.4279492,0.25367334,0.7823017,-0.016035212,-0.44990227,-0.57635134,-6.917912,3.8850803,5.7692943,0,1683969438.415937
-1.4717323,0.25611252,0.82370657,-0.016035212,-0.44990227,-0.57635134,-6.917912,3.8850803,5.7692943,0,1683969438.4364438
-1.4717323,0.25611252,0.82370657,0.19013181,-0.59589905,-0.3463606,-6.917912,3.8850803,5.7692943,0,1683969438.4415889
-1.4717323,0.25611252,0.82370657,0.19013181,-0.59589905,-0.3463606,-6.9141207,3.8310094,5.8098536,0,1683969438.4570038
-1.4717323,0.25611252,0.82370657,0.19013181,-0.59589905,-0.3463606,-6.896107,3.8202882,5.8382554,0,1683969438.4672031
-1.4870379,0.24019694,0.8440126,0.19013181,-0.59589905,-0.3463606,-6.896107,3.8202882,5.8382554,0,1683969438.482612
-1.4870379,0.24019694,0.8440126,0.39171734,-0.68584895,-0.1910481,-6.896107,3.8202882,5.8382554,0,1683969438.4979985
-1.4670368,0.22092752,0.85285467,0.39171734,-0.68584895,-0.1910481,-6.896107,3.8202882,5.8382554,0,1683969438.5185337
-1.4670368,0.22092752,0.85285467,0.39171734,-0.68584895,-0.1910481,-6.8690906,3.828912,5.8643966,0,1683969438.5288095
-1.4670368,0.22092752,0.85285467,0.5520695,-0.71685034,0.003970624,-6.8690906,3.828912,5.8643966,0,1683969438.533955
-1.4670368,0.22092752,0.85285467,0.5520695,-0.71685034,0.003970624,-6.835682,3.8532958,5.887417,0,1683969438.5390737
-1.4670368,0.22092752,0.85285467,0.57894754,-0.65118235,0.12950343,-6.835682,3.8532958,5.887417,0,1683969438.5596228
-0.436184,0.23550156,0.6718685,0.57894754,-0.65118235,0.12950343,-6.835682,3.8532958,5.887417,0,1683969438.5647619
-0.436184,0.23550156,0.6718685,-1.2793045,2.2904391,2.8667905,-6.835682,3.8532958,5.887417,0,1683969438.5801346
-0.436184,0.23550156,0.6718685,-1.2793045,2.2904391,2.8667905,-5.5393004,5.5462017,5.8984666,0,1683969438.5852742
-0.31770146,0.31184745,0.5663135,-1.2793045,2.2904391,2.8667905,-5.5393004,5.5462017,5.8984666,0,1683969438.6058104
-0.31770146,0.31184745,0.5663135,-1.2733486,2.1975877,2.9709432,-5.5393004,5.5462017,5.8984666,0,1683969438.6109467
-0.31770146,0.31184745,0.5663135,-1.2733486,2.1975877,2.9709432,-5.512901,5.6185207,5.8545938,0,1683969438.6263304
-0.2736135,0.2698938,0.56137425,-1.2733486,2.1975877,2.9709432,-5.512901,5.6185207,5.8545938,0,1683969438.6365988
-0.2736135,0.2698938,0.56137425,-1.2733486,2.1975877,2.9709432,-5.473278,5.6964464,5.8163433,0,1683969438.646873
-0.2736135,0.2698938,0.56137425,-1.2061534,2.165212,3.0141618,-5.473278,5.6964464,5.8163433,0,1683969438.6571293
-0.2736135,0.2698938,0.56137425,-1.2061534,2.165212,3.0141618,-5.427469,5.7786474,5.7780557,0,1683969438.6725023
-0.2736135,0.2698938,0.56137425,-1.1354458,2.176971,3.0498974,-5.427469,5.7786474,5.7780557,0,1683969438.6878736
-0.27001578,0.22818404,0.43075684,-1.1354458,2.176971,3.0498974,-5.427469,5.7786474,5.7780557,0,1683969438.6930125
-0.3032494,0.22013481,0.26446667,-1.1354458,2.176971,3.0498974,-5.427469,5.7786474,5.7780557,0,1683969438.7083845
-0.3032494,0.22013481,0.26446667,-1.1354458,2.176971,3.0498974,-5.37966,5.8649607,5.7356415,0,1683969438.7135255
-0.3032494,0.22013481,0.26446667,-1.1227703,2.0911446,3.0589077,-5.37966,5.8649607,5.7356415,0,1683969438.7237656
-0.32703125,0.29428545,0.07043094,-1.1227703,2.0911446,3.0589077,-5.37966,5.8649607,5.7356415,0,1683969438.7596312
-0.32703125,0.29428545,0.07043094,-1.2018774,1.5454891,3.086702,-5.37966,5.8649607,5.7356415,0,1683969438.764768
-0.32703125,0.29428545,0.07043094,-1.2018774,1.5454891,3.086702,-5.2928677,5.9987946,5.677686,0,1683969438.7699103
-0.32703125,0.29428545,0.07043094,-1.2018774,1.5454891,3.086702,-5.19137,6.0904193,5.6738505,0,1683969438.7903793
-0.32703125,0.29428545,0.07043094,-1.2301298,0.4173737,3.1456506,-5.19137,6.0904193,5.6738505,0,1683969438.8006353
-0.25281963,0.43685475,0.09470064,-1.2301298,0.4173737,3.1456506,-5.19137,6.0904193,5.6738505,0,1683969438.810917
-0.19324298,0.5175302,0.36843613,-1.2301298,0.4173737,3.1456506,-5.19137,6.0904193,5.6738505,0,1683969438.8314965
-0.19324298,0.5175302,0.36843613,-1.2301298,0.4173737,3.1456506,-1.2040119,7.172595,6.5833387,0,1683969438.841779
-0.19324298,0.5175302,0.36843613,-1.2301298,0.4173737,3.1456506,-1.0200694,7.1588635,6.6291966,0,1683969438.8776994
0.6902232,1.2112292,0.898589,-1.2301298,0.4173737,3.1456506,-1.0200694,7.1588635,6.6291966,0,1683969438.8828409
0.6902232,1.2112292,0.898589,-0.5467244,-0.7182248,1.8228219,-1.0200694,7.1588635,6.6291966,0,1683969438.8931136
0.71437097,1.2258642,1.0381703,-0.5467244,-0.7182248,1.8228219,-1.0200694,7.1588635,6.6291966,0,1683969438.903347
0.71437097,1.2258642,1.0381703,-0.5467244,-0.7182248,1.8228219,-0.76204365,7.139318,6.6847243,0,1683969438.9136245
0.71437097,1.2258642,1.0381703,-0.32986724,-0.79366666,1.5790867,-0.76204365,7.139318,6.6847243,0,1683969438.9187596
0.71437097,1.2258642,1.0381703,-0.32986724,-0.79366666,1.5790867,-0.6021086,7.1343646,6.7062964,0,1683969438.949511
0.7415676,1.2797087,1.047866,-0.32986724,-0.79366666,1.5790867,-0.6021086,7.1343646,6.7062964,0,1683969438.9546516
0.7415676,1.2797087,1.047866,-0.080634214,-0.8378017,1.3868169,-0.6021086,7.1343646,6.7062964,0,1683969438.964905
0.7841921,1.3481884,1.076953,-0.080634214,-0.8378017,1.3868169,-0.6021086,7.1343646,6.7062964,0,1683969438.9751978
0.7841921,1.3481884,1.076953,-0.080634214,-0.8378017,1.3868169,-0.449379,7.1388097,6.7135353,0,1683969438.9906037
0.7841921,1.3481884,1.076953,0.12980886,-0.93523467,1.2030991,-0.449379,7.1388097,6.7135353,0,1683969439.0008595
0.7841921,1.3481884,1.076953,0.3510948,-0.957684,0.97142845,-0.449379,7.1388097,6.7135353,0,1683969439.0265346
0.84059787,1.4004475,1.1522014,0.3510948,-0.957684,0.97142845,-0.449379,7.1388097,6.7135353,0,1683969439.0316815
0.84059787,1.4004475,1.1522014,0.3510948,-0.957684,0.97142845,-0.30369562,7.1534734,6.7060943,0,1683969439.036803
0.8940765,1.4405719,1.1141503,0.3510948,-0.957684,0.97142845,-0.30369562,7.1534734,6.7060943,0,1683969439.0470746
0.8940765,1.4405719,1.1141503,0.5439755,-0.79183406,0.6252206,-0.30369562,7.1534734,6.7060943,0,1683969439.0624132
0.8940765,1.4405719,1.1141503,0.5439755,-0.79183406,0.6252206,-0.11688497,7.195392,6.6669927,0,1683969439.0675488
0.8940765,1.4405719,1.1141503,0.5647449,-0.606131,0.34147367,-0.11688497,7.195392,6.6669927,0,1683969439.0983286
0.8755389,1.4480113,1.0510979,0.5647449,-0.606131,0.34147367,-0.11688497,7.195392,6.6669927,0,1683969439.103432
0.8755389,1.4480113,1.0510979,0.5647449,-0.606131,0.34147367,-0.026361588,7.2310205,6.629311,0,1683969439.1085742
0.8755389,1.4480113,1.0510979,0.45799622,-0.37018433,0.016340645,-0.026361588,7.2310205,6.629311,0,1683969439.118843
0.8755389,1.4480113,1.0510979,0.45799622,-0.37018433,0.016340645,-1.1978191,8.34907,5.0094275,0,1683969439.1291215
0.089700356,0.5875953,0.38733968,0.45799622,-0.37018433,0.016340645,-1.1978191,8.34907,5.0094275,0,1683969439.1342592
0.089700356,0.5875953,0.38733968,0.89369583,-1.6691893,-2.3976462,-1.1978191,8.34907,5.0094275,0,1683969439.1445272
0.020367041,0.5216158,0.39337662,0.89369583,-1.6691893,-2.3976462,-1.1978191,8.34907,5.0094275,0,1683969439.1700766
0.020367041,0.5216158,0.39337662,0.7270824,-1.5871806,-2.4538457,-1.1978191,8.34907,5.0094275,0,1683969439.1751938
0.020367041,0.5216158,0.39337662,0.7270824,-1.5871806,-2.4538457,-1.3531958,8.363751,4.9449606,0,1683969439.1854305
-0.06524771,0.46484417,0.42307347,0.7270824,-1.5871806,-2.4538457,-1.3531958,8.363751,4.9449606,0,1683969439.2008312
-0.06524771,0.46484417,0.42307347,0.674548,-1.6183348,-2.4576635,-1.3531958,8.363751,4.9449606,0,1683969439.2213843
-0.06524771,0.46484417,0.42307347,0.674548,-1.6183348,-2.4576635,-1.4658108,8.362151,4.915478,0,1683969439.2265224
-0.06524771,0.46484417,0.42307347,0.674548,-1.6183348,-2.4576635,-1.5794432,8.355354,4.8917813,0,1683969439.2419178
-0.06524771,0.46484417,0.42307347,0.6977608,-1.676825,-2.4023802,-1.5794432,8.355354,4.8917813,0,1683969439.2521503
-0.12580003,0.42020744,0.43350092,0.6977608,-1.676825,-2.4023802,-1.5794432,8.355354,4.8917813,0,1683969439.2573025
-0.12580003,0.42020744,0.43350092,0.76159626,-1.8122845,-2.3208299,-1.5794432,8.355354,4.8917813,0,1683969439.2881014
-0.12580003,0.42020744,0.43350092,0.76159626,-1.8122845,-2.3208299,-1.687769,8.347279,4.869343,0,1683969439.2932365
-0.16269243,0.40356013,0.40959707,0.76159626,-1.8122845,-2.3208299,-1.687769,8.347279,4.869343,0,1683969439.2983787
-0.16269243,0.40356013,0.40959707,0.76159626,-1.8122845,-2.3208299,-1.8277266,8.3398695,4.831366,0,1683969439.324023
-0.17226616,0.42087823,0.38526636,0.76159626,-1.8122845,-2.3208299,-1.8277266,8.3398695,4.831366,0,1683969439.3291738
-0.17226616,0.42087823,0.38526636,0.9121745,-2.117717,-2.235614,-1.8277266,8.3398695,4.831366,0,1683969439.334274
-0.18190086,0.42636633,0.31355488,0.9121745,-2.117717,-2.235614,-1.8277266,8.3398695,4.831366,0,1683969439.3599405
-0.18190086,0.42636633,0.31355488,0.9121745,-2.117717,-2.235614,-1.9021966,8.341681,4.79939,0,1683969439.3650486
-0.18190086,0.42636633,0.31355488,1.0807734,-2.522568,-2.1911736,-1.9021966,8.341681,4.79939,0,1683969439.3701878
-0.17360769,0.42929336,0.31020102,1.0807734,-2.522568,-2.1911736,-1.9021966,8.341681,4.79939,0,1683969439.3855665
-0.17360769,0.42929336,0.31020102,1.0807734,-2.522568,-2.1911736,-1.960705,8.348474,4.7639,0,1683969439.395849
-0.7165052,0.7898022,1.2508656,1.0807734,-2.522568,-2.1911736,-1.960705,8.348474,4.7639,0,1683969439.4112031
-0.7165052,0.7898022,1.2508656,1.0807734,-2.522568,-2.1911736,-2.4091866,6.8240957,6.622964,0,1683969439.4266222
-0.7165052,0.7898022,1.2508656,-0.52656585,-1.0215194,-0.05681047,-2.4091866,6.8240957,6.622964,0,1683969439.4317608
-0.7165052,0.7898022,1.2508656,-0.35185838,-0.8381071,0.03359759,-2.4091866,6.8240957,6.622964,0,1683969439.4471765
-0.7098585,0.834195,1.3219674,-0.35185838,-0.8381071,0.03359759,-2.4091866,6.8240957,6.622964,0,1683969439.4574747
-0.7098585,0.834195,1.3219674,-0.35185838,-0.8381071,0.03359759,-2.357173,6.7898808,6.676628,0,1683969439.4625692
-0.7034557,0.85279363,1.369897,-0.35185838,-0.8381071,0.03359759,-2.357173,6.7898808,6.676628,0,1683969439.4728534
-0.7034557,0.85279363,1.369897,-0.24327709,-0.63071835,0.10399981,-2.357173,6.7898808,6.676628,0,1683969439.4831467
-0.7034557,0.85279363,1.369897,-0.24327709,-0.63071835,0.10399981,-2.3097527,6.7652054,6.71812,0,1683969439.4882877
-0.7034557,0.85279363,1.369897,-0.15577064,-0.3830125,0.16920967,-2.3097527,6.7652054,6.71812,0,1683969439.5140011
-0.6822349,0.86748964,1.3970938,-0.15577064,-0.3830125,0.16920967,-2.3097527,6.7652054,6.71812,0,1683969439.5294192
-0.6822349,0.86748964,1.3970938,-0.15577064,-0.3830125,0.16920967,-2.2703328,6.748356,6.748435,0,1683969439.5396762
-0.6822349,0.86748964,1.3970938,-0.15577064,-0.3830125,0.16920967,-2.2321863,6.735068,6.7743874,0,1683969439.5448155
-0.65266,0.8695629,1.4195341,-0.15577064,-0.3830125,0.16920967,-2.2321863,6.735068,6.7743874,0,1683969439.5499222
-0.65266,0.8695629,1.4195341,-0.061391957,-0.05665775,0.2302962,-2.2321863,6.735068,6.7743874,0,1683969439.565267
-0.65266,0.8695629,1.4195341,-0.061391957,-0.05665775,0.2302962,-2.223258,6.7330685,6.7793083,0,1683969439.58566
-0.64192766,0.8589525,1.4225221,-0.061391957,-0.05665775,0.2302962,-2.223258,6.7330685,6.7793083,0,1683969439.5907848
-0.64192766,0.8589525,1.4225221,0.016493361,0.20677789,0.26725355,-2.223258,6.7330685,6.7793083,0,1683969439.61125
-0.6450986,0.82937765,1.4027648,0.016493361,0.20677789,0.26725355,-2.223258,6.7330685,6.7793083,0,1683969439.6369345
-0.6450986,0.82937765,1.4027648,0.016493361,0.20677789,0.26725355,-2.2277331,6.7368107,6.7741194,0,1683969439.642075
-0.6450986,0.82937765,1.4027648,0.13057245,0.5161811,0.33841935,-2.2277331,6.7368107,6.7741194,0,1683969439.647194
-0.6450986,0.82937765,1.4027648,0.23182335,0.7136433,0.41248676,-2.2277331,6.7368107,6.7741194,0,1683969439.6625047
-0.6450986,0.82937765,1.4027648,0.23182335,0.7136433,0.41248676,-2.2435436,6.747404,6.7583394,0,1683969439.6727426
-0.3846566,0.4841136,0.5969251,0.23182335,0.7136433,0.41248676,-2.2435436,6.747404,6.7583394,0,1683969439.6778836
-0.3846566,0.4841136,0.5969251,0.23182335,0.7136433,0.41248676,-2.4883394,7.637206,5.6318173,0,1683969439.6830218
-0.3846566,0.4841136,0.5969251,0.9120218,1.2460123,1.4178182,-2.4883394,7.637206,5.6318173,0,1683969439.688165
-0.362948,0.46758825,0.57436275,0.9120218,1.2460123,1.4178182,-2.4883394,7.637206,5.6318173,0,1683969439.7035742
-0.362948,0.46758825,0.57436275,0.86376345,1.2605205,1.4662293,-2.4883394,7.637206,5.6318173,0,1683969439.7189443
-0.31837222,0.4601488,0.500578,0.86376345,1.2605205,1.4662293,-2.4883394,7.637206,5.6318173,0,1683969439.7240767
-0.31837222,0.4601488,0.500578,0.86376345,1.2605205,1.4662293,-2.4578602,7.710899,5.544102,0,1683969439.7497072
-0.29849303,0.45234346,0.4628929,0.86376345,1.2605205,1.4662293,-2.4578602,7.710899,5.544102,0,1683969439.7548456
-0.29849303,0.45234346,0.4628929,0.86376345,1.2605205,1.4662293,-2.405317,7.8155413,5.4192133,0,1683969439.7702265
-0.29849303,0.45234346,0.4628929,0.7134906,1.3539828,1.4894422,-2.405317,7.8155413,5.4192133,0,1683969439.7753499
-0.29812714,0.43039095,0.42520773,0.7134906,1.3539828,1.4894422,-2.405317,7.8155413,5.4192133,0,1683969439.7906857
-0.29812714,0.43039095,0.42520773,0.57451874,1.4144585,1.5236506,-2.405317,7.8155413,5.4192133,0,1683969439.795819
-0.29812714,0.43039095,0.42520773,0.57451874,1.4144585,1.5236506,-2.3710952,7.87695,5.344874,0,1683969439.8111877
-0.28294334,0.41831708,0.42002448,0.57451874,1.4144585,1.5236506,-2.3710952,7.87695,5.344874,0,1683969439.8265977
-0.28294334,0.41831708,0.42002448,0.45998153,1.4309518,1.5815301,-2.3710952,7.87695,5.344874,0,1683969439.836868
-0.28294334,0.41831708,0.42002448,0.45998153,1.4309518,1.5815301,-2.3342135,7.9319735,5.279334,0,1683969439.852282
-0.2596493,0.41020685,0.44100136,0.45998153,1.4309518,1.5815301,-2.3342135,7.9319735,5.279334,0,1683969439.8625655
-0.2596493,0.41020685,0.44100136,0.45998153,1.4309518,1.5815301,-2.291556,7.9824486,5.221628,0,1683969439.8778458
-0.2596493,0.41020685,0.44100136,0.38698313,1.435686,1.672549,-2.291556,7.9824486,5.221628,0,1683969439.8829727
-0.2596493,0.41020685,0.44100136,0.38698313,1.435686,1.672549,-2.2414348,8.031151,5.1684337,0,1683969439.9035106
-0.2406238,0.40112096,0.44740415,0.38698313,1.435686,1.672549,-2.2414348,8.031151,5.1684337,0,1683969439.9137814
-0.2406238,0.40112096,0.44740415,0.39858958,1.4225525,1.7617353,-2.2414348,8.031151,5.1684337,0,1683969439.9291925
-0.2406238,0.40112096,0.44740415,0.45097128,1.3828462,1.8318322,-2.2414348,8.031151,5.1684337,0,1683969439.9548614
-0.2406238,0.40112096,0.44740415,-0.656222,0.49373183,1.7809776,-2.2414348,8.031151,5.1684337,0,1683969439.975335
-0.2406238,0.40112096,0.44740415,-0.656222,0.49373183,1.7809776,0.48897344,8.090526,5.526339,0,1683969439.98046
0.47069818,0.9013331,0.65211123,-0.656222,0.49373183,1.7809776,0.48897344,8.090526,5.526339,0,1683969439.9906957
0.47069818,0.9013331,0.65211123,-0.656222,0.49373183,1.7809776,0.6015098,8.051398,5.5721893,0,1683969440.011201
0.4853332,0.94225013,0.58820504,-0.656222,0.49373183,1.7809776,0.6015098,8.051398,5.5721893,0,1683969440.0163312
0.4853332,0.94225013,0.58820504,-0.50686544,0.38591412,1.562746,0.6015098,8.051398,5.5721893,0,1683969440.0265973
0.4853332,0.94225013,0.58820504,-0.5670357,0.4008803,1.4135422,0.6015098,8.051398,5.5721893,0,1683969440.0368752
0.4853332,0.94225013,0.58820504,-0.5670357,0.4008803,1.4135422,0.7034619,8.016466,5.610483,0,1683969440.0420232
0.43575716,0.9320666,0.5071027,-0.5670357,0.4008803,1.4135422,0.7034619,8.016466,5.610483,0,1683969440.047162
0.43575716,0.9320666,0.5071027,-0.77564615,0.42745295,1.4353806,0.7034619,8.016466,5.610483,0,1683969440.0676656
0.43575716,0.9320666,0.5071027,-0.77564615,0.42745295,1.4353806,0.83669275,7.955462,5.678616,0,1683969440.088087
0.3808149,0.92023665,0.47917432,-0.77564615,0.42745295,1.4353806,0.83669275,7.955462,5.678616,0,1683969440.0932183
0.3808149,0.92023665,0.47917432,-0.8669705,0.38056904,1.541213,0.83669275,7.955462,5.678616,0,1683969440.113725
0.3808149,0.92023665,0.47917432,-0.8669705,0.38056904,1.541213,0.9288469,7.9026294,5.7377524,0,1683969440.1188602
0.4633807,1.0064611,0.5699723,-0.8669705,0.38056904,1.541213,0.9288469,7.9026294,5.7377524,0,1683969440.1291378
0.63772017,1.1376883,0.7149807,-0.8669705,0.38056904,1.541213,0.9288469,7.9026294,5.7377524,0,1683969440.149677
0.63772017,1.1376883,0.7149807,-0.8669705,0.38056904,1.541213,1.0299312,7.845059,5.7991734,0,1683969440.1548154
0.63772017,1.1376883,0.7149807,-0.73655075,0.26374108,1.5570955,1.0299312,7.845059,5.7991734,0,1683969440.1702263
0.7871191,1.2638543,0.80651045,-0.73655075,0.26374108,1.5570955,1.0299312,7.845059,5.7991734,0,1683969440.190599
0.7871191,1.2638543,0.80651045,-0.36041048,0.08445212,1.3904821,1.0299312,7.845059,5.7991734,0,1683969440.1957397
0.7871191,1.2638543,0.80651045,-0.36041048,0.08445212,1.3904821,1.1884677,7.770466,5.86886,0,1683969440.2008786
0.849013,1.3235528,0.8144987,-0.36041048,0.08445212,1.3904821,1.1884677,7.770466,5.86886,0,1683969440.23165
0.849013,1.3235528,0.8144987,-0.36041048,0.08445212,1.3904821,1.2403804,7.7520447,5.8824635,0,1683969440.2367914
0.4677712,0.8955401,0.5417389,-0.36041048,0.08445212,1.3904821,1.2403804,7.7520447,5.8824635,0,1683969440.257295
0.42459795,0.85559875,0.51106644,-0.36041048,0.08445212,1.3904821,1.2403804,7.7520447,5.8824635,0,1683969440.262433
0.42459795,0.85559875,0.51106644,0.5853616,-0.28970283,-1.9022343,1.2403804,7.7520447,5.8824635,0,1683969440.2778013
0.42459795,0.85559875,0.51106644,0.5853616,-0.28970283,-1.9022343,0.7105671,8.125117,5.451026,0,1683969440.288024
0.42459795,0.85559875,0.51106644,0.68371093,-0.47708577,-1.9740111,0.7105671,8.125117,5.451026,0,1683969440.3136804
0.37569264,0.80986434,0.47460085,0.68371093,-0.47708577,-1.9740111,0.7105671,8.125117,5.451026,0,1683969440.318813
0.37569264,0.80986434,0.47460085,0.68371093,-0.47708577,-1.9740111,0.59295213,8.165884,5.403967,0,1683969440.3290594
0.37569264,0.80986434,0.47460085,0.731053,-0.56031615,-1.9989038,0.59295213,8.165884,5.403967,0,1683969440.3392942
0.37569264,0.80986434,0.47460085,0.731053,-0.56031615,-1.9989038,0.47712785,8.208549,5.3505325,0,1683969440.3546994
0.35721594,0.7918755,0.46484417,0.731053,-0.56031615,-1.9989038,0.47712785,8.208549,5.3505325,0,1683969440.3598292
0.35721594,0.7918755,0.46484417,0.731053,-0.56031615,-1.9989038,0.36484522,8.253284,5.2902074,0,1683969440.3802736
0.32440916,0.75772715,0.43130565,0.731053,-0.56031615,-1.9989038,0.36484522,8.253284,5.2902074,0,1683969440.3853736
0.32440916,0.75772715,0.43130565,0.8544478,-0.82970774,-2.0676262,0.36484522,8.253284,5.2902074,0,1683969440.3904967
0.2962978,0.72083473,0.41288993,0.8544478,-0.82970774,-2.0676262,0.36484522,8.253284,5.2902074,0,1683969440.421261
0.2962978,0.72083473,0.41288993,0.91583973,-0.9950995,-2.1140518,0.36484522,8.253284,5.2902074,0,1683969440.4264014
0.2962978,0.72083473,0.41288993,0.91583973,-0.9950995,-2.1140518,0.20385353,8.323085,5.1885295,0,1683969440.436673
0.2617226,0.68491805,0.40843847,0.91583973,-0.9950995,-2.1140518,0.20385353,8.323085,5.1885295,0,1683969440.4520829
0.2617226,0.68491805,0.40843847,0.9256136,-1.1241448,-2.1743748,0.20385353,8.323085,5.1885295,0,1683969440.4623451
0.2617226,0.68491805,0.40843847,0.9256136,-1.1241448,-2.1743748,0.0991872,8.369477,5.1164565,0,1683969440.4674113
0.24184339,0.65235513,0.3943523,0.9256136,-1.1241448,-2.1743748,0.0991872,8.369477,5.1164565,0,1683969440.4929543
0.24184339,0.65235513,0.3943523,0.9256136,-1.1241448,-2.1743748,-0.061276484,8.432639,5.0122786,0,1683969440.5031903
0.24184339,0.65235513,0.3943523,0.8549059,-1.1261301,-2.2174408,-0.061276484,8.432639,5.0122786,0,1683969440.5083318
-0.2924561,0.33764166,0.46325874,0.8549059,-1.1261301,-2.2174408,-0.061276484,8.432639,5.0122786,0,1683969440.518607
-0.2924561,0.33764166,0.46325874,0.8549059,-1.1261301,-2.2174408,-2.118222,8.068136,5.162792,0,1683969440.5237455
-0.2924561,0.33764166,0.46325874,-0.7661777,-1.6180294,-1.7180585,-2.118222,8.068136,5.162792,0,1683969440.5288863
-0.2924561,0.33764166,0.46325874,-0.8026769,-1.589624,-1.6207782,-2.118222,8.068136,5.162792,0,1683969440.5545015
-0.2924561,0.33764166,0.46325874,-0.8026769,-1.589624,-1.6207782,-2.1732917,7.9925466,5.256626,0,1683969440.564777
-0.30202982,0.3420931,0.49563867,-0.8026769,-1.589624,-1.6207782,-2.1732917,7.9925466,5.256626,0,1683969440.5699143
-0.31837222,0.37215585,0.51966447,-0.8026769,-1.589624,-1.6207782,-2.1732917,7.9925466,5.256626,0,1683969440.5750525
-0.31837222,0.37215585,0.51966447,-0.80954915,-1.5978707,-1.520749,-2.1732917,7.9925466,5.256626,0,1683969440.5852456
-0.31837222,0.37215585,0.51966447,-0.80954915,-1.5978707,-1.520749,-2.2394896,7.877365,5.400733,0,1683969440.5903502
-0.32684833,0.40416992,0.53551906,-0.80954915,-1.5978707,-1.520749,-2.2394896,7.877365,5.400733,0,1683969440.6159873
-0.32684833,0.40416992,0.53551906,-0.80954915,-1.5978707,-1.520749,-2.2731655,7.8008733,5.4968357,0,1683969440.6313918
-0.32684833,0.40416992,0.53551906,-0.8258898,-1.6174184,-1.4488196,-2.2731655,7.8008733,5.4968357,0,1683969440.6416688
-0.32684833,0.40416992,0.53551906,-0.8507826,-1.628414,-1.4025466,-2.2731655,7.8008733,5.4968357,0,1683969440.6518974
-0.34361762,0.41673166,0.55137366,-0.8507826,-1.628414,-1.4025466,-2.2731655,7.8008733,5.4968357,0,1683969440.6621695
-0.34361762,0.41673166,0.55137366,-0.8507826,-1.628414,-1.4025466,-2.2995658,7.7239184,5.593675,0,1683969440.6724052
-0.34361762,0.41673166,0.55137366,-0.86926126,-1.632232,-1.3758212,-2.2995658,7.7239184,5.593675,0,1683969440.6979816
-0.3529474,0.42063433,0.55905706,-0.86926126,-1.632232,-1.3758212,-2.2995658,7.7239184,5.593675,0,1683969440.7031322
-0.3529474,0.42063433,0.55905706,-0.86926126,-1.632232,-1.3758212,-2.3104513,7.6848836,5.642739,0,1683969440.7082658
-0.3529474,0.42063433,0.55905706,-0.93126404,-1.6397151,-1.2895365,-2.3104513,7.6848836,5.642739,0,1683969440.7339256
-0.38075393,0.447831,0.60674274,-0.93126404,-1.6397151,-1.2895365,-2.3104513,7.6848836,5.642739,0,1683969440.7390702
-0.38075393,0.447831,0.60674274,-0.93126404,-1.6397151,-1.2895365,-2.3328915,7.565354,5.7930264,0,1683969440.7493472
-0.40319425,0.46301484,0.6588799,-0.93126404,-1.6397151,-1.2895365,-2.3328915,7.565354,5.7930264,0,1683969440.7544897
-0.40319425,0.46301484,0.6588799,-0.93126404,-1.6397151,-1.2895365,-2.3407726,7.441675,5.947972,0,1683969440.775034
-0.40319425,0.46301484,0.6588799,-0.9773844,-1.6238326,-1.2044735,-2.3407726,7.441675,5.947972,0,1683969440.780172
-0.4241711,0.4747838,0.71101713,-0.9773844,-1.6238326,-1.2044735,-2.3407726,7.441675,5.947972,0,1683969440.7903721
-0.4241711,0.4747838,0.71101713,1.1224649,1.3402383,1.2441798,-2.3407726,7.441675,5.947972,0,1683969440.8005767
-0.5431415,0.51905465,0.9596292,1.1224649,1.3402383,1.2441798,-2.3407726,7.441675,5.947972,0,1683969440.8107576
-0.5431415,0.51905465,0.9596292,1.1224649,1.3402383,1.2441798,-2.629957,6.571582,6.792183,0,1683969440.8158474
-0.47075918,0.52472574,0.88785666,1.1224649,1.3402383,1.2441798,-2.629957,6.571582,6.792183,0,1683969440.841439
-0.47075918,0.52472574,0.88785666,1.2657127,1.2592987,1.3038919,-2.629957,6.571582,6.792183,0,1683969440.8465714
-0.47075918,0.52472574,0.88785666,1.2657127,1.2592987,1.3038919,-2.6432462,6.715238,6.644919,0,1683969440.8517077
-0.42667124,0.5100907,0.8237676,1.2657127,1.2592987,1.3038919,-2.6432462,6.715238,6.644919,0,1683969440.882451
-0.42667124,0.5100907,0.8237676,1.3439035,1.2563971,1.3384057,-2.6432462,6.715238,6.644919,0,1683969440.887591
-0.42667124,0.5100907,0.8237676,1.3439035,1.2563971,1.3384057,-2.641588,6.8191867,6.5388684,0,1683969440.897781
-0.42667124,0.5100907,0.8237676,1.3439035,1.2563971,1.3384057,-2.6362922,6.925514,6.428323,0,1683969440.9028716
-0.40325522,0.48960173,0.76919127,1.3439035,1.2563971,1.3384057,-2.6362922,6.925514,6.428323,0,1683969440.918285
-0.40325522,0.48960173,0.76919127,1.3371841,1.3313808,1.3649784,-2.6362922,6.925514,6.428323,0,1683969440.928544
-0.3905106,0.46325874,0.71461487,1.3371841,1.3313808,1.3649784,-2.6362922,6.925514,6.428323,0,1683969440.949087
-0.3905106,0.46325874,0.71461487,1.3371841,1.3313808,1.3649784,-2.631373,7.0301824,6.315736,0,1683969440.9593194
-0.3905106,0.46325874,0.71461487,1.2687671,1.4585935,1.3968961,-2.631373,7.0301824,6.315736,0,1683969440.964458
-0.3905106,0.46325874,0.71461487,1.1646146,1.6029104,1.4553864,-2.631373,7.0301824,6.315736,0,1683969440.9901037
-0.38569325,0.4355132,0.6687586,1.1646146,1.6029104,1.4553864,-2.631373,7.0301824,6.315736,0,1683969440.99521
-0.38569325,0.4355132,0.6687586,1.1646146,1.6029104,1.4553864,-2.6292567,7.1301126,6.203597,0,1683969441.0003562
-0.3773391,0.40093803,0.61271864,1.1646146,1.6029104,1.4553864,-2.6292567,7.1301126,6.203597,0,1683969441.02094
-0.3773391,0.40093803,0.61271864,1.1646146,1.6029104,1.4553864,-2.6286948,7.2693453,6.0400906,0,1683969441.0311866
-0.3773391,0.40093803,0.61271864,1.0389291,1.7644843,1.5709927,-2.6286948,7.2693453,6.0400906,0,1683969441.0414474
-0.3773391,0.40093803,0.61271864,0.9627236,1.8283197,1.7203492,-2.6286948,7.2693453,6.0400906,0,1683969441.0517254
-0.3773391,0.40093803,0.61271864,0.9627236,1.8283197,1.7203492,-2.6243556,7.357068,5.9348483,0,1683969441.0620048
-0.36197233,0.3810588,0.5876562,0.9627236,1.8283197,1.7203492,-2.6243556,7.357068,5.9348483,0,1683969441.067136
0.19184047,0.5142983,0.50283426,0.9627236,1.8283197,1.7203492,-2.6243556,7.357068,5.9348483,0,1683969441.0774152
0.19184047,0.5142983,0.50283426,0.9627236,1.8283197,1.7203492,0.31300205,8.451386,4.9711385,0,1683969441.0928304
0.19184047,0.5142983,0.50283426,-1.0818423,1.5997033,2.887102,0.31300205,8.451386,4.9711385,0,1683969441.0979693
0.35404503,0.6021693,0.5873514,-1.0818423,1.5997033,2.887102,0.31300205,8.451386,4.9711385,0,1683969441.118477
0.35404503,0.6021693,0.5873514,-0.76174897,1.1656836,3.0141618,0.31300205,8.451386,4.9711385,0,1683969441.1236196
0.35404503,0.6021693,0.5873514,-0.76174897,1.1656836,3.0141618,0.47966436,8.392962,5.0561075,0,1683969441.1390276
0.56917953,0.7505926,0.64095205,-0.76174897,1.1656836,3.0141618,0.47966436,8.392962,5.0561075,0,1683969441.1595664
0.56917953,0.7505926,0.64095205,-0.76174897,1.1656836,3.0141618,0.67201525,8.345631,5.112235,0,1683969441.1646976
0.56917953,0.7505926,0.64095205,-0.2574797,0.6944011,2.9765937,0.67201525,8.345631,5.112235,0,1683969441.1749656
0.68095434,0.8499886,0.62686586,-0.2574797,0.6944011,2.9765937,0.67201525,8.345631,5.112235,0,1683969441.1903732
0.68095434,0.8499886,0.62686586,0.04153884,0.50442195,2.7962356,0.67201525,8.345631,5.112235,0,1683969441.195507
0.68095434,0.8499886,0.62686586,0.04153884,0.50442195,2.7962356,0.87573725,8.311733,5.1365633,0,1683969441.2108986
0.7132733,0.901577,0.5499101,0.04153884,0.50442195,2.7962356,0.87573725,8.311733,5.1365633,0,1683969441.2314293
0.7132733,0.901577,0.5499101,0.04153884,0.50442195,2.7962356,1.0727451,8.28774,5.137966,0,1683969441.2417033
0.7132733,0.901577,0.5499101,0.10140363,0.5477934,2.4888177,1.0727451,8.28774,5.137966,0,1683969441.246839
0.6868694,0.9232856,0.43831828,0.10140363,0.5477934,2.4888177,1.0727451,8.28774,5.137966,0,1683969441.2725015
0.6868694,0.9232856,0.43831828,-0.1020145,0.7163922,2.3612995,1.0727451,8.28774,5.137966,0,1683969441.2775984
0.6868694,0.9232856,0.43831828,-0.1020145,0.7163922,2.3612995,1.3310082,8.250681,5.137198,0,1683969441.2827337
0.6868694,0.9232856,0.43831828,-0.4364632,0.93218035,2.335185,1.3310082,8.250681,5.137198,0,1683969441.2980537
0.7333355,0.97560567,0.41764635,-0.4364632,0.93218035,2.335185,1.3310082,8.250681,5.137198,0,1683969441.3032005
0.7333355,0.97560567,0.41764635,-0.4364632,0.93218035,2.335185,1.4819356,8.211679,5.1583233,0,1683969441.3134334
0.8274264,1.0518296,0.4223417,-0.4364632,0.93218035,2.335185,1.4819356,8.211679,5.1583233,0,1683969441.3237045
0.8274264,1.0518296,0.4223417,-0.4364632,0.93218035,2.335185,1.5535585,8.186485,5.17726,0,1683969441.328835
0.8274264,1.0518296,0.4223417,0.92072666,-1.5135714,-2.516612,1.5535585,8.186485,5.17726,0,1683969441.3493993
0.8274264,1.0518296,0.4223417,0.77320266,-1.4721853,-2.637258,1.5535585,8.186485,5.17726,0,1683969441.3699274
0.8274264,1.0518296,0.4223417,0.77320266,-1.4721853,-2.637258,0.9677806,8.574512,4.6666117,0,1683969441.375066
0.48691866,0.8036444,0.42825672,0.77320266,-1.4721853,-2.637258,0.9677806,8.574512,4.6666117,0,1683969441.390476
0.44398934,0.74839735,0.4378914,0.77320266,-1.4721853,-2.637258,0.9677806,8.574512,4.6666117,0,1683969441.4058177
0.44398934,0.74839735,0.4378914,0.6606508,-1.4059063,-2.7235427,0.9677806,8.574512,4.6666117,0,1683969441.416088
0.44398934,0.74839735,0.4378914,0.6606508,-1.4059063,-2.7235427,0.8328967,8.627311,4.5947704,0,1683969441.4263597
0.44398934,0.74839735,0.4378914,0.6606508,-1.4059063,-2.7235427,0.68631786,8.671788,4.534884,0,1683969441.441767
0.44398934,0.74839735,0.4378914,0.56382865,-1.3234396,-2.7782152,0.68631786,8.671788,4.534884,0,1683969441.4520416
0.38057098,0.6902232,0.4429527,0.56382865,-1.3234396,-2.7782152,0.68631786,8.671788,4.534884,0,1683969441.4571822
0.30215177,0.61784095,0.43203738,0.56382865,-1.3234396,-2.7782152,0.68631786,8.671788,4.534884,0,1683969441.4776924
0.30215177,0.61784095,0.43203738,0.49861875,-1.2588406,-2.7934868,0.68631786,8.671788,4.534884,0,1683969441.4828296
0.30215177,0.61784095,0.43203738,0.49861875,-1.2588406,-2.7934868,0.44959506,8.724103,4.46363,0,1683969441.49824
0.2651374,0.5775337,0.42612243,0.49861875,-1.2588406,-2.7934868,0.44959506,8.724103,4.46363,0,1683969441.508479
0.2651374,0.5775337,0.42612243,0.4934264,-1.2625058,-2.755613,0.44959506,8.724103,4.46363,0,1683969441.5238822
0.2651374,0.5775337,0.42612243,0.4934264,-1.2625058,-2.755613,0.28811368,8.751432,4.423295,0,1683969441.539226
0.2651374,0.5775337,0.42612243,0.52305335,-1.320996,-2.7320948,0.28811368,8.751432,4.423295,0,1683969441.554642
0.25605154,0.57643604,0.40185273,0.52305335,-1.320996,-2.7320948,0.28811368,8.751432,4.423295,0,1683969441.5597854
0.25605154,0.57643604,0.40185273,0.52305335,-1.320996,-2.7320948,0.12915652,8.774661,4.384606,0,1683969441.5752103
0.25605154,0.57643604,0.40185273,0.5319109,-1.3579534,-2.7452285,0.12915652,8.774661,4.384606,0,1683969441.580308
0.25605154,0.57643604,0.40185273,0.5319109,-1.3579534,-2.7452285,0.0505676,8.785239,4.36499,0,1683969441.5854464
0.24983165,0.57497257,0.39313272,0.5319109,-1.3579534,-2.7452285,0.0505676,8.785239,4.36499,0,1683969441.6059065
0.21385394,0.54240966,0.3808759,0.5319109,-1.3579534,-2.7452285,0.0505676,8.785239,4.36499,0,1683969441.621306
-0.37520483,0.33782458,0.43709868,0.5319109,-1.3579534,-2.7452285,0.0505676,8.785239,4.36499,0,1683969441.6264427
-0.41319484,0.34703246,0.47612533,0.5319109,-1.3579534,-2.7452285,0.0505676,8.785239,4.36499,0,1683969441.636714
-0.41319484,0.34703246,0.47612533,0.5319109,-1.3579534,-2.7452285,-2.989057,7.733916,5.242917,0,1683969441.652082
-0.41319484,0.34703246,0.47612533,-0.68386364,-1.5844318,-2.0825922,-2.989057,7.733916,5.242917,0,1683969441.657222
-0.41319484,0.34703246,0.47612533,-0.6586655,-1.6452128,-1.9857702,-2.989057,7.733916,5.242917,0,1683969441.672615
-0.44356245,0.3494716,0.49240676,-0.6586655,-1.6452128,-1.9857702,-2.989057,7.733916,5.242917,0,1683969441.6777503
-0.44356245,0.3494716,0.49240676,-0.6586655,-1.6452128,-1.9857702,-3.0631273,7.6389737,5.338487,0,1683969441.703412
-0.44356245,0.3494716,0.49240676,-0.6586655,-1.6452128,-1.9857702,-3.1252697,7.5452275,5.4349194,0,1683969441.713683
-0.44356245,0.3494716,0.49240676,-0.7171558,-1.6452128,-1.8616118,-3.1252697,7.5452275,5.4349194,0,1683969441.723941
-0.4735032,0.3518498,0.509176,-0.7171558,-1.6452128,-1.8616118,-3.1252697,7.5452275,5.4349194,0,1683969441.7342076
-0.4735032,0.3518498,0.509176,-0.7171558,-1.6452128,-1.8616118,-3.1781654,7.4493513,5.535571,0,1683969441.7547169
-0.48844314,0.35288644,0.53667766,-0.7171558,-1.6452128,-1.8616118,-3.1781654,7.4493513,5.535571,0,1683969441.764994
-0.48844314,0.35288644,0.53667766,-0.8188649,-1.5830573,-1.7612772,-3.1781654,7.4493513,5.535571,0,1683969441.7701302
-0.48844314,0.35288644,0.53667766,-0.8188649,-1.5830573,-1.7612772,-3.2243478,7.349606,5.6411867,0,1683969441.7803297
-0.51112735,0.35733792,0.56802094,-0.8188649,-1.5830573,-1.7612772,-3.2243478,7.349606,5.6411867,0,1683969441.7905593
-0.51112735,0.35733792,0.56802094,-0.93523467,-1.493871,-1.6598736,-3.2243478,7.349606,5.6411867,0,1683969441.8059459
-0.51112735,0.35733792,0.56802094,-0.93523467,-1.493871,-1.6598736,-3.283696,7.1916213,5.808101,0,1683969441.826477
-0.5316164,0.36331388,0.61723113,-0.93523467,-1.493871,-1.6598736,-3.283696,7.1916213,5.808101,0,1683969441.8367472
-0.5316164,0.36331388,0.61723113,-1.059393,-1.3814718,-1.5354098,-3.283696,7.1916213,5.808101,0,1683969441.841887
-0.54917836,0.38471758,0.6650388,-1.059393,-1.3814718,-1.5354098,-3.283696,7.1916213,5.808101,0,1683969441.8572927
-0.54917836,0.38471758,0.6650388,-1.059393,-1.3814718,-1.5354098,-3.3164303,7.0824275,5.922553,0,1683969441.8778498
-0.54917836,0.38471758,0.6650388,-1.1021537,-1.3125967,-1.4482088,-3.3164303,7.0824275,5.922553,0,1683969441.8829901
-0.5939981,0.42252466,0.7068095,-1.1021537,-1.3125967,-1.4482088,-3.3164303,7.0824275,5.922553,0,1683969441.8932548
-0.81248647,0.42246366,1.1805567,-1.1021537,-1.3125967,-1.4482088,-3.3164303,7.0824275,5.922553,0,1683969441.9188697
-0.81248647,0.42246366,1.1805567,0.50610185,1.4234687,0.86086184,-3.3164303,7.0824275,5.922553,0,1683969441.9240081
-0.81248647,0.42246366,1.1805567,0.50610185,1.4234687,0.86086184,-3.3773606,5.968997,7.014315,0,1683969441.9291441
-0.7824237,0.42508578,1.0960395,0.50610185,1.4234687,0.86086184,-3.3773606,5.968997,7.014315,0,1683969441.9445176
-0.7824237,0.42508578,1.0960395,0.50610185,1.4234687,0.86086184,-3.426704,6.0213103,6.945332,0,1683969441.9599276
-0.7824237,0.42508578,1.0960395,0.5862779,1.5596917,1.0021244,-3.426704,6.0213103,6.945332,0,1683969441.9702075
-0.7824237,0.42508578,1.0960395,0.65209866,1.6455183,1.1447614,-3.426704,6.0213103,6.945332,0,1683969441.9855833
-0.734677,0.44075742,0.9935945,0.65209866,1.6455183,1.1447614,-3.426704,6.0213103,6.945332,0,1683969441.990725
-0.734677,0.44075742,0.9935945,0.65209866,1.6455183,1.1447614,-3.4982471,6.117104,6.824912,0,1683969441.995855
-0.734677,0.44075742,0.9935945,0.65209866,1.6455183,1.1447614,-3.5403314,6.1894464,6.7374263,0,1683969442.0368185
-0.734677,0.44075742,0.9935945,0.68416905,1.6743816,1.2449434,-3.5403314,6.1894464,6.7374263,0,1683969442.0419235
-0.693638,0.45368502,0.9254808,0.68416905,1.6743816,1.2449434,-3.5403314,6.1894464,6.7374263,0,1683969442.047063
-0.65845305,0.45594123,0.86852634,0.68416905,1.6743816,1.2449434,-3.5403314,6.1894464,6.7374263,0,1683969442.052202
-0.65845305,0.45594123,0.86852634,0.68416905,1.6743816,1.2449434,-3.576103,6.266837,6.6463795,0,1683969442.067601
-0.65845305,0.45594123,0.86852634,0.7128797,1.6847663,1.3304645,-3.576103,6.266837,6.6463795,0,1683969442.0727215
-0.61534077,0.44655046,0.79766846,0.7128797,1.6847663,1.3304645,-3.576103,6.266837,6.6463795,0,1683969442.1034627
-0.61534077,0.44655046,0.79766846,0.7128797,1.6847663,1.3304645,-3.6048996,6.3484154,6.552743,0,1683969442.108601
-0.61534077,0.44655046,0.79766846,0.7454083,1.6658295,1.4210253,-3.6048996,6.3484154,6.552743,0,1683969442.1188383
-0.579668,0.44014767,0.7416896,0.7454083,1.6658295,1.4210253,-3.6048996,6.3484154,6.552743,0,1683969442.1290257
-0.579668,0.44014767,0.7416896,0.7454083,1.6658295,1.4210253,-3.6257405,6.433737,6.457333,0,1683969442.1391783
-0.579668,0.44014767,0.7416896,0.752586,1.6194037,1.4724907,-3.6257405,6.433737,6.457333,0,1683969442.1545808
-0.579668,0.44014767,0.7416896,0.74296486,1.5567901,1.5031867,-3.6257405,6.433737,6.457333,0,1683969442.1597226
-0.579668,0.44014767,0.7416896,0.74296486,1.5567901,1.5031867,-3.638313,6.5207086,6.3623223,0,1683969442.1750803
-0.56619155,0.42362225,0.7118098,0.74296486,1.5567901,1.5031867,-3.638313,6.5207086,6.3623223,0,1683969442.1852868
-0.56619155,0.42362225,0.7118098,0.74296486,1.5567901,1.5031867,-1.4553854,8.503217,4.670469,0,1683969442.1955533
-0.56619155,0.42362225,0.7118098,-0.023060163,1.5491543,2.6077838,-1.4553854,8.503217,4.670469,0,1683969442.2006893
0.19440159,0.53576297,0.3120304,-0.023060163,1.5491543,2.6077838,-1.4553854,8.503217,4.670469,0,1683969442.205818
0.19440159,0.53576297,0.3120304,-0.023060163,1.5491543,2.6077838,-1.2342967,8.550705,4.647373,0,1683969442.2262816
0.17049775,0.5316164,0.25867364,-0.023060163,1.5491543,2.6077838,-1.2342967,8.550705,4.647373,0,1683969442.2365289
0.17049775,0.5316164,0.25867364,-0.11285736,1.5173893,2.5294402,-1.2342967,8.550705,4.647373,0,1683969442.2467988
0.14830133,0.5149691,0.22854991,-0.11285736,1.5173893,2.5294402,-1.2342967,8.550705,4.647373,0,1683969442.2621977
0.14830133,0.5149691,0.22854991,-0.29626966,1.4961617,2.4992025,-1.2342967,8.550705,4.647373,0,1683969442.2672992
0.14830133,0.5149691,0.22854991,-0.29626966,1.4961617,2.4992025,-1.0922824,8.572178,4.64336,0,1683969442.2723997
0.14830133,0.5149691,0.22854991,-0.45173484,1.4263704,2.5230262,-1.0922824,8.572178,4.64336,0,1683969442.2929292
0.14830133,0.5149691,0.22854991,-0.45173484,1.4263704,2.5230262,-0.95068216,8.584052,4.652565,0,1683969442.3082228
0.14147167,0.5144203,0.22415942,-0.45173484,1.4263704,2.5230262,-0.95068216,8.584052,4.652565,0,1683969442.313316
0.14147167,0.5144203,0.22415942,-0.57894754,1.3028228,2.5827382,-0.95068216,8.584052,4.652565,0,1683969442.3337018
0.15769213,0.50838333,0.27556485,-0.57894754,1.3028228,2.5827382,-0.95068216,8.584052,4.652565,0,1683969442.3439434
0.15769213,0.50838333,0.27556485,-0.57894754,1.3028228,2.5827382,-0.8047742,8.586204,4.676063,0,1683969442.3542047
0.19556019,0.5081394,0.30050534,-0.57894754,1.3028228,2.5827382,-0.8047742,8.586204,4.676063,0,1683969442.35931
0.19556019,0.5081394,0.30050534,-0.6239988,1.1701124,2.6390905,-0.8047742,8.586204,4.676063,0,1683969442.3798406
0.19556019,0.5081394,0.30050534,-0.6239988,1.1701124,2.6390905,-0.5707266,8.5742035,4.7321677,0,1683969442.3849769
0.19556019,0.5081394,0.30050534,-0.58200186,0.95737857,2.7539332,-0.5707266,8.5742035,4.7321677,0,1683969442.4003289
0.19556019,0.5081394,0.30050534,-0.58200186,0.95737857,2.7539332,-0.40016562,8.558826,4.777287,0,1683969442.4105701
0.3064203,0.5741799,0.3963646,-0.58200186,0.95737857,2.7539332,-0.40016562,8.558826,4.777287,0,1683969442.4157126
0.44825786,0.69723576,0.46319774,-0.58200186,0.95737857,2.7539332,-0.40016562,8.558826,4.777287,0,1683969442.446371
0.44825786,0.69723576,0.46319774,-0.45753807,0.7779369,2.7919595,-0.40016562,8.558826,4.777287,0,1683969442.4566364
0.44825786,0.69723576,0.46319774,-0.45753807,0.7779369,2.7919595,-0.21509218,8.541066,4.8207927,0,1683969442.4617772
0.9679833,1.3883127,0.59704703,-0.45753807,0.7779369,2.7919595,-0.21509218,8.541066,4.8207927,0,1683969442.4720685
0.9679833,1.3883127,0.59704703,-0.51893,0.39293906,-1.2809844,-0.21509218,8.541066,4.8207927,0,1683969442.4772055
0.9679833,1.3883127,0.59704703,-0.51893,0.39293906,-1.2809844,1.3659065,8.150746,5.285428,0,1683969442.4976676
0.90090626,1.3108082,0.6297928,-0.51893,0.39293906,-1.2809844,1.3659065,8.150746,5.285428,0,1683969442.5028071
0.90090626,1.3108082,0.6297928,-0.3397938,0.20799962,-1.5012014,1.3659065,8.150746,5.285428,0,1683969442.5079505
0.90090626,1.3108082,0.6297928,-0.3397938,0.20799962,-1.5012014,1.2627612,8.142924,5.3230014,0,1683969442.533611
0.90090626,1.3108082,0.6297928,-0.0421497,-0.079107046,-1.7383698,1.2627612,8.142924,5.3230014,0,1683969442.543872
0.8218162,1.223547,0.64558643,-0.0421497,-0.079107046,-1.7383698,1.2627612,8.142924,5.3230014,0,1683969442.554147
0.8218162,1.223547,0.64558643,-0.0421497,-0.079107046,-1.7383698,1.1521615,8.14463,5.345432,0,1683969442.5591972
0.7188834,1.1298829,0.6471719,-0.0421497,-0.079107046,-1.7383698,1.1521615,8.14463,5.345432,0,1683969442.5797424
0.7188834,1.1298829,0.6471719,-0.0421497,-0.079107046,-1.7383698,0.98107773,8.168799,5.3426876,0,1683969442.5900145
0.7188834,1.1298829,0.6471719,0.21777347,-0.31948254,-1.8797851,0.98107773,8.168799,5.3426876,0,1683969442.59515
0.664429,1.0764652,0.6343663,0.21777347,-0.31948254,-1.8797851,0.98107773,8.168799,5.3426876,0,1683969442.6105254
0.664429,1.0764652,0.6343663,0.44165558,-0.53786683,-1.9848539,0.98107773,8.168799,5.3426876,0,1683969442.6156619
0.664429,1.0764652,0.6343663,0.44165558,-0.53786683,-1.9848539,0.9242662,8.182643,5.3316226,0,1683969442.6414099
0.664429,1.0764652,0.6343663,0.6195701,-0.70631295,-2.0622811,0.9242662,8.182643,5.3316226,0,1683969442.6516361
0.5886319,0.9996925,0.59979105,0.6195701,-0.70631295,-2.0622811,0.9242662,8.182643,5.3316226,0,1683969442.6618752
0.5886319,0.9996925,0.59979105,0.6195701,-0.70631295,-2.0622811,0.7564461,8.237933,5.2726054,0,1683969442.6670094
0.5886319,0.9996925,0.59979105,0.7461719,-0.86635965,-2.138792,0.7564461,8.237933,5.2726054,0,1683969442.6976867
0.5886319,0.9996925,0.59979105,0.7461719,-0.86635965,-2.138792,0.64607644,8.282432,5.2172813,0,1683969442.702826
0.5438122,0.9456039,0.54539764,0.7461719,-0.86635965,-2.138792,0.64607644,8.282432,5.2172813,0,1683969442.7130682
0.5438122,0.9456039,0.54539764,0.7461719,-0.86635965,-2.138792,0.53560615,8.329204,5.1549587,0,1683969442.7232978
0.52222556,0.90572363,0.5061881,0.7461719,-0.86635965,-2.138792,0.53560615,8.329204,5.1549587,0,1683969442.7386627
-0.3664848,0.35166687,0.38532734,0.7461719,-0.86635965,-2.138792,0.53560615,8.329204,5.1549587,0,1683969442.7489367
-0.3664848,0.35166687,0.38532734,-0.2967278,-1.0103711,-2.3478606,0.53560615,8.329204,5.1549587,0,1683969442.7591639
-0.3664848,0.35166687,0.38532734,-0.2967278,-1.0103711,-2.3478606,-3.1751115,7.8085647,5.0180793,0,1683969442.7643044
-0.3732535,0.38154665,0.37069237,-0.2967278,-1.0103711,-2.3478606,-3.1751115,7.8085647,5.0180793,0,1683969442.7847793
-0.3732535,0.38154665,0.37069237,-0.2967278,-1.0103711,-2.3478606,-3.2979882,7.7222986,5.0720305,0,1683969442.8001947
-0.3732535,0.38154665,0.37069237,-0.2706133,-1.1499538,-2.2945626,-3.2979882,7.7222986,5.0720305,0,1683969442.8104372
-0.38923004,0.3998404,0.35166687,-0.2706133,-1.1499538,-2.2945626,-3.2979882,7.7222986,5.0720305,0,1683969442.8155713
-0.38923004,0.3998404,0.35166687,-0.21181752,-1.3900238,-2.2600486,-3.2979882,7.7222986,5.0720305,0,1683969442.8207028
-0.38923004,0.3998404,0.35166687,-0.21181752,-1.3900238,-2.2600486,-3.4079018,7.6371446,5.1279955,0,1683969442.8361096
-0.38923004,0.3998404,0.35166687,-0.18997909,-1.6045903,-2.2382102,-3.4079018,7.6371446,5.1279955,0,1683969442.8566508
-0.38923004,0.3998404,0.35166687,-0.18997909,-1.6045903,-2.2382102,-3.5045998,7.553029,5.187065,0,1683969442.861786
-0.42093918,0.4094141,0.34270293,-0.18997909,-1.6045903,-2.2382102,-3.5045998,7.553029,5.187065,0,1683969442.8669324
-0.42093918,0.4094141,0.34270293,-0.18997909,-1.6045903,-2.2382102,-3.5879338,7.468167,5.252556,0,1683969442.9028344
-0.45581928,0.40410894,0.37014353,-0.18997909,-1.6045903,-2.2382102,-3.5879338,7.468167,5.252556,0,1683969442.9079554
-0.45581928,0.40410894,0.37014353,-0.20265454,-1.7936531,-2.2032382,-3.5879338,7.468167,5.252556,0,1683969442.913096
-0.45581928,0.40410894,0.37014353,-0.23044892,-1.943315,-2.1368067,-3.5879338,7.468167,5.252556,0,1683969442.9386606
-0.45581928,0.40410894,0.37014353,-0.23044892,-1.943315,-2.1368067,-3.6872017,7.3375635,5.3666377,0,1683969442.9438002
-0.48868704,0.38301015,0.44648945,-0.23044892,-1.943315,-2.1368067,-3.6872017,7.3375635,5.3666377,0,1683969442.954072
-0.48868704,0.38301015,0.44648945,-0.25534168,-1.9555323,-2.079538,-3.6872017,7.3375635,5.3666377,0,1683969442.959193
-0.48868704,0.38301015,0.44648945,-0.25534168,-1.9555323,-2.079538,-3.714254,7.2932506,5.4082284,0,1683969442.9746027
-0.51149327,0.3691069,0.49240676,-0.25534168,-1.9555323,-2.079538,-3.714254,7.2932506,5.4082284,0,1683969442.9797394
-0.51149327,0.3691069,0.49240676,-0.30925053,-1.9197967,-1.9530889,-3.714254,7.2932506,5.4082284,0,1683969443.0104845
-0.56411827,0.36575305,0.535702,-0.30925053,-1.9197967,-1.9530889,-3.714254,7.2932506,5.4082284,0,1683969443.0156105
-0.56411827,0.36575305,0.535702,0.57344973,1.086882,1.5911512,-3.714254,7.2932506,5.4082284,0,1683969443.0258782
-0.9342008,0.27239394,0.77638674,0.57344973,1.086882,1.5911512,-3.714254,7.2932506,5.4082284,0,1683969443.0413435
-0.9342008,0.27239394,0.77638674,0.57344973,1.086882,1.5911512,-4.3765235,5.932391,6.4721622,0,1683969443.051594
-0.9342008,0.27239394,0.77638674,0.68203104,0.9080512,1.7744108,-4.3765235,5.932391,6.4721622,0,1683969443.0618904
-0.9342008,0.27239394,0.77638674,0.68203104,0.9080512,1.7744108,-4.35755,6.0246296,6.399352,0,1683969443.0670295
-0.86675787,0.29404154,0.70943165,0.68203104,0.9080512,1.7744108,-4.35755,6.0246296,6.399352,0,1683969443.0824082
-0.86675787,0.29404154,0.70943165,0.7912232,0.72158456,1.8990273,-4.35755,6.0246296,6.399352,0,1683969443.1029384
-0.80163217,0.31495738,0.68455213,0.7912232,0.72158456,1.8990273,-4.35755,6.0246296,6.399352,0,1683969443.1080434
-0.80163217,0.31495738,0.68455213,0.7912232,0.72158456,1.8990273,-4.319583,6.127375,6.327132,0,1683969443.1131828
-0.80163217,0.31495738,0.68455213,0.7912232,0.72158456,1.8990273,-4.261401,6.2401557,6.255959,0,1683969443.1285815
-0.80163217,0.31495738,0.68455213,0.95340794,0.4998405,2.0059288,-4.261401,6.2401557,6.255959,0,1683969443.1490908
-0.7098585,0.33648303,0.67973477,0.95340794,0.4998405,2.0059288,-4.261401,6.2401557,6.255959,0,1683969443.154228
-0.7098585,0.33648303,0.67973477,1.0662653,0.40026945,2.0619757,-4.261401,6.2401557,6.255959,0,1683969443.1747355
-0.6444889,0.3545329,0.68247885,1.0662653,0.40026945,2.0619757,-4.261401,6.2401557,6.255959,0,1683969443.1798587
-0.6444889,0.3545329,0.68247885,1.0662653,0.40026945,2.0619757,-4.140524,6.4263487,6.147699,0,1683969443.1951876
-0.6444889,0.3545329,0.68247885,1.0662653,0.40026945,2.0619757,-4.094064,6.491615,6.1101303,0,1683969443.2156503
-0.59863245,0.36050883,0.68613756,1.0662653,0.40026945,2.0619757,-4.094064,6.491615,6.1101303,0,1683969443.2207828
-0.59863245,0.36050883,0.68613756,1.1175779,0.38973203,2.0891593,-4.094064,6.491615,6.1101303,0,1683969443.2259152
-0.59863245,0.36050883,0.68613756,1.1301007,0.48823404,2.1424572,-4.094064,6.491615,6.1101303,0,1683969443.2515538
-0.5549714,0.35806966,0.66314846,1.1301007,0.48823404,2.1424572,-4.094064,6.491615,6.1101303,0,1683969443.2567022
-0.5549714,0.35806966,0.66314846,1.1301007,0.48823404,2.1424572,-3.9483683,6.689363,5.991571,0,1683969443.2669692
-0.5549714,0.35806966,0.66314846,1.058324,0.6783658,2.2569942,-3.9483683,6.689363,5.991571,0,1683969443.287468
-0.4991755,0.36642382,0.6503428,1.058324,0.6783658,2.2569942,-3.9483683,6.689363,5.991571,0,1683969443.2926078
0.41380462,0.7637641,0.42459795,1.058324,0.6783658,2.2569942,-3.9483683,6.689363,5.991571,0,1683969443.2977464
0.41380462,0.7637641,0.42459795,-0.028710667,1.2643384,2.6164885,-3.9483683,6.689363,5.991571,0,1683969443.3131728
0.41380462,0.7637641,0.42459795,-0.028710667,1.2643384,2.6164885,-0.15636303,8.612577,4.6941648,0,1683969443.3285677
0.41380462,0.7637641,0.42459795,-0.33017266,1.4498887,2.6261096,-0.15636303,8.612577,4.6941648,0,1683969443.3337116
0.46325874,0.8363293,0.3907545,-0.33017266,1.4498887,2.6261096,-0.15636303,8.612577,4.6941648,0,1683969443.338809
0.46325874,0.8363293,0.3907545,-0.33017266,1.4498887,2.6261096,0.004047735,8.610117,4.7012744,0,1683969443.3490129
0.5391778,0.91548026,0.40599927,-0.33017266,1.4498887,2.6261096,0.004047735,8.610117,4.7012744,0,1683969443.3745944
0.5391778,0.91548026,0.40599927,-0.54901516,1.5793921,2.6193902,0.004047735,8.610117,4.7012744,0,1683969443.390001
0.5391778,0.91548026,0.40599927,-0.54901516,1.5793921,2.6193902,0.15875308,8.593968,4.728068,0,1683969443.4002757
0.5391778,0.91548026,0.40599927,-0.73731434,1.6879734,2.4920247,0.15875308,8.593968,4.728068,0,1683969443.4105518
0.5391778,0.91548026,0.40599927,-0.73731434,1.6879734,2.4920247,0.37526262,8.546472,4.8013663,0,1683969443.4259667
0.6413789,1.0320115,0.42758593,-0.73731434,1.6879734,2.4920247,0.37526262,8.546472,4.8013663,0,1683969443.4311109
0.6413789,1.0320115,0.42758593,-0.795652,1.7012597,2.264783,0.37526262,8.546472,4.8013663,0,1683969443.4515753
0.69101596,1.0998813,0.43014705,-0.795652,1.7012597,2.264783,0.37526262,8.546472,4.8013663,0,1683969443.4566755
0.69101596,1.0998813,0.43014705,-0.795652,1.7012597,2.264783,0.50063366,8.504532,4.8639903,0,1683969443.466882
0.69101596,1.0998813,0.43014705,-0.81504697,1.6643023,1.952478,0.50063366,8.504532,4.8639903,0,1683969443.4771569
0.7051631,1.1405544,0.4238052,-0.81504697,1.6643023,1.952478,0.50063366,8.504532,4.8639903,0,1683969443.487398
0.7051631,1.1405544,0.4238052,-0.81504697,1.6643023,1.952478,0.60395044,8.459284,4.930707,0,1683969443.5027866
0.6749174,1.1327491,0.4241711,-0.81504697,1.6643023,1.952478,0.60395044,8.459284,4.930707,0,1683969443.5232909
0.6749174,1.1327491,0.4241711,-0.8167268,1.5916094,1.5893186,0.60395044,8.459284,4.930707,0,1683969443.5335467
0.6749174,1.1327491,0.4241711,-0.8167268,1.5916094,1.5893186,0.64619744,8.436231,4.9647303,0,1683969443.5386767
0.6749174,1.1327491,0.4241711,-0.82726425,1.4726434,1.3080152,0.64619744,8.436231,4.9647303,0,1683969443.5489426
0.6749174,1.1327491,0.4241711,-0.82726425,1.4726434,1.3080152,0.7333148,8.367854,5.0672855,0,1683969443.5643356
0.8118766,1.191045,0.5027732,-0.82726425,1.4726434,1.3080152,0.7333148,8.367854,5.0672855,0,1683969443.5951383
0.8118766,1.191045,0.5027732,-0.82726425,1.4726434,1.3080152,1.4049937,8.335803,4.977599,0,1683969443.600279
0.8118766,1.191045,0.5027732,0.35353827,-0.52381694,-1.0691669,1.4049937,8.335803,4.977599,0,1683969443.6054127
0.8118766,1.191045,0.5027732,0.35353827,-0.52381694,-1.0691669,1.3583056,8.366419,4.939045,0,1683969443.6105485
0.80041254,1.1886669,0.526921,0.35353827,-0.52381694,-1.0691669,1.3583056,8.366419,4.939045,0,1683969443.6207914
0.80041254,1.1886669,0.526921,0.6042985,-0.84681195,-1.2528846,1.3583056,8.366419,4.939045,0,1683969443.631095
0.80041254,1.1886669,0.526921,0.71883565,-0.981355,-1.3747523,1.3583056,8.366419,4.939045,0,1683969443.6516445
0.80041254,1.1886669,0.526921,0.71883565,-0.981355,-1.3747523,1.3350837,8.38555,4.9128637,0,1683969443.6619177
0.78285056,1.1775078,0.529726,0.71883565,-0.981355,-1.3747523,1.3350837,8.38555,4.9128637,0,1683969443.677329
0.7244325,1.1274438,0.51740825,0.71883565,-0.981355,-1.3747523,1.3350837,8.38555,4.9128637,0,1683969443.68247
0.7244325,1.1274438,0.51740825,0.79213953,-1.0615311,-1.6009251,1.3350837,8.38555,4.9128637,0,1683969443.7081447
0.7244325,1.1274438,0.51740825,0.79213953,-1.0615311,-1.6009251,1.2589059,8.454875,4.8131437,0,1683969443.7132368
0.7244325,1.1274438,0.51740825,0.73731434,-1.0106765,-1.6869044,1.2589059,8.454875,4.8131437,0,1683969443.733776
0.7244325,1.1274438,0.51740825,0.73731434,-1.0106765,-1.6869044,1.1604177,8.531249,4.701845,0,1683969443.7389164
0.6855888,1.0929296,0.4993584,0.73731434,-1.0106765,-1.6869044,1.1604177,8.531249,4.701845,0,1683969443.7491913
0.6457084,1.0603057,0.4856381,0.73731434,-1.0106765,-1.6869044,1.1604177,8.531249,4.701845,0,1683969443.7542863
0.6457084,1.0603057,0.4856381,0.73731434,-1.0106765,-1.6869044,1.0786482,8.577995,4.635799,0,1683969443.7799542
0.6457084,1.0603057,0.4856381,0.57925296,-0.8773552,-1.7957911,1.0786482,8.577995,4.635799,0,1683969443.7850912
0.6457084,1.0603057,0.4856381,0.57925296,-0.8773552,-1.7957911,0.93284464,8.636143,4.5588336,0,1683969443.8106575
0.6457084,1.0603057,0.4856381,0.4250095,-0.7501425,-1.9033034,0.93284464,8.636143,4.5588336,0,1683969443.8157935
0.62241435,1.0282917,0.47691807,0.4250095,-0.7501425,-1.9033034,0.93284464,8.636143,4.5588336,0,1683969443.820919
0.62241435,1.0282917,0.47691807,0.3494149,-0.71669763,-1.9856175,0.93284464,8.636143,4.5588336,0,1683969443.84145
0.62241435,1.0282917,0.47691807,0.3494149,-0.71669763,-1.9856175,0.82173115,8.667372,4.5207887,0,1683969443.8465874
0.60759646,1.00701,0.49673632,0.3494149,-0.71669763,-1.9856175,0.82173115,8.667372,4.5207887,0,1683969443.8517256
-0.39599872,0.35264254,0.29751736,0.3494149,-0.71669763,-1.9856175,0.82173115,8.667372,4.5207887,0,1683969443.8620112
-0.39599872,0.35264254,0.29751736,-0.089186326,-1.0170907,-2.561358,0.82173115,8.667372,4.5207887,0,1683969443.8774226
-0.39599872,0.35264254,0.29751736,-0.089186326,-1.0170907,-2.561358,-2.9624867,8.401687,4.107489,0,1683969443.882566
-0.46118546,0.33904418,0.3281289,-0.089186326,-1.0170907,-2.561358,-2.9624867,8.401687,4.107489,0,1683969443.908207
-0.46118546,0.33904418,0.3281289,-0.14019357,-1.074512,-2.4210117,-2.9624867,8.401687,4.107489,0,1683969443.9133484
-0.46118546,0.33904418,0.3281289,-0.14019357,-1.074512,-2.4210117,-3.128317,8.322305,4.14596,0,1683969443.9236267
-0.50899315,0.36282605,0.3738023,-0.14019357,-1.074512,-2.4210117,-3.128317,8.322305,4.14596,0,1683969443.9287663
-0.50899315,0.36282605,0.3738023,-0.124005646,-1.154688,-2.2339342,-3.128317,8.322305,4.14596,0,1683969443.9390392
-0.50899315,0.36282605,0.3738023,-0.124005646,-1.154688,-2.2339342,-3.2792385,8.241174,4.191154,0,1683969443.954448
-0.50899315,0.36282605,0.3738023,-0.124005646,-1.154688,-2.2339342,-3.47626,8.122643,4.2631407,0,1683969443.969853
-0.5394827,0.3884373,0.39002275,-0.124005646,-1.154688,-2.2339342,-3.47626,8.122643,4.2631407,0,1683969443.9749935
-0.5394827,0.3884373,0.39002275,-0.07437284,-1.2200506,-2.1027508,-3.47626,8.122643,4.2631407,0,1683969443.9955244
-0.5394827,0.3884373,0.39002275,-0.07437284,-1.2200506,-2.1027508,-3.5894291,8.048309,4.3100863,0,1683969444.0057971
-0.5394827,0.3884373,0.39002275,-0.029474247,-1.2880094,-1.9886718,-3.5894291,8.048309,4.3100863,0,1683969444.0109384
-0.55558115,0.41697556,0.38886416,-0.029474247,-1.2880094,-1.9886718,-3.5894291,8.048309,4.3100863,0,1683969444.0160766
-0.5688137,0.4551485,0.38532734,-0.029474247,-1.2880094,-1.9886718,-3.5894291,8.048309,4.3100863,0,1683969444.0468566
-0.5688137,0.4551485,0.38532734,-0.029474247,-1.2880094,-1.9886718,-3.6903307,7.977271,4.3566856,0,1683969444.0571313
-0.5688137,0.4551485,0.38532734,-0.0013744468,-1.3745996,-1.9124664,-3.6903307,7.977271,4.3566856,0,1683969444.067364
-0.5688137,0.4551485,0.38532734,-0.012370021,-1.4213307,-1.8880317,-3.6903307,7.977271,4.3566856,0,1683969444.087861
-0.5688137,0.4551485,0.38532734,-0.012370021,-1.4213307,-1.8880317,-3.7822585,7.90741,4.4049397,0,1683969444.0981376
-0.58790016,0.47057623,0.38422972,-0.012370021,-1.4213307,-1.8880317,-3.7822585,7.90741,4.4049397,0,1683969444.1032436
-0.58790016,0.47057623,0.38422972,-0.012370021,-1.4213307,-1.8880317,-3.8680713,7.836066,4.4576015,0,1683969444.1083467
-0.58790016,0.47057623,0.38422972,-0.05497787,-1.4940237,-1.8683313,-3.8680713,7.836066,4.4576015,0,1683969444.113445
-0.58790016,0.47057623,0.38422972,-0.05497787,-1.4940237,-1.8683313,-4.496484,7.172571,4.9570136,0,1683969444.139108
-0.8890763,0.4723446,0.65509915,-0.05497787,-1.4940237,-1.8683313,-4.496484,7.172571,4.9570136,0,1683969444.144236
-0.8890763,0.4723446,0.65509915,0.45051312,0.655153,1.3264939,-4.496484,7.172571,4.9570136,0,1683969444.154521
-0.8455981,0.45844138,0.6577823,0.45051312,0.655153,1.3264939,-4.496484,7.172571,4.9570136,0,1683969444.1647546
-0.8455981,0.45844138,0.6577823,0.45051312,0.655153,1.3264939,-4.4470725,7.2400265,4.9032316,0,1683969444.1749556
-0.8455981,0.45844138,0.6577823,0.47708577,0.73823065,1.4592043,-4.4470725,7.2400265,4.9032316,0,1683969444.1800385
-0.7833994,0.44594067,0.6358908,0.47708577,0.73823065,1.4592043,-4.4470725,7.2400265,4.9032316,0,1683969444.2159772
-0.7833994,0.44594067,0.6358908,0.47448957,0.84788096,1.5648841,-4.4470725,7.2400265,4.9032316,0,1683969444.2211163
-0.7833994,0.44594067,0.6358908,0.47448957,0.84788096,1.5648841,-4.363263,7.348952,4.8157005,0,1683969444.231348
-0.7279083,0.44447714,0.59991306,0.47448957,0.84788096,1.5648841,-4.363263,7.348952,4.8157005,0,1683969444.2467544
-0.7279083,0.44447714,0.59991306,0.47448957,0.84788096,1.5648841,-4.3024836,7.425433,4.7526493,0,1683969444.2621677
-0.7279083,0.44447714,0.59991306,0.45463645,0.95371336,1.6740762,-4.3024836,7.425433,4.7526493,0,1683969444.267265
-0.7279083,0.44447714,0.59991306,0.45463645,0.95371336,1.6740762,-4.236025,7.5043674,4.68793,0,1683969444.2877064
-0.7279083,0.44447714,0.59991306,0.42730024,1.063211,1.8026633,-4.236025,7.5043674,4.68793,0,1683969444.2928424
-0.6354029,0.46057564,0.57619214,0.42730024,1.063211,1.8026633,-4.236025,7.5043674,4.68793,0,1683969444.3031218
-0.6354029,0.46057564,0.57619214,0.42164972,1.1113166,1.8524488,-4.236025,7.5043674,4.68793,0,1683969444.3133967
-0.57820445,0.4732593,0.56247187,0.42164972,1.1113166,1.8524488,-4.236025,7.5043674,4.68793,0,1683969444.3236637
-0.57820445,0.4732593,0.56247187,0.42164972,1.1113166,1.8524488,-4.1635885,7.5853357,4.6220465,0,1683969444.3338664
-0.49155307,0.48935783,0.5348483,0.42164972,1.1113166,1.8524488,-4.1635885,7.5853357,4.6220465,0,1683969444.3441384
-0.49155307,0.48935783,0.5348483,0.42164972,1.1113166,1.8524488,-4.086843,7.6673822,4.5546756,0,1683969444.3595443
-0.49155307,0.48935783,0.5348483,0.42470407,1.187522,1.8788688,-4.086843,7.6673822,4.5546756,0,1683969444.3697999
-0.44819686,0.47575948,0.49393123,0.42470407,1.187522,1.8788688,-4.086843,7.6673822,4.5546756,0,1683969444.390249
-0.44819686,0.47575948,0.49393123,0.42470407,1.187522,1.8788688,-4.008894,7.748838,4.4855776,0,1683969444.3953476
-0.44819686,0.47575948,0.49393123,0.39370266,1.2890784,1.8526015,-4.008894,7.748838,4.4855776,0,1683969444.4004865
0.2309891,0.71430993,0.28660208,0.39370266,1.2890784,1.8526015,-4.008894,7.748838,4.4855776,0,1683969444.4056242
0.3324584,0.78108215,0.33642206,0.39370266,1.2890784,1.8526015,-4.008894,7.748838,4.4855776,0,1683969444.436421
0.3324584,0.78108215,0.33642206,-0.37659842,0.9860892,2.4767532,-4.008894,7.748838,4.4855776,0,1683969444.4415584
0.3324584,0.78108215,0.33642206,-0.37659842,0.9860892,2.4767532,-1.1804816,8.93791,3.867343,0,1683969444.4466994
0.3324584,0.78108215,0.33642206,-0.30466905,0.84299403,2.4766004,-1.1804816,8.93791,3.867343,0,1683969444.45697
0.3324584,0.78108215,0.33642206,-0.30466905,0.84299403,2.4766004,-1.0011864,8.950635,3.8884308,0,1683969444.4671912
0.47618634,0.8960279,0.41343874,-0.30466905,0.84299403,2.4766004,-1.0011864,8.950635,3.8884308,0,1683969444.4825003
0.59948623,0.9987168,0.48021096,-0.30466905,0.84299403,2.4766004,-1.0011864,8.950635,3.8884308,0,1683969444.497888
0.59948623,0.9987168,0.48021096,-0.30466905,0.84299403,2.4766004,-0.7244241,8.965712,3.9150143,0,1683969444.503028
0.59948623,0.9987168,0.48021096,-0.14004086,0.72341716,2.357329,-0.7244241,8.965712,3.9150143,0,1683969444.508169
0.6592458,1.1087842,0.49191895,-0.14004086,0.72341716,2.357329,-0.7244241,8.965712,3.9150143,0,1683969444.5389204
0.6592458,1.1087842,0.49191895,0.07223482,0.6942484,2.021964,-0.7244241,8.965712,3.9150143,0,1683969444.549205
0.6592458,1.1087842,0.49191895,0.07223482,0.6942484,2.021964,-0.5501175,8.97672,3.918162,0,1683969444.554343
0.6592458,1.1087842,0.49191895,0.11957687,0.816116,1.6910278,-0.5501175,8.97672,3.918162,0,1683969444.5697446
0.6191215,1.1398836,0.43831828,0.11957687,0.816116,1.6910278,-0.5501175,8.97672,3.918162,0,1683969444.585069
0.6191215,1.1398836,0.43831828,0.11957687,0.816116,1.6910278,-0.39913097,8.98867,3.909046,0,1683969444.5902112
0.6191215,1.1398836,0.43831828,-0.10399981,1.1556044,1.3515394,-0.39913097,8.98867,3.909046,0,1683969444.6004484
0.5272259,1.117992,0.34008083,-0.10399981,1.1556044,1.3515394,-0.39913097,8.98867,3.909046,0,1683969444.6209903
0.5272259,1.117992,0.34008083,-0.10399981,1.1556044,1.3515394,-0.28057018,8.99837,3.8970137,0,1683969444.631178
0.5272259,1.117992,0.34008083,-0.10399981,1.1556044,1.3515394,-0.16164073,8.997235,3.906371,0,1683969444.6363142
0.4072189,1.053781,0.22818404,-0.10399981,1.1556044,1.3515394,-0.16164073,8.997235,3.906371,0,1683969444.646546
0.4072189,1.053781,0.22818404,-0.43157628,1.4004086,1.2227995,-0.16164073,8.997235,3.906371,0,1683969444.656811
0.51039565,1.0179253,0.38331506,-0.43157628,1.4004086,1.2227995,-0.16164073,8.997235,3.906371,0,1683969444.6875134
0.51039565,1.0179253,0.38331506,-0.43157628,1.4004086,1.2227995,0.000287683,9.097095,3.6713698,0,1683969444.697757
0.51039565,1.0179253,0.38331506,0.345597,-0.59666264,-1.4288138,0.000287683,9.097095,3.6713698,0,1683969444.7080276
0.471186,0.99011874,0.3506912,0.345597,-0.59666264,-1.4288138,0.000287683,9.097095,3.6713698,0,1683969444.7336526
0.471186,0.99011874,0.3506912,0.345597,-0.59666264,-1.4288138,-0.08725917,9.109585,3.6392276,0,1683969444.738789
0.471186,0.99011874,0.3506912,0.44959682,-0.70280045,-1.4862351,-0.08725917,9.109585,3.6392276,0,1683969444.743926
0.471186,0.99011874,0.3506912,0.5010622,-0.805884,-1.5598444,-0.08725917,9.109585,3.6392276,0,1683969444.7695222
0.43350092,0.9602999,0.31184745,0.5010622,-0.805884,-1.5598444,-0.08725917,9.109585,3.6392276,0,1683969444.7746673
0.43350092,0.9602999,0.31184745,0.5010622,-0.805884,-1.5598444,-0.17695604,9.123785,3.6001863,0,1683969444.779765
0.43350092,0.9602999,0.31184745,0.5010622,-0.805884,-1.5598444,-0.2694736,9.1376915,3.5589447,0,1683969444.8002548
0.43350092,0.9602999,0.31184745,0.4822781,-0.8529206,-1.6244434,-0.2694736,9.1376915,3.5589447,0,1683969444.8053916
0.41618282,0.9451161,0.28123593,0.4822781,-0.8529206,-1.6244434,-0.2694736,9.1376915,3.5589447,0,1683969444.8156512
0.39630362,0.93005425,0.26763758,0.4822781,-0.8529206,-1.6244434,-0.2694736,9.1376915,3.5589447,0,1683969444.8464518
0.39630362,0.93005425,0.26763758,0.4822781,-0.8529206,-1.6244434,-0.317322,9.143915,3.5389605,0,1683969444.8515494
0.39630362,0.93005425,0.26763758,0.42302418,-0.88071495,-1.7001907,-0.317322,9.143915,3.5389605,0,1683969444.856693
0.3744121,0.9081627,0.26416174,0.42302418,-0.88071495,-1.7001907,-0.317322,9.143915,3.5389605,0,1683969444.8721104
0.3744121,0.9081627,0.26416174,0.36713,-0.89369583,-1.7602082,-0.317322,9.143915,3.5389605,0,1683969444.887461
0.3744121,0.9081627,0.26416174,0.36713,-0.89369583,-1.7602082,-0.46951243,9.157278,3.48711,0,1683969444.8925612
0.3744121,0.9081627,0.26416174,0.26374108,-0.8923214,-1.8522961,-0.46951243,9.157278,3.48711,0,1683969444.9079576
0.33593425,0.86547726,0.26355198,0.26374108,-0.8923214,-1.8522961,-0.46951243,9.157278,3.48711,0,1683969444.9131
0.33593425,0.86547726,0.26355198,0.26374108,-0.8923214,-1.8522961,-0.57938486,9.16069,3.4615295,0,1683969444.9182367
0.30459094,0.84273213,0.2775162,0.26374108,-0.8923214,-1.8522961,-0.57938486,9.16069,3.4615295,0,1683969444.9336123
0.30459094,0.84273213,0.2775162,0.17134771,-0.8872818,-1.9553796,-0.57938486,9.16069,3.4615295,0,1683969444.9387581
0.30459094,0.84273213,0.2775162,0.17134771,-0.8872818,-1.9553796,-0.7565037,9.156453,3.4384863,0,1683969444.9541504
-0.7250423,0.5177741,0.5401535,0.17134771,-0.8872818,-1.9553796,-0.7565037,9.156453,3.4384863,0,1683969444.9695277
-0.7250423,0.5177741,0.5401535,-0.29886582,-1.8208365,-1.4802792,-0.7565037,9.156453,3.4384863,0,1683969444.9746656
-0.7250423,0.5177741,0.5401535,-0.29886582,-1.8208365,-1.4802792,-4.0410757,7.5681615,4.756969,0,1683969444.9849048
-0.77955765,0.5110054,0.57619214,-0.29886582,-1.8208365,-1.4802792,-4.0410757,7.5681615,4.756969,0,1683969445.0105245
-0.77955765,0.5110054,0.57619214,-0.33567044,-1.7238617,-1.3857478,-4.0410757,7.5681615,4.756969,0,1683969445.0156686
-0.77955765,0.5110054,0.57619214,-0.33567044,-1.7238617,-1.3857478,-4.0854445,7.4582357,4.8908057,0,1683969445.025947
-0.83846354,0.50716376,0.61125517,-0.33567044,-1.7238617,-1.3857478,-4.0854445,7.4582357,4.8908057,0,1683969445.036235
-0.83846354,0.50716376,0.61125517,-0.410196,-1.5409076,-1.2296717,-4.0854445,7.4582357,4.8908057,0,1683969445.0515587
-0.83846354,0.50716376,0.61125517,-0.410196,-1.5409076,-1.2296717,-4.1100626,7.3862395,4.9786525,0,1683969445.0566993
-0.87627065,0.53131145,0.6313173,-0.410196,-1.5409076,-1.2296717,-4.1100626,7.3862395,4.9786525,0,1683969445.066976
-0.87627065,0.53131145,0.6313173,-0.4784602,-1.3762794,-1.0905472,-4.1100626,7.3862395,4.9786525,0,1683969445.0772011
-0.87627065,0.53131145,0.6313173,-0.4784602,-1.3762794,-1.0905472,-4.130845,7.315424,5.0652537,0,1683969445.0823452
-0.87627065,0.53131145,0.6313173,-0.5580254,-1.1749994,-0.93218035,-4.130845,7.315424,5.0652537,0,1683969445.1028872
-0.87627065,0.53131145,0.6313173,-0.5580254,-1.1749994,-0.93218035,-4.148067,7.246318,5.149808,0,1683969445.1079912
-0.9283469,0.5758263,0.6599165,-0.5580254,-1.1749994,-0.93218035,-4.148067,7.246318,5.149808,0,1683969445.1284618
-0.9283469,0.5758263,0.6599165,-0.59483004,-1.0778717,-0.84497935,-4.148067,7.246318,5.149808,0,1683969445.1387355
-0.9283469,0.5758263,0.6599165,-0.59483004,-1.0778717,-0.84497935,-4.162837,7.178775,5.231835,0,1683969445.1438732
-0.95151895,0.59857154,0.6810154,-0.59483004,-1.0778717,-0.84497935,-4.162837,7.178775,5.231835,0,1683969445.154139
-0.95151895,0.59857154,0.6810154,-0.6062838,-0.9450085,-0.7286095,-4.162837,7.178775,5.231835,0,1683969445.1746054
-0.9919481,0.63009775,0.7218714,-0.6062838,-0.9450085,-0.7286095,-4.162837,7.178775,5.231835,0,1683969445.1951473
-0.9919481,0.63009775,0.7218714,-0.6062838,-0.9450085,-0.7286095,-4.1799045,7.0809627,5.350184,0,1683969445.2054162
-1.0337188,0.6422326,0.75211704,-0.6062838,-0.9450085,-0.7286095,-4.1799045,7.0809627,5.350184,0,1683969445.2259626
-1.0337188,0.6422326,0.75211704,-0.6062838,-0.9450085,-0.7286095,-4.187992,7.019683,5.424102,0,1683969445.231106
-1.0337188,0.6422326,0.75211704,0.9014844,1.0670289,2.4384212,-4.187992,7.019683,5.424102,0,1683969445.2465065
-0.33495858,0.4374036,0.5087492,0.9014844,1.0670289,2.4384212,-4.187992,7.019683,5.424102,0,1683969445.2516437
-0.33495858,0.4374036,0.5087492,0.9014844,1.0670289,2.4384212,-2.59934,8.013432,5.026376,0,1683969445.2619193
-0.33495858,0.4374036,0.5087492,0.9014844,1.0670289,2.4384212,-2.4740708,8.105522,4.9412155,0,1683969445.292668
-0.2970905,0.43154958,0.4726495,0.9014844,1.0670289,2.4384212,-2.4740708,8.105522,4.9412155,0,1683969445.302937
-0.2970905,0.43154958,0.4726495,0.84406304,1.1417072,2.504853,-2.4740708,8.105522,4.9412155,0,1683969445.3080738
-0.24269708,0.43014705,0.45411184,0.84406304,1.1417072,2.504853,-2.4740708,8.105522,4.9412155,0,1683969445.3233755
-0.24269708,0.43014705,0.45411184,0.7855727,1.1980594,2.5883887,-2.4740708,8.105522,4.9412155,0,1683969445.3386602
-0.24269708,0.43014705,0.45411184,0.7855727,1.1980594,2.5883887,-2.3435652,8.193352,4.859301,0,1683969445.343746
-0.24269708,0.43014705,0.45411184,0.7281514,1.2582297,2.673299,-2.3435652,8.193352,4.859301,0,1683969445.3488367
-0.16293633,0.438989,0.43130565,0.7281514,1.2582297,2.673299,-2.3435652,8.193352,4.859301,0,1683969445.3591166
-0.16293633,0.438989,0.43130565,0.7281514,1.2582297,2.673299,-2.132707,8.317482,4.744172,0,1683969445.3693674
-0.16293633,0.438989,0.43130565,0.7281514,1.2582297,2.673299,-2.0584576,8.356915,4.7075286,0,1683969445.4001927
-0.110616215,0.45069703,0.42191488,0.7281514,1.2582297,2.673299,-2.0584576,8.356915,4.7075286,0,1683969445.4053311
-0.110616215,0.45069703,0.42191488,0.68600166,1.2959507,2.7021625,-2.0584576,8.356915,4.7075286,0,1683969445.41048
-0.110616215,0.45069703,0.42191488,0.68600166,1.2959507,2.7021625,-1.8302315,8.466571,4.6047325,0,1683969445.420767
-0.03670946,0.4735642,0.39563283,0.68600166,1.2959507,2.7021625,-1.8302315,8.466571,4.6047325,0,1683969445.4310343
-0.03670946,0.4735642,0.39563283,0.5887214,1.413084,2.68628,-1.8302315,8.466571,4.6047325,0,1683969445.4515276
0.012988563,0.47252756,0.35526463,0.5887214,1.413084,2.68628,-1.8302315,8.466571,4.6047325,0,1683969445.4669335
0.012988563,0.47252756,0.35526463,0.39690968,1.6027577,2.6245825,-1.8302315,8.466571,4.6047325,0,1683969445.4720645
0.012988563,0.47252756,0.35526463,0.39690968,1.6027577,2.6245825,-1.6805118,8.530064,4.5442295,0,1683969445.4772036
0.012988563,0.47252756,0.35526463,0.39690968,1.6027577,2.6245825,-1.5384221,8.582864,4.4948673,0,1683969445.497737
0.012988563,0.47252756,0.35526463,0.18936823,1.7617353,2.562885,-1.5384221,8.582864,4.4948673,0,1683969445.502872
0.033416584,0.46899077,0.30648127,0.18936823,1.7617353,2.562885,-1.5384221,8.582864,4.4948673,0,1683969445.5080173
0.83480483,1.0593301,0.4693567,0.18936823,1.7617353,2.562885,-1.5384221,8.582864,4.4948673,0,1683969445.5336907
0.83480483,1.0593301,0.4693567,0.18936823,1.7617353,2.562885,1.0044163,8.557402,4.690218,0,1683969445.53881
0.83480483,1.0593301,0.4693567,-0.32696563,0.40958515,2.206598,1.0044163,8.557402,4.690218,0,1683969445.5438945
0.83480483,1.0593301,0.4693567,-0.13057245,0.2284636,1.9865338,1.0044163,8.557402,4.690218,0,1683969445.564392
0.83480483,1.0593301,0.4693567,-0.13057245,0.2284636,1.9865338,1.1698952,8.522299,4.7157063,0,1683969445.579801
0.8726119,1.1142114,0.49655336,-0.13057245,0.2284636,1.9865338,1.1698952,8.522299,4.7157063,0,1683969445.5849369
0.91499245,1.1743368,0.491797,-0.13057245,0.2284636,1.9865338,1.1698952,8.522299,4.7157063,0,1683969445.5900776
0.91499245,1.1743368,0.491797,0.00045814895,0.15974127,1.7386752,1.1698952,8.522299,4.7157063,0,1683969445.5951984
0.91499245,1.1743368,0.491797,0.00045814895,0.15974127,1.7386752,1.3972303,8.482381,4.7257876,0,1683969445.600336
0.93163973,1.2053142,0.4850283,0.00045814895,0.15974127,1.7386752,1.3972303,8.482381,4.7257876,0,1683969445.6311424
0.93163973,1.2053142,0.4850283,0.02565634,0.18035796,1.6168076,1.3972303,8.482381,4.7257876,0,1683969445.6413713
0.93163973,1.2053142,0.4850283,0.02565634,0.18035796,1.6168076,1.4662216,8.471043,4.7252254,0,1683969445.6515968
0.9965216,1.2746475,0.47746688,0.02565634,0.18035796,1.6168076,1.4662216,8.471043,4.7252254,0,1683969445.6670165
0.9965216,1.2746475,0.47746688,0.02565634,0.18035796,1.6168076,1.5937418,8.449668,4.722204,0,1683969445.6721249
0.9965216,1.2746475,0.47746688,0.047800206,0.20204368,1.4471397,1.5937418,8.449668,4.722204,0,1683969445.6875386
0.9965216,1.2746475,0.47746688,0.047800206,0.20204368,1.4471397,1.7625973,8.420011,4.7151656,0,1683969445.7029443
1.0564641,1.3256261,0.47960114,0.047800206,0.20204368,1.4471397,1.7625973,8.420011,4.7151656,0,1683969445.7132318
1.0564641,1.3256261,0.47960114,0.06505715,0.23441954,1.2421945,1.7625973,8.420011,4.7151656,0,1683969445.7183664
1.0564641,1.3256261,0.47960114,0.055283304,0.29245174,1.0442741,1.7625973,8.420011,4.7151656,0,1683969445.7491233
1.1369566,1.3882517,0.4808817,0.055283304,0.29245174,1.0442741,1.7625973,8.420011,4.7151656,0,1683969445.754259
1.1369566,1.3882517,0.4808817,0.055283304,0.29245174,1.0442741,1.8576392,8.402498,4.709916,0,1683969445.7644928
1.1947038,1.4347788,0.45831943,0.055283304,0.29245174,1.0442741,1.8576392,8.402498,4.709916,0,1683969445.7850227
1.1947038,1.4347788,0.45831943,0.010079277,0.4016439,0.7994699,1.8576392,8.402498,4.709916,0,1683969445.7901528
1.1947038,1.4347788,0.45831943,0.36147952,-1.0983357,-2.6022859,1.8576392,8.402498,4.709916,0,1683969445.8055222
1.1947038,1.4347788,0.45831943,0.36147952,-1.0983357,-2.6022859,-0.11772843,8.703582,4.5243697,0,1683969445.8106637
0.28580934,0.5787533,0.34782517,0.36147952,-1.0983357,-2.6022859,-0.11772843,8.703582,4.5243697,0,1683969445.820867
0.28580934,0.5787533,0.34782517,0.36147952,-1.0983357,-2.6022859,-0.2681384,8.713226,4.499322,0,1683969445.8361304
0.28580934,0.5787533,0.34782517,0.30833423,-1.1678216,-2.6656632,-0.2681384,8.713226,4.499322,0,1683969445.8463159
0.24470939,0.55417866,0.3001395,0.30833423,-1.1678216,-2.6656632,-0.2681384,8.713226,4.499322,0,1683969445.8565345
0.18104716,0.5447269,0.272272,0.30833423,-1.1678216,-2.6656632,-0.2681384,8.713226,4.499322,0,1683969445.8770683
0.18104716,0.5447269,0.272272,0.20234911,-1.1933253,-2.712547,-0.2681384,8.713226,4.499322,0,1683969445.8873074
0.18104716,0.5447269,0.272272,0.20234911,-1.1933253,-2.712547,-0.42161292,8.717916,4.478427,0,1683969445.8924441
0.18104716,0.5447269,0.272272,0.050549097,-1.1751521,-2.7623327,-0.42161292,8.717916,4.478427,0,1683969445.9027107
0.18104716,0.5447269,0.272272,0.050549097,-1.1751521,-2.7623327,-0.65990394,8.710065,4.46491,0,1683969445.9078512
0.13049541,0.5241769,0.24928285,0.050549097,-1.1751521,-2.7623327,-0.65990394,8.710065,4.46491,0,1683969445.9283147
0.13049541,0.5241769,0.24928285,-0.07803804,-1.1479685,-2.786309,-0.65990394,8.710065,4.46491,0,1683969445.9437287
0.08963938,0.49649242,0.24184339,-0.07803804,-1.1479685,-2.786309,-0.65990394,8.710065,4.46491,0,1683969445.964277
0.08963938,0.49649242,0.24184339,-0.07803804,-1.1479685,-2.786309,-0.74198335,8.702329,4.467105,0,1683969445.969414
0.08963938,0.49649242,0.24184339,-0.30604348,-1.0945178,-2.806162,-0.74198335,8.702329,4.467105,0,1683969445.9951077
0.08963938,0.49649242,0.24184339,-0.30604348,-1.0945178,-2.806162,-0.9954856,8.661423,4.4972095,0,1683969446.000208
0.019940188,0.4425258,0.23525764,-0.30604348,-1.0945178,-2.806162,-0.9954856,8.661423,4.4972095,0,1683969446.0053446
-0.03195308,0.38782752,0.2617226,-0.30604348,-1.0945178,-2.806162,-0.9954856,8.661423,4.4972095,0,1683969446.0207531
-0.03195308,0.38782752,0.2617226,-0.30604348,-1.0945178,-2.806162,-1.1684302,8.618539,4.537805,0,1683969446.0258899
-0.03195308,0.38782752,0.2617226,-0.4999932,-1.0751228,-2.7866144,-1.1684302,8.618539,4.537805,0,1683969446.0310285
-0.03195308,0.38782752,0.2617226,-0.5685628,-1.1172725,-2.7537806,-1.1684302,8.618539,4.537805,0,1683969446.056675
-0.03195308,0.38782752,0.2617226,-0.5685628,-1.1172725,-2.7537806,-1.4243324,8.533474,4.62463,0,1683969446.06181
-1.0870147,0.48216227,1.4083749,-0.5685628,-1.1172725,-2.7537806,-1.4243324,8.533474,4.62463,0,1683969446.0669498
-1.0870147,0.48216227,1.4083749,-0.45066583,-0.35735616,-0.22785273,-1.4243324,8.533474,4.62463,0,1683969446.0772207
-1.0870147,0.48216227,1.4083749,-0.45066583,-0.35735616,-0.22785273,-2.7874093,6.4192863,6.8745356,0,1683969446.0874557
-1.0870147,0.48216227,1.4083749,-0.2041817,-0.22571471,-0.022143865,-2.7874093,6.4192863,6.8745356,0,1683969446.1182427
-1.0914661,0.4797841,1.4151436,-0.2041817,-0.22571471,-0.022143865,-2.7874093,6.4192863,6.8745356,0,1683969446.1233494
-1.0914661,0.4797841,1.4151436,-0.2041817,-0.22571471,-0.022143865,-2.7858453,6.3643622,6.9260426,0,1683969446.1336164
-1.0914661,0.4797841,1.4151436,-0.2041817,-0.22571471,-0.022143865,-2.7835543,6.354415,6.9360905,0,1683969446.1438632
-1.0914661,0.4797841,1.4151436,-0.03634648,-0.19074267,0.11759156,-2.7835543,6.354415,6.9360905,0,1683969446.1540987
-1.0996983,0.4681371,1.4092896,-0.03634648,-0.19074267,0.11759156,-2.7835543,6.354415,6.9360905,0,1683969446.1591904
-1.0996983,0.4681371,1.4092896,0.33108896,-0.15592335,0.42821655,-2.7835543,6.354415,6.9360905,0,1683969446.1745882
-1.0959786,0.4413672,1.3778853,0.33108896,-0.15592335,0.42821655,-2.7835543,6.354415,6.9360905,0,1683969446.1848676
-1.0959786,0.4413672,1.3778853,0.33108896,-0.15592335,0.42821655,-2.763987,6.353373,6.9448643,0,1683969446.1900017
-1.0696965,0.44179407,1.3354439,0.33108896,-0.15592335,0.42821655,-2.763987,6.353373,6.9448643,0,1683969446.2105458
-1.0696965,0.44179407,1.3354439,0.49877146,-0.1366811,0.6010914,-2.763987,6.353373,6.9448643,0,1683969446.220776
-1.0696965,0.44179407,1.3354439,0.49877146,-0.1366811,0.6010914,-2.73792,6.378343,6.9322896,0,1683969446.225865
-1.0696965,0.44179407,1.3354439,0.7313584,-0.04795292,0.86666507,-2.73792,6.378343,6.9322896,0,1683969446.256629
-0.9774961,0.4751497,1.2792209,0.7313584,-0.04795292,0.86666507,-2.73792,6.378343,6.9322896,0,1683969446.261764
-0.9774961,0.4751497,1.2792209,0.7313584,-0.04795292,0.86666507,-2.700383,6.422672,6.9060354,0,1683969446.2771642
-0.9774961,0.4751497,1.2792209,0.89827734,0.089186326,1.057255,-2.700383,6.422672,6.9060354,0,1683969446.2976549
-0.9774961,0.4751497,1.2792209,0.89827734,0.089186326,1.057255,-2.6551552,6.4829464,6.8671446,0,1683969446.3027947
-0.89060074,0.50856626,1.2210468,0.89827734,0.089186326,1.057255,-2.6551552,6.4829464,6.8671446,0,1683969446.3079348
-0.89060074,0.50856626,1.2210468,1.0045679,0.20952678,1.1633929,-2.6551552,6.4829464,6.8671446,0,1683969446.3334541
-0.89060074,0.50856626,1.2210468,1.0045679,0.20952678,1.1633929,-2.5816677,6.594694,6.7883077,0,1683969446.3385587
-0.89060074,0.50856626,1.2210468,0.52442783,1.5377005,2.6670377,-2.5816677,6.594694,6.7883077,0,1683969446.3538463
0.06256463,0.3088595,0.18501079,0.52442783,1.5377005,2.6670377,-2.5816677,6.594694,6.7883077,0,1683969446.358975
0.06256463,0.3088595,0.18501079,0.52442783,1.5377005,2.6670377,-0.68387604,8.479198,4.8858595,0,1683969446.3641093
0.06256463,0.3088595,0.18501079,0.17760907,1.577254,2.7844765,-0.68387604,8.479198,4.8858595,0,1683969446.369246
0.06256463,0.3088595,0.18501079,0.17760907,1.577254,2.7844765,-0.46520332,8.532724,4.8179164,0,1683969446.3846595
0.07634591,0.27404037,0.17842504,0.17760907,1.577254,2.7844765,-0.46520332,8.532724,4.8179164,0,1683969446.3948953
0.07634591,0.27404037,0.17842504,0.17760907,1.577254,2.7844765,-0.3082854,8.5486145,4.802319,0,1683969446.405175
0.07634591,0.27404037,0.17842504,-0.06261369,1.6175711,2.9304733,-0.3082854,8.5486145,4.802319,0,1683969446.4205325
0.14433768,0.29959065,0.22037871,-0.06261369,1.6175711,2.9304733,-0.3082854,8.5486145,4.802319,0,1683969446.4256682
0.14433768,0.29959065,0.22037871,-0.24510968,1.6290249,3.0550897,-0.3082854,8.5486145,4.802319,0,1683969446.446219
0.26007617,0.3682532,0.26013714,-0.24510968,1.6290249,3.0550897,-0.3082854,8.5486145,4.802319,0,1683969446.4513206
0.26007617,0.3682532,0.26013714,-0.24510968,1.6290249,3.0550897,-0.051283885,8.546494,4.815698,0,1683969446.4667215
0.26007617,0.3682532,0.26013714,-0.3061962,1.5868752,3.0647109,-0.051283885,8.546494,4.815698,0,1683969446.4872112
0.39057156,0.4616733,0.286785,-0.3061962,1.5868752,3.0647109,-0.051283885,8.546494,4.815698,0,1683969446.4923472
0.39057156,0.4616733,0.286785,-0.3061962,1.5868752,3.0647109,0.13028124,8.532778,4.8384767,0,1683969446.4974794
0.5071027,0.5771678,0.28806558,-0.3061962,1.5868752,3.0647109,0.13028124,8.532778,4.8384767,0,1683969446.512886
0.5071027,0.5771678,0.28806558,-0.3287982,1.5183055,2.8635836,0.13028124,8.532778,4.8384767,0,1683969446.5180244
0.5071027,0.5771678,0.28806558,-0.3287982,1.5183055,2.8635836,0.31101283,8.51289,4.865191,0,1683969446.53339
0.5071027,0.5771678,0.28806558,-0.3287982,1.5183055,2.8635836,0.47819117,8.4886,4.8939886,0,1683969446.5538394
0.5071027,0.5771678,0.28806558,-0.3538437,1.4840971,2.645352,0.47819117,8.4886,4.8939886,0,1683969446.5743842
0.5540567,0.6531479,0.26202747,-0.3538437,1.4840971,2.645352,0.47819117,8.4886,4.8939886,0,1683969446.5794914
0.5540567,0.6531479,0.26202747,-0.5235115,1.4897476,2.258827,0.47819117,8.4886,4.8939886,0,1683969446.6000378
0.4931995,0.64589137,0.18373023,-0.5235115,1.4897476,2.258827,0.47819117,8.4886,4.8939886,0,1683969446.6103106
0.4931995,0.64589137,0.18373023,-0.5235115,1.4897476,2.258827,0.6222879,8.459871,4.9274173,0,1683969446.6154249
1.1364688,1.4494138,0.52429885,-0.5235115,1.4897476,2.258827,0.6222879,8.459871,4.9274173,0,1683969446.6307902
1.1364688,1.4494138,0.52429885,-0.59483004,0.43020186,-0.6973027,0.6222879,8.459871,4.9274173,0,1683969446.635925
1.1364688,1.4494138,0.52429885,-0.59483004,0.43020186,-0.6973027,2.0978773,7.5367317,5.9188433,0,1683969446.6461802
1.0520126,1.3858736,0.53558004,-0.59483004,0.43020186,-0.6973027,2.0978773,7.5367317,5.9188433,0,1683969446.656412
1.0520126,1.3858736,0.53558004,-0.59483004,0.43020186,-0.6973027,2.032512,7.5204506,5.9622016,0,1683969446.6666887
1.0520126,1.3858736,0.53558004,-0.65041876,0.39813143,-0.9256136,2.032512,7.5204506,5.9622016,0,1683969446.6820467
1.0520126,1.3858736,0.53558004,-0.65041876,0.39813143,-0.9256136,1.9547062,7.504477,6.0081663,0,1683969446.692277
0.9813987,1.3195282,0.58088756,-0.65041876,0.39813143,-0.9256136,1.9547062,7.504477,6.0081663,0,1683969446.7025895
0.9813987,1.3195282,0.58088756,-0.6757697,0.3567453,-1.1085677,1.9547062,7.504477,6.0081663,0,1683969446.7077196
0.91615105,1.2581222,0.62570727,-0.6757697,0.3567453,-1.1085677,1.9547062,7.504477,6.0081663,0,1683969446.7333457
0.91615105,1.2581222,0.62570727,-0.6757697,0.3567453,-1.1085677,1.8667243,7.489508,6.0546436,0,1683969446.7436152
0.91615105,1.2581222,0.62570727,-0.64858615,0.31581733,-1.26556,1.8667243,7.489508,6.0546436,0,1683969446.7538502
0.91615105,1.2581222,0.62570727,-0.64858615,0.31581733,-1.26556,1.7709869,7.477954,6.097534,0,1683969446.7795196
0.8330364,1.1776297,0.6515624,-0.64858615,0.31581733,-1.26556,1.7709869,7.477954,6.097534,0,1683969446.7846556
0.8330364,1.1776297,0.6515624,-0.5522222,0.21273382,-1.4388931,1.7709869,7.477954,6.097534,0,1683969446.7949252
0.8330364,1.1776297,0.6515624,-0.41325033,0.07452556,-1.572978,1.7709869,7.477954,6.097534,0,1683969446.8052018
0.7700449,1.1189677,0.66345334,-0.41325033,0.07452556,-1.572978,1.7709869,7.477954,6.097534,0,1683969446.8103356
0.7700449,1.1189677,0.66345334,-0.41325033,0.07452556,-1.572978,1.6709788,7.4716496,6.1333847,0,1683969446.8307495
0.7700449,1.1189677,0.66345334,-0.41325033,0.07452556,-1.572978,1.5186754,7.4734063,6.1707325,0,1683969446.8460276
0.6989432,1.0490856,0.65595293,-0.41325033,0.07452556,-1.572978,1.5186754,7.4734063,6.1707325,0,1683969446.851125
0.6989432,1.0490856,0.65595293,-0.301462,-0.04520403,-1.6681203,1.5186754,7.4734063,6.1707325,0,1683969446.861356
0.6989432,1.0490856,0.65595293,-0.301462,-0.04520403,-1.6681203,1.4174236,7.481555,6.18493,0,1683969446.8818693
0.6989432,1.0490856,0.65595293,-0.18936823,-0.1994475,-1.7741054,1.4174236,7.481555,6.18493,0,1683969446.8921044
-0.2409287,0.35867947,0.48819923,-0.18936823,-0.1994475,-1.7741054,1.4174236,7.481555,6.18493,0,1683969446.9023747
-0.2409287,0.35867947,0.48819923,-0.18936823,-0.1994475,-1.7741054,-1.4050096,7.092701,6.6299067,0,1683969446.9229133
-0.2409287,0.35867947,0.48819923,-0.99067074,-0.91583973,-1.90086,-1.4050096,7.092701,6.6299067,0,1683969446.9280455
-0.2409287,0.35867947,0.48819923,-1.1134546,-0.872621,-1.898111,-1.4050096,7.092701,6.6299067,0,1683969446.9383185
-0.2409287,0.35867947,0.48819923,-1.1134546,-0.872621,-1.898111,-1.4790685,7.001205,6.710559,0,1683969446.9485824
-0.29251707,0.34758124,0.5271649,-1.1134546,-0.872621,-1.898111,-1.4790685,7.001205,6.710559,0,1683969446.9639413
-0.29251707,0.34758124,0.5271649,-1.1134546,-0.872621,-1.898111,-1.5164,6.9521155,6.753128,0,1683969446.9844244
-0.34465426,0.33215353,0.5714358,-1.1134546,-0.872621,-1.898111,-1.5164,6.9521155,6.753128,0,1683969446.9946892
-0.34465426,0.33215353,0.5714358,-1.1357512,-0.8579602,-1.8872682,-1.5164,6.9521155,6.753128,0,1683969446.9998243
-0.34465426,0.33215353,0.5714358,-1.1293371,-0.84039783,-1.7799087,-1.5164,6.9521155,6.753128,0,1683969447.0049644
-0.44917256,0.27843088,0.64503765,-1.1293371,-0.84039783,-1.7799087,-1.5164,6.9521155,6.753128,0,1683969447.0101025
-0.44917256,0.27843088,0.64503765,-1.1293371,-0.84039783,-1.7799087,-1.6259025,6.797526,6.8837624,0,1683969447.0151894
-0.53899485,0.24312395,0.70418745,-1.1293371,-0.84039783,-1.7799087,-1.6259025,6.797526,6.8837624,0,1683969447.0459287
-0.53899485,0.24312395,0.70418745,-1.1293371,-0.84039783,-1.7799087,-1.68992,6.694194,6.969078,0,1683969447.0664694
-0.53899485,0.24312395,0.70418745,-1.0315987,-0.869414,-1.5596917,-1.68992,6.694194,6.969078,0,1683969447.0716083
-0.54923934,0.26532036,0.70022374,-1.0315987,-0.869414,-1.5596917,-1.68992,6.694194,6.969078,0,1683969447.086981
-0.54923934,0.26532036,0.70022374,-1.0315987,-0.869414,-1.5596917,-1.7557751,6.553507,7.0855427,0,1683969447.0921204
-0.54923934,0.26532036,0.70022374,-0.86758137,-0.9787588,-1.2996159,-1.7557751,6.553507,7.0855427,0,1683969447.1075299
-0.5330189,0.29916382,0.6798567,-0.86758137,-0.9787588,-1.2996159,-1.7557751,6.553507,7.0855427,0,1683969447.11779
-0.5330189,0.29916382,0.6798567,-0.86758137,-0.9787588,-1.2996159,-1.7746376,6.4733953,7.154154,0,1683969447.128058
-0.5330189,0.29916382,0.6798567,-0.72616607,-1.14018,-1.0919216,-1.7746376,6.4733953,7.154154,0,1683969447.1383243
-0.5069198,0.3605698,0.6449767,-0.72616607,-1.14018,-1.0919216,-1.7746376,6.4733953,7.154154,0,1683969447.1639826
-0.5069198,0.3605698,0.6449767,-0.72616607,-1.14018,-1.0919216,-1.7735068,6.403388,7.21716,0,1683969447.16912
-0.5069198,0.3605698,0.6449767,0.46792278,0.4813618,1.4117095,-1.7735068,6.403388,7.21716,0,1683969447.184509
-0.16982698,0.5878392,0.97420317,0.46792278,0.4813618,1.4117095,-1.7735068,6.403388,7.21716,0,1683969447.1896498
-0.16982698,0.5878392,0.97420317,0.46792278,0.4813618,1.4117095,-1.0772533,5.2602863,8.210056,0,1683969447.1999197
-0.16982698,0.5878392,0.97420317,0.50885075,0.45204028,1.38025,-1.0772533,5.2602863,8.210056,0,1683969447.2203846
-0.14189851,0.5794241,0.907553,0.50885075,0.45204028,1.38025,-1.0772533,5.2602863,8.210056,0,1683969447.2255192
-0.14189851,0.5794241,0.907553,0.50885075,0.45204028,1.38025,-1.0458432,5.3092265,8.182569,0,1683969447.235747
-0.13275166,0.55558115,0.8761487,0.50885075,0.45204028,1.38025,-1.0458432,5.3092265,8.182569,0,1683969447.256139
-0.13275166,0.55558115,0.8761487,0.50885075,0.45204028,1.38025,-1.0135806,5.3593946,8.153873,0,1683969447.2612782
-0.13275166,0.55558115,0.8761487,0.4990769,0.48380527,1.3593279,-1.0135806,5.3593946,8.153873,0,1683969447.2715354
-0.12726352,0.5376533,0.86267227,0.4990769,0.48380527,1.3593279,-1.0135806,5.3593946,8.153873,0,1683969447.2920744
-0.12726352,0.5376533,0.86267227,0.4990769,0.48380527,1.3593279,-0.9839575,5.4079514,8.125392,0,1683969447.2972102
-0.12726352,0.5376533,0.86267227,0.47662762,0.5352707,1.3639094,-0.9839575,5.4079514,8.125392,0,1683969447.3074749
-0.12726352,0.5376533,0.86267227,0.47662762,0.5352707,1.3639094,-0.9591222,5.453253,8.098039,0,1683969447.3331904
-0.12726352,0.5376533,0.86267227,0.42302418,0.6565274,1.3886495,-0.9591222,5.453253,8.098039,0,1683969447.338337
-0.11366516,0.52350616,0.8197429,0.42302418,0.6565274,1.3886495,-0.9591222,5.453253,8.098039,0,1683969447.3434665
-0.11366516,0.52350616,0.8197429,0.3733914,0.7200574,1.4184291,-0.9591222,5.453253,8.098039,0,1683969447.3486028
-0.08695629,0.5248477,0.77967966,0.3733914,0.7200574,1.4184291,-0.9591222,5.453253,8.098039,0,1683969447.3588696
-0.08695629,0.5248477,0.77967966,0.3733914,0.7200574,1.4184291,-0.92937857,5.5156293,8.059169,0,1683969447.3691368
-0.08695629,0.5248477,0.77967966,0.32162055,0.7516697,1.43141,-0.92937857,5.5156293,8.059169,0,1683969447.3844671
-0.08695629,0.5248477,0.77967966,0.32162055,0.7516697,1.43141,-0.91022646,5.5539517,8.035,0,1683969447.3998797
-0.03597771,0.5422877,0.75229996,0.32162055,0.7516697,1.43141,-0.91022646,5.5539517,8.035,0,1683969447.4101553
-0.03597771,0.5422877,0.75229996,0.27137688,0.7866417,1.40667,-0.91022646,5.5539517,8.035,0,1683969447.4203517
-0.0041465834,0.5471661,0.740409,0.27137688,0.7866417,1.40667,-0.91022646,5.5539517,8.035,0,1683969447.4306238
-0.0041465834,0.5471661,0.740409,0.27137688,0.7866417,1.40667,-0.89112973,5.589299,8.012598,0,1683969447.4460254
-0.0041465834,0.5471661,0.740409,0.27137688,0.7866417,1.40667,-0.9014928,5.5859528,8.013773,0,1683969447.4562814
0.17165637,0.65644073,0.7227251,0.27137688,0.7866417,1.40667,-0.9014928,5.5859528,8.013773,0,1683969447.4614146
0.17165637,0.65644073,0.7227251,-0.49449542,0.8051204,0.7678576,-0.9014928,5.5859528,8.013773,0,1683969447.4665487
0.17165637,0.65644073,0.7227251,-0.4810564,0.7483099,0.65836,-0.9014928,5.5859528,8.013773,0,1683969447.4973552
0.1835473,0.67888105,0.75181216,-0.4810564,0.7483099,0.65836,-0.9014928,5.5859528,8.013773,0,1683969447.5024915
0.1835473,0.67888105,0.75181216,-0.4810564,0.7483099,0.65836,-0.9143537,5.5594583,8.030722,0,1683969447.5127609
0.1835473,0.67888105,0.75181216,-0.45448375,0.71883565,0.5757405,-0.9143537,5.5594583,8.030722,0,1683969447.5332725
0.18043736,0.6799177,0.7706547,-0.45448375,0.71883565,0.5757405,-0.9143537,5.5594583,8.030722,0,1683969447.5434778
0.18043736,0.6799177,0.7706547,-0.45448375,0.71883565,0.5757405,-0.92142886,5.5462112,8.039068,0,1683969447.5486026
0.18043736,0.6799177,0.7706547,-0.3895793,0.68691796,0.44822237,-0.92142886,5.5462112,8.039068,0,1683969447.5588703
0.18043736,0.6799177,0.7706547,-0.3895793,0.68691796,0.44822237,-0.9475339,5.508214,8.062125,0,1683969447.569148
0.14299615,0.66253865,0.8116327,-0.3895793,0.68691796,0.44822237,-0.9475339,5.508214,8.062125,0,1683969447.589692
0.14299615,0.66253865,0.8116327,-0.3895793,0.68691796,0.44822237,-0.9829601,5.4755006,8.080148,0,1683969447.599964
0.14299615,0.66253865,0.8116327,-0.3472769,0.6930266,0.35934147,-0.9829601,5.4755006,8.080148,0,1683969447.6050985
0.10543298,0.63826895,0.81242543,-0.3472769,0.6930266,0.35934147,-0.9829601,5.4755006,8.080148,0,1683969447.6153324
0.069028415,0.62308514,0.7909608,-0.3472769,0.6930266,0.35934147,-0.9829601,5.4755006,8.080148,0,1683969447.6409898
0.069028415,0.62308514,0.7909608,-0.36560285,0.72341716,0.3200934,-0.9829601,5.4755006,8.080148,0,1683969447.6461241
0.069028415,0.62308514,0.7909608,-0.36560285,0.72341716,0.3200934,-1.0127939,5.454678,8.090541,0,1683969447.6511889
0.028782167,0.611682,0.7612639,-0.36560285,0.72341716,0.3200934,-1.0127939,5.454678,8.090541,0,1683969447.6666632
0.028782167,0.611682,0.7612639,-0.40225476,0.70829827,0.32482758,-1.0127939,5.454678,8.090541,0,1683969447.6820796
0.028782167,0.611682,0.7612639,-0.40225476,0.70829827,0.32482758,-1.0459723,5.43243,8.101281,0,1683969447.6923378
0.028782167,0.611682,0.7612639,-0.40225476,0.70829827,0.32482758,-1.0782856,5.407741,8.113553,0,1683969447.7180135
0.028782167,0.611682,0.7612639,-0.43768495,0.65286225,0.34804046,-1.0782856,5.407741,8.113553,0,1683969447.728287
0.028782167,0.611682,0.7612639,-0.28848112,-0.0355829,0.10567969,-1.0782856,5.407741,8.113553,0,1683969447.74372
0.028782167,0.611682,0.7612639,-0.28848112,-0.0355829,0.10567969,-1.660751,4.954685,8.302356,0,1683969447.7488272
-0.15000875,0.5257014,0.787546,-0.28848112,-0.0355829,0.10567969,-1.660751,4.954685,8.302356,0,1683969447.7539277
-0.15000875,0.5257014,0.787546,-0.18799378,-0.24236079,0.1049161,-1.660751,4.954685,8.302356,0,1683969447.769309
-0.16061912,0.51856685,0.8276703,-0.18799378,-0.24236079,0.1049161,-1.660751,4.954685,8.302356,0,1683969447.7795706
-0.16061912,0.51856685,0.8276703,-0.18799378,-0.24236079,0.1049161,-1.6514391,4.9362125,8.315207,0,1683969447.800103
-0.16061912,0.51856685,0.8276703,-0.18799378,-0.24236079,0.1049161,-1.6276834,4.9244823,8.326838,0,1683969447.8154945
-0.17659567,0.5036879,0.86877024,-0.18799378,-0.24236079,0.1049161,-1.6276834,4.9244823,8.326838,0,1683969447.8257768
-0.17659567,0.5036879,0.86877024,-0.06612616,-0.37125334,0.14278975,-1.6276834,4.9244823,8.326838,0,1683969447.8309045
-0.1791568,0.49698022,0.8901129,-0.06612616,-0.37125334,0.14278975,-1.6276834,4.9244823,8.326838,0,1683969447.8463275
-0.1791568,0.49698022,0.8901129,-0.06612616,-0.37125334,0.14278975,-1.5947261,4.920052,8.33583,0,1683969447.8669207
-0.1791568,0.49698022,0.8901129,0.0071776668,-0.40378192,0.18600847,-1.5947261,4.920052,8.33583,0,1683969447.8720272
-0.1548261,0.51448125,0.8960279,0.0071776668,-0.40378192,0.18600847,-1.5947261,4.920052,8.33583,0,1683969447.892481
-0.1548261,0.51448125,0.8960279,0.07284568,-0.37598756,0.22770002,-1.5947261,4.920052,8.33583,0,1683969447.8976247
-0.1548261,0.51448125,0.8960279,0.07284568,-0.37598756,0.22770002,-1.5369369,4.9247365,8.343915,0,1683969447.9078965
-0.12945877,0.54741,0.8863932,0.07284568,-0.37598756,0.22770002,-1.5369369,4.9247365,8.343915,0,1683969447.918168
-0.12945877,0.54741,0.8863932,0.08857546,-0.31948254,0.22021692,-1.5369369,4.9247365,8.343915,0,1683969447.9283996
-0.12945877,0.54741,0.8863932,0.08857546,-0.31948254,0.22021692,-1.4983816,4.9334073,8.345804,0,1683969447.9386797
-0.10317675,0.573692,0.8966377,0.08857546,-0.31948254,0.22021692,-1.4983816,4.9334073,8.345804,0,1683969447.964327
-0.10317675,0.573692,0.8966377,0.08857546,-0.31948254,0.22021692,-1.464308,4.943483,8.34589,0,1683969447.9745865
-0.10317675,0.573692,0.8966377,0.07345655,-0.22021692,0.19043724,-1.464308,4.943483,8.34589,0,1683969447.9797301
-0.10317675,0.573692,0.8966377,0.032528576,-0.032986723,0.112399206,-1.464308,4.943483,8.34589,0,1683969447.9951248
-0.070735835,0.594181,0.9199927,0.032528576,-0.032986723,0.112399206,-1.464308,4.943483,8.34589,0,1683969448.0002255
-0.15409435,0.5615572,0.8014492,0.032528576,-0.032986723,0.112399206,-1.464308,4.943483,8.34589,0,1683969448.0156257
-0.15409435,0.5615572,0.8014492,0.032528576,-0.032986723,0.112399206,-1.5559555,4.9738064,8.311219,0,1683969448.0258896
-0.15409435,0.5615572,0.8014492,0.00030543262,0.05375614,0.0983493,-1.5559555,4.9738064,8.311219,0,1683969448.03103
-0.15458219,0.5538128,0.80102235,0.00030543262,0.05375614,0.0983493,-1.5559555,4.9738064,8.311219,0,1683969448.0566883
-0.15458219,0.5538128,0.80102235,0.00030543262,0.05375614,0.0983493,-1.5547628,4.978327,8.308736,0,1683969448.0669532
-0.15458219,0.5538128,0.80102235,0.004276057,0.024281893,0.08750644,-1.5547628,4.978327,8.308736,0,1683969448.0720913
-0.15458219,0.5538128,0.80102235,0.004276057,0.024281893,0.08750644,-1.5536842,4.9797344,8.308093,0,1683969448.0874834
-0.15458219,0.5538128,0.80102235,0.0030543262,0.019394971,0.08155051,-1.5536842,4.9797344,8.308093,0,1683969448.0926278
-0.15171617,0.5499711,0.8068154,0.0030543262,0.019394971,0.08155051,-1.5536842,4.9797344,8.308093,0,1683969448.0977678
-0.15171617,0.5499711,0.8068154,-0.01038471,0.03145956,0.075289145,-1.5536842,4.9797344,8.308093,0,1683969448.1233418
-0.13952033,0.5528981,0.8088277,-0.01038471,0.03145956,0.075289145,-1.5536842,4.9797344,8.308093,0,1683969448.1284788
-0.13952033,0.5528981,0.8088277,-0.01038471,0.03145956,0.075289145,-1.5513287,4.9822865,8.307004,0,1683969448.133613
-0.13952033,0.5528981,0.8088277,-0.01038471,0.03145956,0.075289145,-1.5494804,4.984147,8.306232,0,1683969448.1541214
-0.12689765,0.55393475,0.81571835,-0.01038471,0.03145956,0.075289145,-1.5494804,4.984147,8.306232,0,1683969448.159171
-0.12689765,0.55393475,0.81571835,-0.027488936,0.05467244,0.053145275,-1.5494804,4.984147,8.306232,0,1683969448.1745334
-0.12445848,0.5471661,0.8171818,-0.027488936,0.05467244,0.053145275,-1.5494804,4.984147,8.306232,0,1683969448.1847696
-0.12445848,0.5471661,0.8171818,-0.027488936,0.05467244,0.053145275,-1.5509975,4.9835668,8.306297,0,1683969448.1950052
-0.12445848,0.5471661,0.8171818,-0.051923547,0.07880162,0.022296581,-1.5509975,4.9835668,8.306297,0,1683969448.2155218
-0.12104365,0.5443001,0.8230359,-0.051923547,0.07880162,0.022296581,-1.5509975,4.9835668,8.306297,0,1683969448.2411952
-0.12104365,0.5443001,0.8230359,-0.072540246,0.08475755,-0.004581489,-1.5509975,4.9835668,8.306297,0,1683969448.2463348
-0.12104365,0.5443001,0.8230359,-0.072540246,0.08475755,-0.004581489,-1.5575273,4.9790454,8.307787,0,1683969448.251462
-0.12104365,0.5443001,0.8230359,-0.072540246,0.08475755,-0.004581489,-1.5634282,4.974151,8.30961,0,1683969448.2719634
-0.12653178,0.53850704,0.8379757,-0.072540246,0.08475755,-0.004581489,-1.5634282,4.974151,8.30961,0,1683969448.2821772
-0.14159364,0.523933,0.83071923,-0.072540246,0.08475755,-0.004581489,-1.5634282,4.974151,8.30961,0,1683969448.2975354
-0.14159364,0.523933,0.83071923,-0.034513887,0.015271631,0.03863723,-1.5634282,4.974151,8.30961,0,1683969448.3078043
-0.14159364,0.523933,0.83071923,-0.034513887,0.015271631,0.03863723,-1.6070672,4.9354444,8.324352,0,1683969448.312945
-0.14159364,0.523933,0.83071923,-0.024740042,0.016493361,0.037415497,-1.6070672,4.9354444,8.324352,0,1683969448.3436918
-0.14013013,0.52149385,0.82730436,-0.024740042,0.016493361,0.037415497,-1.6070672,4.9354444,8.324352,0,1683969448.348829
-0.14013013,0.52149385,0.82730436,-0.024740042,0.016493361,0.037415497,-1.6062589,4.934141,8.325281,0,1683969448.3539686
-0.14391084,0.51905465,0.8190721,-0.024740042,0.016493361,0.037415497,-1.6062589,4.934141,8.325281,0,1683969448.3642142
-0.14391084,0.51905465,0.8190721,-0.024740042,0.016493361,0.037415497,-1.6053693,4.9333982,8.3258915,0,1683969448.3744724
-0.14391084,0.51905465,0.8190721,-0.01863139,0.019089539,0.033750303,-1.6053693,4.9333982,8.3258915,0,1683969448.38984
-0.14391084,0.51905465,0.8190721,-0.00870483,0.014202617,0.024129177,-1.6053693,4.9333982,8.3258915,0,1683969448.4102602
-0.14628904,0.52429885,0.8045591,-0.00870483,0.014202617,0.024129177,-1.6053693,4.9333982,8.3258915,0,1683969448.415355
-0.14628904,0.52429885,0.8045591,-0.00870483,0.014202617,0.024129177,-1.6049387,4.9336643,8.325817,0,1683969448.4204953
-0.14628904,0.52429885,0.8045591,-0.015882496,0.01038471,0.013133603,-1.6049387,4.9336643,8.325817,0,1683969448.4307702
-0.15494807,0.5266161,0.7908998,-0.015882496,0.01038471,0.013133603,-1.6049387,4.9336643,8.325817,0,1683969448.4461758
-0.15494807,0.5266161,0.7908998,-0.015882496,0.01038471,0.013133603,-1.6051749,4.934302,8.325395,0,1683969448.461524
-0.15494807,0.5266161,0.7908998,-0.034208454,-0.004581489,0.00580322,-1.6051749,4.934302,8.325395,0,1683969448.4820616
-0.1642169,0.5241769,0.7918145,-0.034208454,-0.004581489,0.00580322,-1.6051749,4.934302,8.325395,0,1683969448.4871922
-0.1642169,0.5241769,0.7918145,-0.034208454,-0.004581489,0.00580322,-1.605271,4.933937,8.325592,0,1683969448.4974601
-0.1642169,0.5241769,0.7918145,-0.04520403,-0.0009162979,0.012980887,-1.605271,4.933937,8.325592,0,1683969448.5077224
-0.17598589,0.5130787,0.799071,-0.04520403,-0.0009162979,0.012980887,-1.605271,4.933937,8.325592,0,1683969448.523144
-0.17598589,0.5130787,0.799071,-0.04520403,-0.0009162979,0.012980887,-1.6051799,4.9321265,8.326682,0,1683969448.5282733
-0.17598589,0.5130787,0.799071,-0.04520403,-0.0009162979,0.012980887,-1.604882,4.92948,8.328306,0,1683969448.5437324
-0.13988622,0.5245428,0.860721,-0.04520403,-0.0009162979,0.012980887,-1.604882,4.92948,8.328306,0,1683969448.5642786
-0.13988622,0.5245428,0.860721,-0.0627664,0.0786489,0.0027488936,-1.604882,4.92948,8.328306,0,1683969448.584794
-0.13988622,0.5245428,0.860721,-0.0627664,0.0786489,0.0027488936,-1.5903584,4.7881184,8.413132,0,1683969448.5950577
-0.13988622,0.5245428,0.860721,-0.059253927,0.084910266,0.008857546,-1.5903584,4.7881184,8.413132,0,1683969448.6053317
-0.14421573,0.5216158,0.8510253,-0.059253927,0.084910266,0.008857546,-1.5903584,4.7881184,8.413132,0,1683969448.6258814
-0.14421573,0.5216158,0.8510253,-0.059253927,0.084910266,0.008857546,-1.5931089,4.786126,8.413746,0,1683969448.6310232
-0.14421573,0.5216158,0.8510253,-0.04444045,0.07391469,0.013897184,-1.5931089,4.786126,8.413746,0,1683969448.6361315
-0.14897211,0.51813996,0.8374269,-0.04444045,0.07391469,0.013897184,-1.5931089,4.786126,8.413746,0,1683969448.6412568
-0.14897211,0.51813996,0.8374269,-0.04444045,0.07391469,0.013897184,-1.5986587,4.782704,8.4146385,0,1683969448.6515164
-0.14897211,0.51813996,0.8374269,-0.033292156,0.03970624,0.031154128,-1.5986587,4.782704,8.4146385,0,1683969448.672044
-0.14897211,0.51813996,0.8374269,-0.033292156,0.03970624,0.031154128,-1.604828,4.7795067,8.415281,0,1683969448.6823196
-0.15378946,0.51472515,0.82870686,-0.033292156,0.03970624,0.031154128,-1.604828,4.7795067,8.415281,0,1683969448.692586
-0.15378946,0.51472515,0.82870686,-0.014813482,0.004276057,0.038789943,-1.604828,4.7795067,8.415281,0,1683969448.707956
