acc_x,acc_y,acc_z,gyr_x,gyr_y,gyr_z,grav_x,grav_y,grav_z,label,timestamp
-0.10183521,0.22848894,0.9711542,-0.3191771,-1.9297233,-1.6201674,0.7946381,7.0488057,6.7763553,0,1683969459.8192222
-0.112140685,0.31190842,1.0221938,-0.3912592,-1.9014708,-1.5071573,0.82814777,7.0075636,6.8150086,0,1683969459.8424957
-0.112140685,0.31190842,1.0221938,-0.33108896,-2.1374176,-1.3422236,0.82814777,7.0075636,6.8150086,0,1683969459.8477082
-0.112140685,0.31190842,1.0221938,-0.22403483,-2.3435845,-1.255328,0.873492,6.989857,6.8275194,0,1683969459.8580825
-0.06646729,0.3621553,1.0959786,-0.22403483,-2.3435845,-1.255328,0.873492,6.989857,6.8275194,0,1683969459.8632872
-0.06646729,0.3621553,1.0959786,-0.22403483,-2.3435845,-1.255328,0.94321555,6.9819646,6.8263183,0,1683969459.868489
0.028782167,0.46392953,1.3015394,0.030390546,-2.5868616,-1.1757629,0.94321555,6.9819646,6.8263183,0,1683969459.868505
0.028782167,0.46392953,1.3015394,-0.20799962,0.44684792,-0.66706485,1.1087273,7.0535893,6.7270875,0,1683969459.874151
0.063540295,0.54125106,1.6119843,-0.20799962,0.44684792,-0.66706485,1.1087273,7.0535893,6.7270875,0,1683969459.8741663
0.063540295,0.54125106,1.6119843,-0.20799962,0.44684792,-0.66706485,1.0333749,7.0382843,6.7550573,0,1683969459.944294
0.063540295,0.54125106,1.6119843,-0.21059579,0.7296785,-0.54534996,1.0333749,7.0382843,6.7550573,0,1683969459.9596744
0.0705529,0.53490925,1.5955808,-0.21059579,0.7296785,-0.54534996,1.0333749,7.0382843,6.7550573,0,1683969459.9647675
0.06646729,0.5214329,1.6135088,-0.21059579,0.7296785,-0.54534996,1.0333749,7.0382843,6.7550573,0,1683969459.9852786
0.06646729,0.5214329,1.6135088,-0.07269296,0.90178984,-0.44165558,1.0333749,7.0382843,6.7550573,0,1683969459.9955413
0.06646729,0.5214329,1.6135088,-0.07269296,0.90178984,-0.44165558,0.9512435,7.023411,6.7825465,0,1683969460.0057964
0.06646729,0.5214329,1.6135088,0.07238753,0.96944314,-0.39477167,0.9512435,7.023411,6.7825465,0,1683969460.010926
0.06061329,0.5069198,1.6193018,0.07238753,0.96944314,-0.39477167,0.9512435,7.023411,6.7825465,0,1683969460.0211892
0.06061329,0.5069198,1.6193018,0.07238753,0.96944314,-0.39477167,0.8661117,7.0152206,6.8024,0,1683969460.036573
0.06061329,0.5069198,1.6193018,0.07238753,0.96944314,-0.39477167,0.7797505,7.0190253,6.8089194,0,1683969460.046813
0.06061329,0.5069198,1.6193018,0.39920044,1.0053315,-0.36010507,0.7797505,7.0190253,6.8089194,0,1683969460.051946
0.07390675,0.49338245,1.6082646,0.39920044,1.0053315,-0.36010507,0.7797505,7.0190253,6.8089194,0,1683969460.0724254
0.07390675,0.49338245,1.6082646,0.83077675,0.98899084,-0.38331795,0.7797505,7.0190253,6.8089194,0,1683969460.0980783
0.06982114,0.4818574,1.6319855,0.83077675,0.98899084,-0.38331795,0.7797505,7.0190253,6.8089194,0,1683969460.103199
0.06982114,0.4818574,1.6319855,0.83077675,0.98899084,-0.38331795,0.6511369,7.056485,6.7836676,0,1683969460.1082885
0.06982114,0.4818574,1.6319855,1.2487613,0.97005403,-0.38927388,0.6511369,7.056485,6.7836676,0,1683969460.1236346
0.04116094,0.45124584,1.6207652,1.2487613,0.97005403,-0.38927388,0.6511369,7.056485,6.7836676,0,1683969460.1338937
0.04116094,0.45124584,1.6207652,1.2487613,0.97005403,-0.38927388,0.5654722,7.109061,6.73629,0,1683969460.13903
0.04116094,0.45124584,1.6207652,1.800678,1.0445796,-0.33169982,0.5654722,7.109061,6.73629,0,1683969460.1544278
0.033355605,0.41715845,1.5709454,1.800678,1.0445796,-0.33169982,0.5654722,7.109061,6.73629,0,1683969460.1595607
0.033355605,0.41715845,1.5709454,1.800678,1.0445796,-0.33169982,0.48037884,7.1866302,6.6601567,0,1683969460.1698244
0.04530752,0.4114874,1.4891723,1.800678,1.0445796,-0.33169982,0.48037884,7.1866302,6.6601567,0,1683969460.190355
0.04530752,0.4114874,1.4891723,1.800678,1.0445796,-0.33169982,0.39472112,7.288368,6.5543876,0,1683969460.200608
0.04530752,0.4114874,1.4891723,2.1704042,1.2293663,-0.26939157,0.39472112,7.288368,6.5543876,0,1683969460.2108593
0.046466127,0.42136607,1.2920876,2.1704042,1.2293663,-0.26939157,0.39472112,7.288368,6.5543876,0,1683969460.2466872
0.046466127,0.42136607,1.2920876,2.1704042,1.2293663,-0.26939157,0.2548197,7.4729137,6.350333,0,1683969460.2517803
0.046466127,0.42136607,1.2920876,2.4133759,1.5102116,-0.20479257,0.2548197,7.4729137,6.350333,0,1683969460.2569199
0.046466127,0.42136607,1.2920876,2.4133759,1.5102116,-0.20479257,0.15082005,7.602048,6.1985674,0,1683969460.2723284
0.03420931,0.41484126,1.1312855,2.4133759,1.5102116,-0.20479257,0.15082005,7.602048,6.1985674,0,1683969460.2774615
0.03420931,0.41484126,1.1312855,2.3744333,1.7999145,-0.14660765,0.15082005,7.602048,6.1985674,0,1683969460.282592
0.028477272,0.40221858,1.0087783,2.3744333,1.7999145,-0.14660765,0.15082005,7.602048,6.1985674,0,1683969460.3082154
0.028477272,0.40221858,1.0087783,2.3744333,1.7999145,-0.14660765,0.037166547,7.7222695,6.0498996,0,1683969460.3133442
0.028477272,0.40221858,1.0087783,2.1781929,2.1302397,-0.055436023,0.037166547,7.7222695,6.0498996,0,1683969460.3236024
0.0073175007,0.35922828,0.80486405,1.8361082,2.6919305,0.1815797,-0.21266411,7.922545,5.7813635,0,1683969460.3390877
0.0073175007,0.35922828,0.80486405,1.8361082,2.6919305,0.1815797,-0.3364599,8.010758,5.6524916,0,1683969460.349338
0.0073175007,0.35922828,0.80486405,1.8886427,2.6758952,0.366061,-0.3364599,8.010758,5.6524916,0,1683969460.3596098
-0.042258564,0.3389222,0.7271766,1.8886427,2.6758952,0.366061,-0.3364599,8.010758,5.6524916,0,1683969460.3749933
-0.035124,0.30251765,0.69973594,1.8886427,2.6758952,0.366061,-0.3364599,8.010758,5.6524916,0,1683969460.3801243
-0.035124,0.30251765,0.69973594,2.1794145,2.3977988,0.536187,-0.3364599,8.010758,5.6524916,0,1683969460.4006279
-0.035124,0.30251765,0.69973594,2.1794145,2.3977988,0.536187,-0.4876939,8.149853,5.4385815,0,1683969460.4108877
-0.0219525,0.2967856,0.7012604,2.1794145,2.3977988,0.536187,-0.4876939,8.149853,5.4385815,0,1683969460.4263124
-0.0219525,0.2967856,0.7012604,2.5305092,2.143068,0.63697976,-0.4876939,8.149853,5.4385815,0,1683969460.4314096
-0.0219525,0.2967856,0.7012604,2.5305092,2.143068,0.63697976,-0.557324,8.256287,5.2687035,0,1683969460.4365432
-0.0219525,0.2967856,0.7012604,2.9654453,1.8926133,0.68218374,-0.557324,8.256287,5.2687035,0,1683969460.4519396
-0.0219525,0.2967856,0.7012604,2.9654453,1.8926133,0.68218374,-0.60351115,8.3764515,5.0702014,0,1683969460.4621925
0.01396423,0.304469,0.64772075,2.9654453,1.8926133,0.68218374,-0.60351115,8.3764515,5.0702014,0,1683969460.4672866
0.01396423,0.304469,0.64772075,3.18047,1.8070921,0.6826419,-0.60351115,8.3764515,5.0702014,0,1683969460.5031543
0.01396423,0.304469,0.64772075,3.18047,1.8070921,0.6826419,-0.63437396,8.507439,4.8432584,0,1683969460.5134118
0.0035977708,0.30160296,0.5721066,3.18047,1.8070921,0.6826419,-0.63437396,8.507439,4.8432584,0,1683969460.5185456
-0.0018293752,0.30020046,0.46069762,3.18047,1.8070921,0.6826419,-0.63437396,8.507439,4.8432584,0,1683969460.528764
-0.0018293752,0.30020046,0.46069762,3.18047,1.8070921,0.6826419,-0.6571763,8.641163,4.5972333,0,1683969460.539011
-0.0018293752,0.30020046,0.46069762,3.2145257,1.8368717,0.68752885,-0.6571763,8.641163,4.5972333,0,1683969460.544102
-0.0015854583,0.30879852,0.32123825,3.0440943,1.9866865,0.73471814,-0.6757749,8.769845,4.3438787,0,1683969460.5696108
0.0017683958,0.3175795,0.21470766,2.7371345,2.1933117,0.8258898,-0.6966645,8.943146,3.9712636,0,1683969460.5747836
0.0017683958,0.3175795,0.21470766,2.500577,2.325564,0.8933904,-0.7007477,8.9945545,3.852668,0,1683969460.5799417
0.012256813,0.31629896,0.13195892,2.500577,2.325564,0.8933904,-0.7007477,8.9945545,3.852668,0,1683969460.5799506
0.012256813,0.31629896,0.13195892,2.1923954,2.484389,0.9983065,-0.70427275,9.127463,3.5255513,0,1683969460.585104
-0.052686002,0.23434295,0.25574663,1.9037615,2.844952,1.4450017,-0.66158926,9.288586,3.0855436,0,1683969460.5903325
-0.01689123,0.2660521,0.17793721,1.9037615,2.844952,1.4450017,-0.66158926,9.288586,3.0855436,0,1683969460.6005747
-0.01689123,0.2660521,0.17793721,1.9037615,2.844952,1.4450017,-0.61213905,9.346344,2.9167147,0,1683969460.605708
-0.01689123,0.2660521,0.17793721,1.9301815,2.8582385,1.6684257,-0.61213905,9.346344,2.9167147,0,1683969460.6159651
0.13384928,0.38599813,0.06225973,1.9301815,2.8582385,1.6684257,-0.61213905,9.346344,2.9167147,0,1683969460.6262262
0.13384928,0.38599813,0.06225973,2.0410535,2.6978865,1.8747455,-0.61213905,9.346344,2.9167147,0,1683969460.6313176
0.13384928,0.38599813,0.06225973,2.0410535,2.6978865,1.8747455,-0.53153986,9.405354,2.7373185,0,1683969460.6517932
0.13384928,0.38599813,0.06225973,2.132836,2.4996605,1.8701639,-0.53153986,9.405354,2.7373185,0,1683969460.6568854
0.13384928,0.38599813,0.06225973,2.132836,2.4996605,1.8701639,-0.4242892,9.464511,2.5454094,0,1683969460.667075
0.2598932,0.5127738,-0.025977125,2.132836,2.4996605,1.8701639,-0.4242892,9.464511,2.5454094,0,1683969460.6773374
0.34105647,0.6093648,-0.11433593,2.132836,2.4996605,1.8701639,-0.4242892,9.464511,2.5454094,0,1683969460.7029476
0.34105647,0.6093648,-0.11433593,2.1884248,2.25394,1.6885842,-0.4242892,9.464511,2.5454094,0,1683969460.7080762
0.34105647,0.6093648,-0.11433593,2.1884248,2.25394,1.6885842,-0.2479088,9.546742,2.2437398,0,1683969460.718335
0.28550446,0.6144871,-0.13067836,2.1884248,2.25394,1.6885842,-0.2479088,9.546742,2.2437398,0,1683969460.7285948
0.28550446,0.6144871,-0.13067836,2.1365013,2.1239784,1.5254833,-0.2479088,9.546742,2.2437398,0,1683969460.7337284
0.28550446,0.6144871,-0.13067836,2.1365013,2.1239784,1.5254833,-0.13659652,9.594338,2.0411086,0,1683969460.7542005
0.28550446,0.6144871,-0.13067836,2.1365013,2.1239784,1.5254833,-0.034409404,9.6345415,1.84677,0,1683969460.7694645
0.18598646,0.5733261,-0.1911697,2.1365013,2.1239784,1.5254833,-0.034409404,9.6345415,1.84677,0,1683969460.7797205
0.18598646,0.5733261,-0.1911697,1.8796324,2.147344,1.4445436,-0.034409404,9.6345415,1.84677,0,1683969460.78998
0.18598646,0.5733261,-0.1911697,1.5169312,2.2406538,1.5323554,-0.034409404,9.6345415,1.84677,0,1683969460.8207397
0.10646963,0.5191766,-0.24672171,1.5169312,2.2406538,1.5323554,-0.034409404,9.6345415,1.84677,0,1683969460.8258727
0.10646963,0.5191766,-0.24672171,1.5169312,2.2406538,1.5323554,0.06492749,9.666322,1.6715722,0,1683969460.8310037
0.10646963,0.5191766,-0.24672171,1.5169312,2.2406538,1.5323554,0.17311443,9.688521,1.5292908,0,1683969460.8463995
0.1253122,0.55460554,-0.22684251,1.5169312,2.2406538,1.5323554,0.17311443,9.688521,1.5292908,0,1683969460.8514938
0.1253122,0.55460554,-0.22684251,1.2541064,2.372906,1.6571246,0.17311443,9.688521,1.5292908,0,1683969460.8616772
0.1253122,0.55460554,-0.22684251,1.2541064,2.372906,1.6571246,0.29841092,9.702152,1.4196175,0,1683969460.8871312
0.23263553,0.68357646,-0.24300198,1.2541064,2.372906,1.6571246,0.29841092,9.702152,1.4196175,0,1683969460.8922157
0.23263553,0.68357646,-0.24300198,0.9560041,2.549446,1.8802432,0.29841092,9.702152,1.4196175,0,1683969460.8973486
0.37624148,0.84279305,-0.32879966,0.9560041,2.549446,1.8802432,0.29841092,9.702152,1.4196175,0,1683969460.9127383
0.37624148,0.84279305,-0.32879966,0.9560041,2.549446,1.8802432,0.517419,9.710431,1.2945836,0,1683969460.9178202
0.6628436,1.5005754,-0.9568851,0.9560041,2.549446,1.8802432,0.517419,9.710431,1.2945836,0,1683969460.9229505
0.6628436,1.5005754,-0.9568851,0.9560041,2.549446,1.8802432,1.4016674,9.681992,0.72834325,0,1683969460.9280798
0.6628436,1.5005754,-0.9568851,0.6427829,0.54229563,0.6414085,1.4016674,9.681992,0.72834325,0,1683969460.9434612
0.59113204,1.463805,-0.7887046,0.6427829,0.54229563,0.6414085,1.4016674,9.681992,0.72834325,0,1683969460.9639475
0.59113204,1.463805,-0.7887046,0.6427829,0.54229563,0.6414085,1.4856349,9.675656,0.64086306,0,1683969460.9742072
0.59113204,1.463805,-0.7887046,0.41645738,0.42332962,0.5271767,1.4856349,9.675656,0.64086306,0,1683969460.9895575
0.59113204,1.463805,-0.7887046,0.26435193,0.4699081,0.5004513,1.4856349,9.675656,0.64086306,0,1683969461.0049434
0.6222314,1.5026487,-0.78333837,0.26435193,0.4699081,0.5004513,1.4856349,9.675656,0.64086306,0,1683969461.0100784
0.6222314,1.5026487,-0.78333837,0.26435193,0.4699081,0.5004513,1.5344805,9.670568,0.6013259,0,1683969461.0254369
0.6696122,1.5494196,-0.84706163,0.26435193,0.4699081,0.5004513,1.5344805,9.670568,0.6013259,0,1683969461.0408056
0.6696122,1.5494196,-0.84706163,0.26435193,0.4699081,0.5004513,1.6023155,9.661946,0.5616929,0,1683969461.0561569
0.6696122,1.5494196,-0.84706163,0.038026363,0.2941316,0.2658791,1.6023155,9.661946,0.5616929,0,1683969461.071424
0.6696122,1.5494196,-0.84706163,0.038026363,0.2941316,0.2658791,1.6385168,9.6567745,0.54599726,0,1683969461.0868037
0.6696122,1.5494196,-0.84706163,0.12690726,0.41447207,0.4109596,1.6385168,9.6567745,0.54599726,0,1683969461.0919354
0.7326037,1.5946052,-0.8560255,0.12690726,0.41447207,0.4109596,1.6385168,9.6567745,0.54599726,0,1683969461.097065
0.79339993,1.6407665,-0.8383416,0.12690726,0.41447207,0.4109596,1.6385168,9.6567745,0.54599726,0,1683969461.1174982
0.79339993,1.6407665,-0.8383416,-0.021991149,0.0580322,-0.02855795,1.6385168,9.6567745,0.54599726,0,1683969461.122575
0.79339993,1.6407665,-0.8383416,-0.021991149,0.0580322,-0.02855795,1.6607461,9.653563,0.5355015,0,1683969461.127703
0.79339993,1.6407665,-0.8383416,-0.021991149,0.0580322,-0.02855795,1.6624672,9.65379,0.5259857,0,1683969461.148214
0.79339993,1.6407665,-0.8383416,-0.05299256,-0.14340061,-0.30482176,1.6624672,9.65379,0.5259857,0,1683969461.1533427
0.8005955,1.6311927,-0.8204137,-0.05299256,-0.14340061,-0.30482176,1.6624672,9.65379,0.5259857,0,1683969461.1584725
0.8005955,1.6311927,-0.8204137,-0.12965615,-0.39095375,-0.6589709,1.6624672,9.65379,0.5259857,0,1683969461.1788917
0.76065415,1.5792994,-0.8229139,-0.12965615,-0.39095375,-0.6589709,1.6624672,9.65379,0.5259857,0,1683969461.1891515
0.76065415,1.5792994,-0.8229139,-0.12965615,-0.39095375,-0.6589709,1.6409928,9.657963,0.51675236,0,1683969461.19428
0.76065415,1.5792994,-0.8229139,-1.4016303,-2.3576343,-1.2423472,1.6409928,9.657963,0.51675236,0,1683969461.1994128
0.022135438,0.59113204,0.008293167,-1.4016303,-2.3576343,-1.2423472,1.6409928,9.657963,0.51675236,0,1683969461.204544
0.022135438,0.59113204,0.008293167,-1.4016303,-2.3576343,-1.2423472,0.019131798,9.653804,1.7435187,0,1683969461.2198803
0.045185562,0.5899125,0.0515274,-1.4016303,-2.3576343,-1.2423472,0.019131798,9.653804,1.7435187,0,1683969461.235222
0.045185562,0.5899125,0.0515274,-1.4016303,-2.3576343,-1.2423472,-0.04888711,9.631341,1.8630674,0,1683969461.2506208
0.045185562,0.5899125,0.0515274,-1.4112514,-2.352442,-1.1290317,-0.04888711,9.631341,1.8630674,0,1683969461.2557507
0.045185562,0.5899125,0.0515274,-1.4249959,-2.3608415,-1.0740538,-0.04888711,9.631341,1.8630674,0,1683969461.2659698
0.045185562,0.5899125,0.0515274,-1.4249959,-2.3608415,-1.0740538,-0.10273208,9.606404,1.9855894,0,1683969461.2710574
0.116836086,0.62259734,0.06006448,-1.4249959,-2.3608415,-1.0740538,-0.10273208,9.606404,1.9855894,0,1683969461.2915275
0.116836086,0.62259734,0.06006448,-1.4760032,-2.3958135,-1.1133019,-0.10273208,9.606404,1.9855894,0,1683969461.3120518
0.1783031,0.6479037,0.062320713,-1.4760032,-2.3958135,-1.1133019,-0.10273208,9.606404,1.9855894,0,1683969461.3171856
0.1783031,0.6479037,0.062320713,-1.5876387,-2.4120014,-1.2504412,-0.10273208,9.606404,1.9855894,0,1683969461.3428087
0.2072682,0.6447937,0.105615914,-1.5876387,-2.4120014,-1.2504412,-0.10273208,9.606404,1.9855894,0,1683969461.3478951
0.2072682,0.6447937,0.105615914,-1.5876387,-2.4120014,-1.2504412,-0.21214342,9.5322075,2.3082757,0,1683969461.358124
0.2072682,0.6447937,0.105615914,-1.6861408,-2.3935227,-1.3535247,-0.21214342,9.5322075,2.3082757,0,1683969461.383662
0.2072682,0.6447937,0.105615914,-1.6861408,-2.3935227,-1.3535247,-0.26341343,9.494621,2.4533455,0,1683969461.3887556
0.16141187,0.5878392,0.16940013,-1.6861408,-2.3935227,-1.3535247,-0.26341343,9.494621,2.4533455,0,1683969461.3938842
0.064089105,0.50563926,0.25330746,-1.6861408,-2.3935227,-1.3535247,-0.26341343,9.494621,2.4533455,0,1683969461.399024
0.064089105,0.50563926,0.25330746,-1.6861408,-2.3935227,-1.3535247,-0.32040069,9.4510565,2.6097896,0,1683969461.4092836
0.064089105,0.50563926,0.25330746,-1.7745636,-2.3341162,-1.3726143,-0.32040069,9.4510565,2.6097896,0,1683969461.4246798
-0.03603869,0.44033056,0.3259946,-1.7745636,-2.3341162,-1.3726143,-0.32040069,9.4510565,2.6097896,0,1683969461.434909
-0.03603869,0.44033056,0.3259946,-1.7745636,-2.3341162,-1.3726143,-0.37740973,9.401695,2.775212,0,1683969461.4400396
-0.03603869,0.44033056,0.3259946,-1.7525724,-2.281887,-1.2421945,-0.37740973,9.401695,2.775212,0,1683969461.4554243
-0.03603869,0.44033056,0.3259946,-1.6850718,-2.2734878,-1.1162035,-0.37740973,9.401695,2.775212,0,1683969461.4759371
-0.07085779,0.4238662,0.34520307,-1.6850718,-2.2734878,-1.1162035,-0.37740973,9.401695,2.775212,0,1683969461.48619
-0.07085779,0.4238662,0.34520307,-1.6850718,-2.2734878,-1.1162035,-0.4264183,9.348799,2.9418092,0,1683969461.501541
-0.07085779,0.4238662,0.34520307,-1.6850718,-2.2734878,-1.1162035,-0.45929384,9.295563,3.10124,0,1683969461.5169308
-0.07085779,0.4238662,0.34520307,-1.53205,-2.313194,-0.90056807,-0.45929384,9.295563,3.10124,0,1683969461.5220666
-0.06896744,0.44039157,0.35343525,-1.53205,-2.313194,-0.90056807,-0.45929384,9.295563,3.10124,0,1683969461.5373955
-0.06896744,0.44039157,0.35343525,-1.4654657,-2.35626,-0.7620544,-0.45929384,9.295563,3.10124,0,1683969461.557896
-0.032014064,0.45502654,0.36764342,-1.4654657,-2.35626,-0.7620544,-0.45929384,9.295563,3.10124,0,1683969461.5630295
-0.032014064,0.45502654,0.36764342,-1.4654657,-2.35626,-0.7620544,-0.4722957,9.218455,3.3216145,0,1683969461.5732825
0.016708292,0.46972254,0.37514386,-1.4654657,-2.35626,-0.7620544,-0.4722957,9.218455,3.3216145,0,1683969461.5886269
0.016708292,0.46972254,0.37514386,-1.5245669,-2.2605069,-0.6409504,-0.4722957,9.218455,3.3216145,0,1683969461.5937603
0.016708292,0.46972254,0.37514386,-1.5245669,-2.2605069,-0.6409504,-0.46009782,9.167217,3.462161,0,1683969461.5988922
0.016708292,0.46972254,0.37514386,-1.6864462,-2.0995438,-0.59131753,-0.46009782,9.167217,3.462161,0,1683969461.6142492
0.03420931,0.47850356,0.38441268,-1.6864462,-2.0995438,-0.59131753,-0.46009782,9.167217,3.462161,0,1683969461.6244562
0.03420931,0.47850356,0.38441268,-1.6864462,-2.0995438,-0.59131753,-0.43887228,9.112293,3.606885,0,1683969461.644988
0.03420931,0.47850356,0.38441268,-1.6864462,-2.0995438,-0.59131753,-0.40375113,9.015656,3.8459132,0,1683969461.6603045
0.027684543,0.47521064,0.40667006,-1.6864462,-2.0995438,-0.59131753,-0.40375113,9.015656,3.8459132,0,1683969461.6756954
0.027684543,0.47521064,0.40667006,-1.9343048,-1.8865047,-0.5571091,-0.40375113,9.015656,3.8459132,0,1683969461.6808264
0.027684543,0.47521064,0.40667006,-2.1131356,-1.7330247,-0.51251596,-0.40375113,9.015656,3.8459132,0,1683969461.68596
0.029148044,0.47106406,0.4628929,-2.1131356,-1.7330247,-0.51251596,-0.40375113,9.015656,3.8459132,0,1683969461.7013514
0.029148044,0.47106406,0.4628929,-2.1131356,-1.7330247,-0.51251596,-0.38059208,8.938866,4.0234256,0,1683969461.7167377
0.0395145,0.46667355,0.56076443,-2.1131356,-1.7330247,-0.51251596,-0.38059208,8.938866,4.0234256,0,1683969461.727007
0.0395145,0.46667355,0.56076443,-2.2269092,-1.6134478,-0.4831944,-0.38059208,8.938866,4.0234256,0,1683969461.7423604
0.0395145,0.46667355,0.56076443,0.73960507,0.46517387,-0.08353582,-0.38059208,8.938866,4.0234256,0,1683969461.7577448
0.031038398,0.65784323,1.6206434,0.73960507,0.46517387,-0.08353582,-0.38059208,8.938866,4.0234256,0,1683969461.7731383
0.031038398,0.65784323,1.6206434,0.73960507,0.46517387,-0.08353582,0.6940069,7.317761,6.496525,0,1683969461.7782671
0.031038398,0.65784323,1.6206434,0.73960507,0.46517387,-0.08353582,0.6596724,7.3551836,6.457724,0,1683969461.7987688
0.031038398,0.65784323,1.6206434,0.92271197,0.5392413,-0.04627304,0.6596724,7.3551836,6.457724,0,1683969461.8141675
0.038416874,0.6508306,1.563079,0.92271197,0.5392413,-0.04627304,0.6596724,7.3551836,6.457724,0,1683969461.8192604
0.038416874,0.6508306,1.563079,0.92271197,0.5392413,-0.04627304,0.62323415,7.4050837,6.404094,0,1683969461.8295116
0.05195425,0.6349761,1.4658782,0.92271197,0.5392413,-0.04627304,0.62323415,7.4050837,6.404094,0,1683969461.8448977
0.05195425,0.6349761,1.4658782,1.1100949,0.68203104,0.016340645,0.62323415,7.4050837,6.404094,0,1683969461.855165
0.05195425,0.6349761,1.4658782,1.1661417,0.84864455,0.08903361,0.62323415,7.4050837,6.404094,0,1683969461.8756464
0.07390675,0.6188776,1.4171559,1.1661417,0.84864455,0.08903361,0.62323415,7.4050837,6.404094,0,1683969461.880779
0.07390675,0.6188776,1.4171559,1.1661417,0.84864455,0.08903361,0.56353736,7.4911532,6.3088174,0,1683969461.8909993
0.07390675,0.6188776,1.4171559,1.1910346,1.110553,0.16600263,0.56353736,7.4911532,6.3088174,0,1683969461.9063618
0.07390675,0.6188776,1.4171559,1.1910346,1.110553,0.16600263,0.51902145,7.5499,6.242254,0,1683969461.9114785
0.0910419,0.63052464,1.4065455,1.1910346,1.110553,0.16600263,0.51902145,7.5499,6.242254,0,1683969461.9217336
0.10451829,0.6342443,1.372763,1.1910346,1.110553,0.16600263,0.51902145,7.5499,6.242254,0,1683969461.9370842
0.10451829,0.6342443,1.372763,1.2371548,1.34314,0.2041817,0.51902145,7.5499,6.242254,0,1683969461.9473007
0.10451829,0.6342443,1.372763,1.2371548,1.34314,0.2041817,0.4671183,7.6091366,6.174054,0,1683969461.957508
0.10451829,0.6342443,1.372763,1.3614659,1.6106989,0.24144448,0.4671183,7.6091366,6.174054,0,1683969461.9780223
0.12397064,0.6375372,1.3268458,1.3614659,1.6106989,0.24144448,0.4671183,7.6091366,6.174054,0,1683969461.9831579
0.12397064,0.6375372,1.3268458,1.3614659,1.6106989,0.24144448,0.3730802,7.7028003,6.0633163,0,1683969461.993412
0.1425693,0.64070815,1.264464,1.3614659,1.6106989,0.24144448,0.3730802,7.7028003,6.0633163,0,1683969462.0139077
0.1425693,0.64070815,1.264464,1.3614659,1.6106989,0.24144448,0.30076507,7.7721667,5.9782157,0,1683969462.0190375
0.1425693,0.64070815,1.264464,1.5172366,1.78617,0.2585487,0.30076507,7.7721667,5.9782157,0,1683969462.0241656
0.1425693,0.64070815,1.264464,1.6701056,1.9486601,1.5858061,0.30076507,7.7721667,5.9782157,0,1683969462.0344217
0.1425693,0.64070815,1.264464,1.6701056,1.9486601,1.5858061,0.109679446,9.697969,1.4742767,0,1683969462.0600712
0.2920902,0.7479095,-0.17842504,1.6701056,1.9486601,1.5858061,0.109679446,9.697969,1.4742767,0,1683969462.0651987
0.2920902,0.7479095,-0.17842504,1.596649,1.9033034,1.4538593,0.109679446,9.697969,1.4742767,0,1683969462.09075
0.2920902,0.7479095,-0.17842504,1.596649,1.9033034,1.4538593,0.17080799,9.708446,1.397505,0,1683969462.0958407
0.32617757,0.79224133,-0.2335502,1.596649,1.9033034,1.4538593,0.17080799,9.708446,1.397505,0,1683969462.10096
0.32617757,0.79224133,-0.2335502,1.3523029,1.858863,1.234406,0.17080799,9.708446,1.397505,0,1683969462.1111958
0.32617757,0.79224133,-0.2335502,1.3523029,1.858863,1.234406,0.33396637,9.732368,1.1855786,0,1683969462.1163223
0.27184513,0.7948025,-0.27940655,1.3523029,1.858863,1.234406,0.33396637,9.732368,1.1855786,0,1683969462.1317146
0.19275515,0.7578491,-0.2748941,1.3523029,1.858863,1.234406,0.33396637,9.732368,1.1855786,0,1683969462.1419737
0.19275515,0.7578491,-0.2748941,1.0827587,1.883603,1.2034045,0.33396637,9.732368,1.1855786,0,1683969462.1522424
0.19275515,0.7578491,-0.2748941,1.0827587,1.883603,1.2034045,0.42827144,9.742313,1.0677186,0,1683969462.1573758
0.1718393,0.7490681,-0.2774552,1.0827587,1.883603,1.2034045,0.42827144,9.742313,1.0677186,0,1683969462.1932065
0.1718393,0.7490681,-0.2774552,0.9204212,1.890017,1.2866349,0.42827144,9.742313,1.0677186,0,1683969462.1982965
0.1718393,0.7490681,-0.2774552,0.9204212,1.890017,1.2866349,0.5230919,9.747919,0.96983033,0,1683969462.2085044
0.20025559,0.787546,-0.23909931,0.9204212,1.890017,1.2866349,0.5230919,9.747919,0.96983033,0,1683969462.2238946
0.20025559,0.787546,-0.23909931,0.8116872,1.8516853,1.4216361,0.5230919,9.747919,0.96983033,0,1683969462.2290242
0.20025559,0.787546,-0.23909931,0.8116872,1.8516853,1.4216361,0.62623596,9.749629,0.88807106,0,1683969462.2392433
0.23672113,0.82834107,-0.22787915,0.8116872,1.8516853,1.4216361,0.62623596,9.749629,0.88807106,0,1683969462.254636
0.23672113,0.82834107,-0.22787915,0.7993172,1.7989981,1.4816537,0.62623596,9.749629,0.88807106,0,1683969462.2648928
0.23672113,0.82834107,-0.22787915,0.7993172,1.7989981,1.4816537,0.74059373,9.747821,0.81708115,0,1683969462.2751539
0.23672113,0.82834107,-0.22787915,0.7993172,1.7989981,1.4816537,0.9258838,9.739781,0.7179849,0,1683969462.2956932
0.23672113,0.82834107,-0.22787915,0.7994699,1.7304286,1.5063937,0.9258838,9.739781,0.7179849,0,1683969462.3007796
0.84157354,1.5878365,-0.9217001,0.7994699,1.7304286,1.5063937,0.9258838,9.739781,0.7179849,0,1683969462.3161182
0.84157354,1.5878365,-0.9217001,0.7994699,1.7304286,1.5063937,2.272955,9.543042,0.011992055,0,1683969462.3212538
0.84157354,1.5878365,-0.9217001,-0.22708915,-0.50640726,-0.48456886,2.272955,9.543042,0.011992055,0,1683969462.34689
0.84157354,1.5878365,-0.9217001,-0.22708915,-0.50640726,-0.48456886,2.247226,9.549132,-0.012959769,0,1683969462.3571079
0.7805334,1.5315528,-0.9098092,-0.22708915,-0.50640726,-0.48456886,2.247226,9.549132,-0.012959769,0,1683969462.3622067
0.6999189,1.4452672,-0.7759599,-0.22708915,-0.50640726,-0.48456886,2.247226,9.549132,-0.012959769,0,1683969462.3825674
0.6999189,1.4452672,-0.7759599,-0.514654,-0.68645984,-0.7244862,2.247226,9.549132,-0.012959769,0,1683969462.3927464
0.6999189,1.4452672,-0.7759599,-0.514654,-0.68645984,-0.7244862,2.2043738,9.55912,-0.00952453,0,1683969462.3978386
0.6480866,1.3690432,-0.6951625,-0.514654,-0.68645984,-0.7244862,2.2043738,9.55912,-0.00952453,0,1683969462.4234521
0.6480866,1.3690432,-0.6951625,-0.6921103,-0.7644979,-0.86284715,2.2043738,9.55912,-0.00952453,0,1683969462.428578
0.6480866,1.3690432,-0.6951625,-0.6921103,-0.7644979,-0.86284715,2.1455262,9.572497,0.011596783,0,1683969462.4387996
0.56363046,1.2749524,-0.56661844,-0.6921103,-0.7644979,-0.86284715,2.1455262,9.572497,0.011596783,0,1683969462.4592626
0.56363046,1.2749524,-0.56661844,-0.6921103,-0.7644979,-0.86284715,2.036138,9.596107,0.070779964,0,1683969462.4643846
0.56363046,1.2749524,-0.56661844,-0.8746063,-0.8167268,-0.98807454,2.036138,9.596107,0.070779964,0,1683969462.4746447
0.51533496,1.2078143,-0.5017976,-0.8746063,-0.8167268,-0.98807454,2.036138,9.596107,0.070779964,0,1683969462.4849098
0.51533496,1.2078143,-0.5017976,-0.99280876,-0.8571966,-1.0435106,2.036138,9.596107,0.070779964,0,1683969462.490001
0.51533496,1.2078143,-0.5017976,-0.99280876,-0.8571966,-1.0435106,1.9956247,9.604385,0.09690883,0,1683969462.50527
0.4753326,1.1440911,-0.44087937,-0.99280876,-0.8571966,-1.0435106,1.9956247,9.604385,0.09690883,0,1683969462.520615
0.4753326,1.1440911,-0.44087937,-1.0803152,-0.91446525,-1.0839803,1.9956247,9.604385,0.09690883,0,1683969462.530833
0.4753326,1.1440911,-0.44087937,-1.0803152,-0.91446525,-1.0839803,1.8675292,9.628716,0.19049586,0,1683969462.5461507
0.4484408,1.0964055,-0.3726437,-1.0803152,-0.91446525,-1.0839803,1.8675292,9.628716,0.19049586,0,1683969462.5511968
0.4484408,1.0964055,-0.3726437,-1.0803152,-0.91446525,-1.0839803,1.7783685,9.643893,0.26242423,0,1683969462.5716913
0.4484408,1.0964055,-0.3726437,-1.150412,-1.0134255,-1.1363621,1.7783685,9.643893,0.26242423,0,1683969462.581955
-0.012195834,0.47984505,0.27330863,-1.150412,-1.0134255,-1.1363621,1.7783685,9.643893,0.26242423,0,1683969462.607482
-0.012195834,0.47984505,0.27330863,-1.150412,-1.0134255,-1.1363621,-0.58013546,9.176312,3.419774,0,1683969462.612591
-0.012195834,0.47984505,0.27330863,-2.0949624,-1.8350391,-1.20371,-0.58013546,9.176312,3.419774,0,1683969462.6176665
-0.012195834,0.47984505,0.27330863,-2.0657935,-1.883603,-1.1349876,-0.58013546,9.176312,3.419774,0,1683969462.6279192
-0.03957548,0.44569677,0.336666,-2.0657935,-1.883603,-1.1349876,-0.58013546,9.176312,3.419774,0,1683969462.6432698
-0.03957548,0.44569677,0.336666,-2.0657935,-1.883603,-1.1349876,-0.6373802,9.062106,3.7024467,0,1683969462.6535294
-0.03957548,0.44569677,0.336666,-2.0657935,-1.883603,-1.1349876,-0.6627701,8.981772,3.8890376,0,1683969462.6791663
-0.052807957,0.4256346,0.403926,-2.0657935,-1.883603,-1.1349876,-0.6627701,8.981772,3.8890376,0,1683969462.6842983
-0.052807957,0.4256346,0.403926,-2.0161607,-1.9367483,-1.0135782,-0.6627701,8.981772,3.8890376,0,1683969462.6894321
-0.06445498,0.42728102,0.45618513,-2.0161607,-1.9367483,-1.0135782,-0.6627701,8.981772,3.8890376,0,1683969462.7098298
-0.06445498,0.42728102,0.45618513,-1.9680551,-1.9408716,-0.89751375,-0.6627701,8.981772,3.8890376,0,1683969462.7149143
-0.06445498,0.42728102,0.45618513,-1.9680551,-1.9408716,-0.89751375,-0.67484295,8.899171,4.0725245,0,1683969462.7200832
-0.056649648,0.4555144,0.50356597,-1.9680551,-1.9408716,-0.89751375,-0.67484295,8.899171,4.0725245,0,1683969462.7457256
-0.056649648,0.4555144,0.50356597,-1.9680551,-1.9408716,-0.89751375,-0.6738349,8.8152485,4.251289,0,1683969462.7611187
-0.056649648,0.4555144,0.50356597,-1.9152153,-1.9104811,-0.77411896,-0.6738349,8.8152485,4.251289,0,1683969462.7662506
-0.056649648,0.4555144,0.50356597,-1.9152153,-1.9104811,-0.77411896,-0.65212333,8.687384,4.5100126,0,1683969462.7815979
-0.043783043,0.47411305,0.5370435,-1.9152153,-1.9104811,-0.77411896,-0.65212333,8.687384,4.5100126,0,1683969462.791852
-0.043783043,0.47411305,0.5370435,-1.8865047,-1.8892535,-0.7154759,-0.65212333,8.687384,4.5100126,0,1683969462.7969825
-0.046039272,0.4941142,0.573753,-1.8865047,-1.8892535,-0.7154759,-0.65212333,8.687384,4.5100126,0,1683969462.8123167
-0.046039272,0.4941142,0.573753,-1.842675,-1.8849775,-0.68111473,-0.65212333,8.687384,4.5100126,0,1683969462.8174462
-0.046039272,0.4941142,0.573753,-1.842675,-1.8849775,-0.68111473,-0.6285355,8.600726,4.6763835,0,1683969462.8276992
-0.06360127,0.5019805,0.62058496,-1.842675,-1.8849775,-0.68111473,-0.6285355,8.600726,4.6763835,0,1683969462.8482175
-0.06360127,0.5019805,0.62058496,-1.7580702,-1.918575,-0.6597345,-0.6285355,8.600726,4.6763835,0,1683969462.8584783
-0.06360127,0.5019805,0.62058496,-1.7580702,-1.918575,-0.6597345,-0.59963113,8.513656,4.836759,0,1683969462.8687363
0.018537667,0.6911379,1.369714,-1.7580702,-1.918575,-0.6597345,-0.59963113,8.513656,4.836759,0,1683969462.8789945
0.018537667,0.6911379,1.369714,1.1940888,0.9279043,0.20708331,-0.59963113,8.513656,4.836759,0,1683969462.8841202
0.018537667,0.6911379,1.369714,1.1940888,0.9279043,0.20708331,0.3258737,7.3849325,6.4492393,0,1683969462.8995194
0.018537667,0.6911379,1.369714,1.3439035,1.091158,0.22052236,0.3258737,7.3849325,6.4492393,0,1683969462.9200454
0.018537667,0.6911379,1.369714,1.3439035,1.091158,0.22052236,0.26187426,7.4821057,6.3392134,0,1683969462.9303055
0.018598646,0.67686874,1.3087349,1.3439035,1.091158,0.22052236,0.26187426,7.4821057,6.3392134,0,1683969462.940554
0.023537958,0.66595346,1.2424506,1.3439035,1.091158,0.22052236,0.26187426,7.4821057,6.3392134,0,1683969462.9559019
0.023537958,0.66595346,1.2424506,1.4317154,1.2786937,0.27748555,0.26187426,7.4821057,6.3392134,0,1683969462.9610288
0.023537958,0.66595346,1.2424506,1.4317154,1.2786937,0.27748555,0.2126014,7.553539,6.255795,0,1683969462.9661725
0.032623854,0.66869754,1.2071435,1.4317154,1.2786937,0.27748555,0.2126014,7.553539,6.255795,0,1683969462.9815342
0.032623854,0.66869754,1.2071435,1.4928019,1.4573717,0.33307427,0.2126014,7.553539,6.255795,0,1683969462.9866264
0.032623854,0.66869754,1.2071435,1.5586227,1.6801848,0.37995818,0.2126014,7.553539,6.255795,0,1683969463.0225441
0.032623854,0.66869754,1.2071435,1.5586227,1.6801848,0.37995818,0.10090983,7.704438,6.071866,0,1683969463.0328097
0.054881252,0.67180747,1.121041,1.5586227,1.6801848,0.37995818,0.10090983,7.704438,6.071866,0,1683969463.0430171
0.054881252,0.67180747,1.121041,1.6052011,1.8414533,0.39904773,0.10090983,7.704438,6.071866,0,1683969463.053279
0.054881252,0.67180747,1.121041,1.6052011,1.8414533,0.39904773,0.0043664086,7.823213,5.9189053,0,1683969463.073785
0.06085721,0.6594287,1.0562202,1.6052011,1.8414533,0.39904773,0.0043664086,7.823213,5.9189053,0,1683969463.078881
0.058722936,0.6218046,0.96676373,1.6052011,1.8414533,0.39904773,0.0043664086,7.823213,5.9189053,0,1683969463.1044846
0.058722936,0.6218046,0.96676373,1.6052011,1.8414533,0.39904773,-0.06580274,7.904141,5.8100204,0,1683969463.1096148
0.058722936,0.6218046,0.96676373,1.6643023,1.9943223,0.41447207,-0.06580274,7.904141,5.8100204,0,1683969463.1198504
0.058722936,0.6218046,0.96676373,1.6643023,1.9943223,0.41447207,-0.13863735,7.9859996,5.695675,0,1683969463.1352012
0.041221917,0.58381456,0.9120045,1.6643023,1.9943223,0.41447207,-0.13863735,7.9859996,5.695675,0,1683969463.1403308
0.041221917,0.58381456,0.9120045,1.7041613,2.0645719,0.43020186,-0.13863735,7.9859996,5.695675,0,1683969463.1454647
0.041221917,0.58381456,0.9120045,0.7273878,2.2910502,1.8558086,-0.13863735,7.9859996,5.695675,0,1683969463.1557245
0.041221917,0.58381456,0.9120045,0.7273878,2.2910502,1.8558086,0.4590664,9.6435795,1.7397537,0,1683969463.165987
0.16824152,0.60723054,-0.06158896,0.7273878,2.2910502,1.8558086,0.4590664,9.6435795,1.7397537,0,1683969463.1711204
0.16824152,0.60723054,-0.06158896,0.66446865,2.2608123,2.08977,0.4590664,9.6435795,1.7397537,0,1683969463.2070367
0.16824152,0.60723054,-0.06158896,0.66446865,2.2608123,2.08977,0.59850496,9.646375,1.6808834,0,1683969463.2121615
0.2762356,0.696687,-0.14787449,0.66446865,2.2608123,2.08977,0.59850496,9.646375,1.6808834,0,1683969463.217294
0.2762356,0.696687,-0.14787449,0.66446865,2.2608123,2.08977,0.84148544,9.641792,1.6012045,0,1683969463.2326753
0.2762356,0.696687,-0.14787449,0.63148195,2.1111503,2.1904101,0.84148544,9.641792,1.6012045,0,1683969463.2429223
0.42984214,0.8480373,-0.26410076,0.63148195,2.1111503,2.1904101,0.84148544,9.641792,1.6012045,0,1683969463.248017
0.42984214,0.8480373,-0.26410076,0.5852089,1.9459113,2.109165,0.84148544,9.641792,1.6012045,0,1683969463.2582743
0.42984214,0.8480373,-0.26410076,0.5852089,1.9459113,2.109165,1.0115929,9.633269,1.5533509,0,1683969463.2633975
0.5146642,0.980606,-0.3293485,0.5852089,1.9459113,2.109165,1.0115929,9.633269,1.5533509,0,1683969463.278786
0.5146642,0.980606,-0.3293485,0.48792863,1.7208074,1.8584048,1.0115929,9.633269,1.5533509,0,1683969463.3095284
0.5146642,0.980606,-0.3293485,0.48792863,1.7208074,1.8584048,1.1740315,9.621456,1.5117397,0,1683969463.314631
0.6003399,1.106467,-0.37611952,0.48792863,1.7208074,1.8584048,1.1740315,9.621456,1.5117397,0,1683969463.319767
0.6003399,1.106467,-0.37611952,0.40042216,1.5532776,1.5855007,1.1740315,9.621456,1.5117397,0,1683969463.340312
0.6363176,1.1845204,-0.37081432,0.40042216,1.5532776,1.5855007,1.1740315,9.621456,1.5117397,0,1683969463.3505745
0.6363176,1.1845204,-0.37081432,0.40042216,1.5532776,1.5855007,1.3201315,9.607731,1.4781388,0,1683969463.3557103
0.63674444,1.2358038,-0.37386328,0.40042216,1.5532776,1.5855007,1.3201315,9.607731,1.4781388,0,1683969463.3865097
0.63674444,1.2358038,-0.37386328,0.33368513,1.3956743,1.2918273,1.3201315,9.607731,1.4781388,0,1683969463.3916447
0.63674444,1.2358038,-0.37386328,0.33368513,1.3956743,1.2918273,1.4441729,9.593756,1.4526993,0,1683969463.396742
0.63674444,1.2358038,-0.37386328,0.33368513,1.3956743,1.2918273,1.5866728,9.575567,1.4237661,0,1683969463.4121413
0.63674444,1.2358038,-0.37386328,0.27229318,1.1717923,1.0045679,1.5866728,9.575567,1.4237661,0,1683969463.4172823
0.6340614,1.3923373,-0.5471051,0.27229318,1.1717923,1.0045679,1.5866728,9.575567,1.4237661,0,1683969463.427537
0.6340614,1.3923373,-0.5471051,0.27229318,1.1717923,1.0045679,2.1208527,9.509806,1.1409246,0,1683969463.43268
0.6340614,1.3923373,-0.5471051,-0.41691554,-0.6598872,-0.70325863,2.1208527,9.509806,1.1409246,0,1683969463.4429572
0.6340614,1.3923373,-0.5471051,-0.5862779,-0.6983717,-0.81382525,2.1208527,9.509806,1.1409246,0,1683969463.4634917
0.6340614,1.3923373,-0.5471051,-0.5862779,-0.6983717,-0.81382525,2.071475,9.519049,1.1544861,0,1683969463.4737604
0.6109503,1.3408709,-0.46331972,-0.5862779,-0.6983717,-0.81382525,2.071475,9.519049,1.1544861,0,1683969463.4788988
0.6109503,1.3408709,-0.46331972,-0.5862779,-0.6983717,-0.81382525,1.981066,9.532441,1.2016865,0,1683969463.4994214
0.56393534,1.2772087,-0.37581462,-0.5862779,-0.6983717,-0.81382525,1.981066,9.532441,1.2016865,0,1683969463.5147822
0.56393534,1.2772087,-0.37581462,-0.7480045,-0.73823065,-0.93660915,1.981066,9.532441,1.2016865,0,1683969463.5199063
0.5347263,1.2260472,-0.32062846,-0.7480045,-0.73823065,-0.93660915,1.981066,9.532441,1.2016865,0,1683969463.5403728
0.5347263,1.2260472,-0.32062846,-0.7480045,-0.73823065,-0.93660915,1.9113841,9.540921,1.2464124,0,1683969463.5454817
0.5347263,1.2260472,-0.32062846,-0.8315403,-0.78954333,-1.0245737,1.9113841,9.540921,1.2464124,0,1683969463.56088
0.5104566,1.1763492,-0.27123535,-0.8315403,-0.78954333,-1.0245737,1.9113841,9.540921,1.2464124,0,1683969463.5865364
0.5104566,1.1763492,-0.27123535,-0.86208355,-0.8970556,-1.1267409,1.9113841,9.540921,1.2464124,0,1683969463.5916667
0.5104566,1.1763492,-0.27123535,-0.86208355,-0.8970556,-1.1267409,1.8355092,9.549139,1.2965183,0,1683969463.5967712
0.5019805,1.1430545,-0.24653877,-0.86208355,-0.8970556,-1.1267409,1.8355092,9.549139,1.2965183,0,1683969463.6173105
0.5019805,1.1430545,-0.24653877,-0.8542951,-1.0409144,-1.2174544,1.8355092,9.549139,1.2965183,0,1683969463.6275253
0.5019805,1.1430545,-0.24653877,-0.8542951,-1.0409144,-1.2174544,1.7538311,9.557397,1.3477242,0,1683969463.6377447
0.5019805,1.1430545,-0.24653877,-0.8330675,-1.2044735,-1.3202325,1.7538311,9.557397,1.3477242,0,1683969463.6531246
0.4905774,1.1121382,-0.22037871,-0.8330675,-1.2044735,-1.3202325,1.7538311,9.557397,1.3477242,0,1683969463.6633494
0.4905774,1.1121382,-0.22037871,-0.8330675,-1.2044735,-1.3202325,1.6667018,9.565935,1.3968192,0,1683969463.6684766
0.453624,1.056586,-0.17299789,-0.8330675,-1.2044735,-1.3202325,1.6667018,9.565935,1.3968192,0,1683969463.6787431
0.453624,1.056586,-0.17299789,-0.8330675,-1.2044735,-1.3202325,1.5732119,9.574877,1.4432127,0,1683969463.6890104
0.040307228,0.6210728,0.21367101,-0.8330675,-1.2044735,-1.3202325,1.5732119,9.574877,1.4432127,0,1683969463.7095046
0.040307228,0.6210728,0.21367101,-0.8330675,-1.2044735,-1.3202325,-0.30597442,9.167224,3.4791532,0,1683969463.72486
0.040307228,0.6210728,0.21367101,-1.5500705,-1.515404,-0.9068295,-0.30597442,9.167224,3.4791532,0,1683969463.729982
0.008415125,0.5717407,0.24214828,-1.5500705,-1.515404,-0.9068295,-0.30597442,9.167224,3.4791532,0,1683969463.7453465
0.008415125,0.5717407,0.24214828,-1.8092301,-1.5862644,-0.93599826,-0.30597442,9.167224,3.4791532,0,1683969463.7556078
0.008415125,0.5717407,0.24214828,-1.8092301,-1.5862644,-0.93599826,-0.33012447,9.114388,3.6131754,0,1683969463.7607424
-0.0160985,0.5257624,0.37679026,-1.8092301,-1.5862644,-0.93599826,-0.33012447,9.114388,3.6131754,0,1683969463.786408
-0.0160985,0.5257624,0.37679026,-1.9598085,-1.6586518,-0.9025534,-0.33012447,9.114388,3.6131754,0,1683969463.7914977
-0.0160985,0.5257624,0.37679026,-1.9598085,-1.6586518,-0.9025534,-0.3629459,9.016064,3.8490245,0,1683969463.8069057
-0.030245667,0.4974071,0.5510687,-1.9598085,-1.6586518,-0.9025534,-0.3629459,9.016064,3.8490245,0,1683969463.8120449
-0.030245667,0.4974071,0.5510687,-1.9598085,-1.6586518,-0.9025534,-0.37621763,8.939225,4.023041,0,1683969463.8171728
-0.030245667,0.4974071,0.5510687,-1.9674442,-1.7085901,-0.8374963,-0.37621763,8.939225,4.023041,0,1683969463.8274026
-0.030245667,0.4974071,0.5510687,-1.8478674,-1.730734,-0.7538077,-0.37621763,8.939225,4.023041,0,1683969463.8479302
-0.030245667,0.4974071,0.5510687,-1.8478674,-1.730734,-0.7538077,-0.37955815,8.858778,4.1969166,0,1683969463.863285
-0.045978293,0.5036879,0.67540526,-1.8478674,-1.730734,-0.7538077,-0.37955815,8.858778,4.1969166,0,1683969463.8735456
-0.032014064,0.53551906,0.74754363,-1.8478674,-1.730734,-0.7538077,-0.37955815,8.858778,4.1969166,0,1683969463.8940783
-0.032014064,0.53551906,0.74754363,-1.6586518,-1.7079792,-0.6772968,-0.37955815,8.858778,4.1969166,0,1683969463.904322
-0.032014064,0.53551906,0.74754363,-1.6586518,-1.7079792,-0.6772968,-0.37250507,8.779758,4.360412,0,1683969463.9094484
-0.008720021,0.60814524,0.7538245,-1.6586518,-1.7079792,-0.6772968,-0.37250507,8.779758,4.360412,0,1683969463.9248476
-0.008720021,0.60814524,0.7538245,-1.6586518,-1.7079792,-0.6772968,-0.34865698,8.671577,4.5736537,0,1683969463.9299471
-0.008720021,0.60814524,0.7538245,-1.427592,-1.6496416,-0.65179324,-0.34865698,8.671577,4.5736537,0,1683969463.9350429
-0.008720021,0.60814524,0.7538245,-1.2976305,-1.6070337,-0.689056,-0.34865698,8.671577,4.5736537,0,1683969463.9708195
0.007866313,0.6555871,0.74120176,-1.2976305,-1.6070337,-0.689056,-0.34865698,8.671577,4.5736537,0,1683969463.975953
0.007866313,0.6555871,0.74120176,-1.2976305,-1.6070337,-0.689056,-0.3309055,8.606964,4.6954007,0,1683969463.9810908
0.007866313,0.6555871,0.74120176,0.8498663,1.2672399,0.41829,-0.3309055,8.606964,4.6954007,0,1683969463.996451
0.007866313,0.6555871,0.74120176,0.8498663,1.2672399,0.41829,-0.19636819,7.8725014,5.849895,0,1683969464.0118527
-0.060491335,0.66186786,1.2506827,0.8498663,1.2672399,0.41829,-0.19636819,7.8725014,5.849895,0,1683969464.0169897
-0.060491335,0.66186786,1.2506827,0.9062186,1.4127786,0.4642576,-0.19636819,7.8725014,5.849895,0,1683969464.0221167
-0.061710916,0.64967203,1.2221445,0.9062186,1.4127786,0.4642576,-0.19636819,7.8725014,5.849895,0,1683969464.0476573
-0.061710916,0.64967203,1.2221445,0.9062186,1.4127786,0.4642576,-0.26019913,7.937988,5.7581916,0,1683969464.0579267
-0.061710916,0.64967203,1.2221445,1.0296134,1.594511,0.54702985,-0.26019913,7.937988,5.7581916,0,1683969464.06306
-0.061710916,0.64967203,1.2221445,1.0296134,1.594511,0.54702985,-0.30423868,7.9884343,5.685814,0,1683969464.0887158
-0.061710916,0.64967203,1.2221445,1.1959214,1.7508925,0.6264423,-0.30423868,7.9884343,5.685814,0,1683969464.0938516
-0.04463675,0.6465621,1.1723244,1.1959214,1.7508925,0.6264423,-0.30423868,7.9884343,5.685814,0,1683969464.098987
-0.04463675,0.6465621,1.1723244,1.1959214,1.7508925,0.6264423,-0.34854904,8.045737,5.6018505,0,1683969464.12465
-0.030550564,0.6420496,1.1225655,1.1959214,1.7508925,0.6264423,-0.34854904,8.045737,5.6018505,0,1683969464.1297905
-0.030550564,0.6420496,1.1225655,1.3518448,1.8590157,0.675617,-0.34854904,8.045737,5.6018505,0,1683969464.1399887
-0.013354438,0.6374762,1.0534151,1.3518448,1.8590157,0.675617,-0.34854904,8.045737,5.6018505,0,1683969464.1552923
-0.013354438,0.6374762,1.0534151,1.5066991,1.9402608,0.712727,-0.34854904,8.045737,5.6018505,0,1683969464.1655593
-0.013354438,0.6374762,1.0534151,1.5066991,1.9402608,0.712727,-0.39254656,8.110502,5.504706,0,1683969464.1706896
-0.013354438,0.6374762,1.0534151,1.703245,2.019215,0.74036866,-0.39254656,8.110502,5.504706,0,1683969464.1963055
0.0073175007,0.6236949,0.9848135,1.703245,2.019215,0.74036866,-0.39254656,8.110502,5.504706,0,1683969464.201433
0.0073175007,0.6236949,0.9848135,1.703245,2.019215,0.74036866,-0.45574254,8.220981,5.3332815,0,1683969464.2116966
0.017257104,0.6050353,0.9088945,1.703245,2.019215,0.74036866,-0.45574254,8.220981,5.3332815,0,1683969464.2167935
0.017257104,0.6050353,0.9088945,1.8338175,2.1099286,0.745561,-0.45574254,8.220981,5.3332815,0,1683969464.2219284
0.017257104,0.6050353,0.9088945,1.8338175,2.1099286,0.745561,-0.4966887,8.302058,5.202427,0,1683969464.2321882
0.054759294,0.48923588,-0.075980045,1.8338175,2.1099286,0.745561,-0.4966887,8.302058,5.202427,0,1683969464.2679048
0.054759294,0.48923588,-0.075980045,1.3031282,2.4486532,1.4520267,-0.4966887,8.302058,5.202427,0,1683969464.2730372
0.054759294,0.48923588,-0.075980045,1.3031282,2.4486532,1.4520267,-0.065557815,9.607812,1.980348,0,1683969464.2781796
0.01689123,0.4334399,-0.08909056,1.3031282,2.4486532,1.4520267,-0.065557815,9.607812,1.980348,0,1683969464.2935445
0.01689123,0.4334399,-0.08909056,1.0213667,2.578615,1.6597209,-0.065557815,9.607812,1.980348,0,1683969464.3038146
0.01689123,0.4334399,-0.08909056,1.0213667,2.578615,1.6597209,0.022038156,9.632266,1.8587861,0,1683969464.3140347
0.084761046,0.5017976,-0.1039085,1.0213667,2.578615,1.6597209,0.022038156,9.632266,1.8587861,0,1683969464.3294332
0.084761046,0.5017976,-0.1039085,0.91782504,2.5702155,1.8994855,0.022038156,9.632266,1.8587861,0,1683969464.3447688
0.084761046,0.5017976,-0.1039085,0.91782504,2.5702155,1.8994855,0.18453112,9.657426,1.7135354,0,1683969464.3498716
0.16927817,0.5948518,-0.12543415,0.91782504,2.5702155,1.8994855,0.18453112,9.657426,1.7135354,0,1683969464.3703995
0.16927817,0.5948518,-0.12543415,0.9295842,2.437047,2.0587685,0.18453112,9.657426,1.7135354,0,1683969464.3755245
0.16927817,0.5948518,-0.12543415,0.9295842,2.437047,2.0587685,0.32346594,9.668359,1.6292133,0,1683969464.380652
0.16927817,0.5948518,-0.12543415,1.0051788,2.1813998,2.1372647,0.32346594,9.668359,1.6292133,0,1683969464.3959987
0.28507763,0.6976017,-0.15507002,1.0051788,2.1813998,2.1372647,0.32346594,9.668359,1.6292133,0,1683969464.4011323
0.28507763,0.6976017,-0.15507002,1.0051788,2.1813998,2.1372647,0.48033884,9.675688,1.5448245,0,1683969464.421662
0.28507763,0.6976017,-0.15507002,1.0062478,2.054798,2.1024454,0.48033884,9.675688,1.5448245,0,1683969464.442153
0.34782517,0.77364266,-0.19074284,1.0062478,2.054798,2.1024454,0.48033884,9.675688,1.5448245,0,1683969464.452334
0.34782517,0.77364266,-0.19074284,1.0062478,2.054798,2.1024454,0.6467576,9.679388,1.4585167,0,1683969464.4625485
0.34782517,0.77364266,-0.19074284,0.8539896,1.9092593,1.9278907,0.6467576,9.679388,1.4585167,0,1683969464.4676826
0.34782517,0.77364266,-0.19074284,0.8539896,1.9092593,1.9278907,0.8110606,9.679014,1.3765843,0,1683969464.4779441
0.4170365,0.86553836,-0.25013652,0.8539896,1.9092593,1.9278907,0.8110606,9.679014,1.3765843,0,1683969464.4830792
0.43411067,0.9206634,-0.2613567,0.8539896,1.9092593,1.9278907,0.8110606,9.679014,1.3765843,0,1683969464.5036206
0.43411067,0.9206634,-0.2613567,0.8539896,1.9092593,1.9278907,1.0362906,9.670172,1.2845234,0,1683969464.5087554
0.43411067,0.9206634,-0.2613567,0.54458636,1.8741345,1.7214183,1.0362906,9.670172,1.2845234,0,1683969464.5138867
0.43411067,0.9206634,-0.2613567,0.54458636,1.8741345,1.7214183,2.301675,9.487811,0.9590919,0,1683969464.5446658
0.43411067,0.9206634,-0.2613567,-0.66523224,-0.5830709,-0.977079,2.301675,9.487811,0.9590919,0,1683969464.554903
0.606011,1.2126927,-0.31971377,-0.66523224,-0.5830709,-0.977079,2.301675,9.487811,0.9590919,0,1683969464.5651374
0.606011,1.2126927,-0.31971377,-0.66523224,-0.5830709,-0.977079,2.2265418,9.501924,0.9960194,0,1683969464.5907247
0.606011,1.2126927,-0.31971377,-0.67363167,-0.72586066,-1.0630583,2.2265418,9.501924,0.9960194,0,1683969464.595858
0.56759405,1.1668364,-0.26891813,-0.67363167,-0.72586066,-1.0630583,2.2265418,9.501924,0.9960194,0,1683969464.6009564
0.56759405,1.1668364,-0.26891813,-0.67363167,-0.72586066,-1.0630583,2.146774,9.516476,1.0315857,0,1683969464.6214585
0.56759405,1.1668364,-0.26891813,-0.65377855,-0.86834496,-1.134224,2.146774,9.516476,1.0315857,0,1683969464.6317275
0.544361,1.1320783,-0.23605035,-0.65377855,-0.86834496,-1.134224,2.146774,9.516476,1.0315857,0,1683969464.6368604
0.544361,1.1320783,-0.23605035,-0.62873304,-1.0552697,-1.2331842,2.146774,9.516476,1.0315857,0,1683969464.6572714
0.52765274,1.0972592,-0.21037814,-0.62873304,-1.0552697,-1.2331842,2.146774,9.516476,1.0315857,0,1683969464.6623633
0.52765274,1.0972592,-0.21037814,-0.62873304,-1.0552697,-1.2331842,2.062376,9.531589,1.0637442,0,1683969464.6777472
0.5099078,1.0692697,-0.18769388,-0.62873304,-1.0552697,-1.2331842,2.062376,9.531589,1.0637442,0,1683969464.6931481
0.5099078,1.0692697,-0.18769388,-0.62598413,-1.1905763,-1.3154984,2.062376,9.531589,1.0637442,0,1683969464.6982825
0.5099078,1.0692697,-0.18769388,-0.62598413,-1.1905763,-1.3154984,1.9264083,9.555233,1.1056974,0,1683969464.7034063
0.5099078,1.0692697,-0.18769388,-0.6711882,-1.2980887,-1.4068227,1.9264083,9.555233,1.1056974,0,1683969464.7342136
0.48484537,1.0392679,-0.16836348,-0.6711882,-1.2980887,-1.4068227,1.9264083,9.555233,1.1056974,0,1683969464.7393103
0.48484537,1.0392679,-0.16836348,-0.6711882,-1.2980887,-1.4068227,1.8289595,9.571156,1.1331477,0,1683969464.7444475
0.48484537,1.0392679,-0.16836348,-0.6711882,-1.2980887,-1.4068227,1.7264138,9.586375,1.1649191,0,1683969464.7648547
0.4554534,1.0068271,-0.14909407,-0.6711882,-1.2980887,-1.4068227,1.7264138,9.586375,1.1649191,0,1683969464.769944
0.4554534,1.0068271,-0.14909407,-0.75640386,-1.329701,-1.4668401,1.7264138,9.586375,1.1649191,0,1683969464.7750845
0.43246427,0.97975224,-0.13750802,-0.75640386,-1.329701,-1.4668401,1.7264138,9.586375,1.1649191,0,1683969464.7956185
0.43246427,0.97975224,-0.13750802,-0.8698721,-1.3356569,-1.5224289,1.7264138,9.586375,1.1649191,0,1683969464.8007526
0.43246427,0.97975224,-0.13750802,-0.8698721,-1.3356569,-1.5224289,1.6193013,9.600079,1.2051977,0,1683969464.8058875
0.43246427,0.97975224,-0.13750802,-0.8698721,-1.3356569,-1.5224289,-1.1181623,8.615908,4.5554323,0,1683969464.8264174
0.43246427,0.97975224,-0.13750802,-0.8698721,-1.3356569,-1.5224289,-1.1369675,8.53528,4.700257,0,1683969464.8469374
0.43246427,0.97975224,-0.13750802,-1.4489723,-2.095726,-1.3414601,-1.1369675,8.53528,4.700257,0,1683969464.8571348
-0.08854175,0.4803939,0.5716187,-1.4489723,-2.095726,-1.3414601,-1.1369675,8.53528,4.700257,0,1683969464.8673475
-0.08854175,0.4803939,0.5716187,-1.4489723,-2.095726,-1.3414601,-1.1500341,8.454061,4.841735,0,1683969464.882747
-0.10640865,0.4984437,0.6072915,-1.4489723,-2.095726,-1.3414601,-1.1500341,8.454061,4.841735,0,1683969464.8878822
-0.10640865,0.4984437,0.6072915,-1.4304937,-1.9860756,-1.2832751,-1.1500341,8.454061,4.841735,0,1683969464.90325
-0.10640865,0.4984437,0.6072915,-1.4304937,-1.9860756,-1.2832751,-1.160449,8.372262,4.9794292,0,1683969464.918573
-0.14476454,0.50905406,0.63174415,-1.4304937,-1.9860756,-1.2832751,-1.160449,8.372262,4.9794292,0,1683969464.923706
-0.14476454,0.50905406,0.63174415,-1.3839152,-1.8675678,-1.2189816,-1.160449,8.372262,4.9794292,0,1683969464.9288452
-0.14848427,0.5186888,0.6137553,-1.3839152,-1.8675678,-1.2189816,-1.160449,8.372262,4.9794292,0,1683969464.944248
-0.14848427,0.5186888,0.6137553,-1.3839152,-1.8675678,-1.2189816,-1.1707481,8.250608,5.1761875,0,1683969464.9545116
-0.14848427,0.5186888,0.6137553,-1.344209,-1.8216002,-1.1458305,-1.1707481,8.250608,5.1761875,0,1683969464.9699104
-0.14848427,0.5186888,0.6137553,-1.344209,-1.8216002,-1.1458305,-1.1697114,8.170458,5.3020287,0,1683969464.980174
-0.14848427,0.5186888,0.6137553,-1.3471106,-1.8238909,-1.0896308,-1.1697114,8.170458,5.3020287,0,1683969464.9955847
-0.14994776,0.5336287,0.61082834,-1.3471106,-1.8238909,-1.0896308,-1.1697114,8.170458,5.3020287,0,1683969465.005823
-0.14994776,0.5336287,0.61082834,-1.379181,-1.8558086,-1.0421361,-1.1697114,8.170458,5.3020287,0,1683969465.0212243
-0.13458103,0.535702,0.63509804,-1.379181,-1.8558086,-1.0421361,-1.1697114,8.170458,5.3020287,0,1683969465.0263577
-0.13458103,0.535702,0.63509804,-1.379181,-1.8558086,-1.0421361,-1.1612427,8.088776,5.427645,0,1683969465.046843
-0.11823861,0.5202133,0.72918886,-1.379181,-1.8558086,-1.0421361,-1.1612427,8.088776,5.427645,0,1683969465.0571082
-0.11823861,0.5202133,0.72918886,-1.4107933,-1.9958495,-0.9793697,-1.1612427,8.088776,5.427645,0,1683969465.0622432
-0.11823861,0.5202133,0.72918886,-1.4107933,-1.9958495,-0.9793697,-1.1428969,8.00425,5.5553484,0,1683969465.072467
-0.11823861,0.5202133,0.72918886,1.9620992,1.3771957,0.87781334,-1.1428969,8.00425,5.5553484,0,1683969465.1031969
-0.15507002,0.47758886,1.2128756,1.9620992,1.3771957,0.87781334,-1.1428969,8.00425,5.5553484,0,1683969465.113456
-0.15507002,0.47758886,1.2128756,1.9620992,1.3771957,0.87781334,-0.6446144,7.760615,5.966022,0,1683969465.1339478
-0.15507002,0.47758886,1.2128756,2.1242838,1.5337299,1.0207558,-0.6446144,7.760615,5.966022,0,1683969465.1442156
-0.17281497,0.45539245,1.1246997,2.1242838,1.5337299,1.0207558,-0.6446144,7.760615,5.966022,0,1683969465.1493554
-0.17281497,0.45539245,1.1246997,2.1242838,1.5337299,1.0207558,-0.657758,7.8633995,5.828413,0,1683969465.1544917
-0.17281497,0.45539245,1.1246997,2.2915082,1.6534595,1.1699597,-0.657758,7.8633995,5.828413,0,1683969465.1904073
-0.13830076,0.46716142,1.0251209,2.2915082,1.6534595,1.1699597,-0.657758,7.8633995,5.828413,0,1683969465.1955328
-0.13830076,0.46716142,1.0251209,2.2915082,1.6534595,1.1699597,-0.66614354,7.9733653,5.676075,0,1683969465.2006693
-0.13830076,0.46716142,1.0251209,2.2915082,1.6534595,1.1699597,-0.6617561,8.15078,5.418762,0,1683969465.210947
-0.13830076,0.46716142,1.0251209,2.475226,1.7437148,1.2754866,-0.6617561,8.15078,5.418762,0,1683969465.2263546
-0.03420931,0.5215548,0.89145446,2.475226,1.7437148,1.2754866,-0.6617561,8.15078,5.418762,0,1683969465.241747
-0.03420931,0.5215548,0.89145446,2.5815165,1.79854,1.2672399,-0.6617561,8.15078,5.418762,0,1683969465.2468865
-0.03420931,0.5215548,0.89145446,2.5815165,1.79854,1.2672399,-0.65010816,8.274084,5.23001,0,1683969465.262249
0.023659917,0.5537518,0.79675376,2.5815165,1.79854,1.2672399,-0.65010816,8.274084,5.23001,0,1683969465.2775311
0.06451596,0.5605205,0.6507087,2.5815165,1.79854,1.2672399,-0.65010816,8.274084,5.23001,0,1683969465.2980185
0.06451596,0.5605205,0.6507087,2.5815165,1.79854,1.2672399,-0.6365557,8.398358,5.02976,0,1683969465.3031511
0.06451596,0.5605205,0.6507087,2.6700919,1.8223637,1.2017246,-0.6365557,8.398358,5.02976,0,1683969465.313362
0.043051295,0.5290553,0.5417389,2.6700919,1.8223637,1.2017246,-0.6365557,8.398358,5.02976,0,1683969465.3338954
0.043051295,0.5290553,0.5417389,2.6719246,1.8061758,1.149343,-0.6365557,8.398358,5.02976,0,1683969465.339036
0.043051295,0.5290553,0.5417389,2.6719246,1.8061758,1.149343,-0.62256944,8.520527,4.821737,0,1683969465.3441708
0.043051295,0.5290553,0.5417389,2.6719246,1.8061758,1.149343,-0.6077469,8.637846,4.610246,0,1683969465.3698413
-0.0071345624,0.48795533,0.47569847,2.6719246,1.8061758,1.149343,-0.6077469,8.637846,4.610246,0,1683969465.3749735
-0.0071345624,0.48795533,0.47569847,2.6192374,1.8044959,1.146594,-0.6077469,8.637846,4.610246,0,1683969465.380097
-0.0071345624,0.48795533,0.47569847,1.3691018,2.1285598,1.7125608,-0.6077469,8.637846,4.610246,0,1683969465.3903635
0.082016975,0.47411305,-0.005549104,1.3691018,2.1285598,1.7125608,-0.6077469,8.637846,4.610246,0,1683969465.3954895
0.082016975,0.47411305,-0.005549104,1.3691018,2.1285598,1.7125608,0.34115553,9.632846,1.8242869,0,1683969465.4006367
0.14677685,0.4978339,0.06738198,1.3691018,2.1285598,1.7125608,0.34115553,9.632846,1.8242869,0,1683969465.4314263
0.14677685,0.4978339,0.06738198,1.3003794,2.2007947,1.8216002,0.34115553,9.632846,1.8242869,0,1683969465.436559
0.14677685,0.4978339,0.06738198,1.3003794,2.2007947,1.8216002,0.46247238,9.648859,1.7093142,0,1683969465.451958
0.14677685,0.4978339,0.06738198,1.2753339,2.3448062,1.9550742,0.46247238,9.648859,1.7093142,0,1683969465.457088
0.14677685,0.4978339,0.06738198,1.2753339,2.3448062,1.9550742,0.5969996,9.659287,1.6055753,0,1683969465.472453
0.22800112,0.5450928,0.09677394,1.2753339,2.3448062,1.9550742,0.5969996,9.659287,1.6055753,0,1683969465.4827228
0.22800112,0.5450928,0.09677394,1.2753339,2.3448062,1.9550742,0.82330525,9.66589,1.4590646,0,1683969465.508328
0.38075393,0.6696122,0.023720896,1.2753339,2.3448062,1.9550742,0.82330525,9.66589,1.4590646,0,1683969465.5134666
0.38075393,0.6696122,0.023720896,1.2782356,2.5416577,2.0468566,0.82330525,9.66589,1.4590646,0,1683969465.5237277
0.38075393,0.6696122,0.023720896,1.2782356,2.5416577,2.0468566,0.98007965,9.665295,1.3629562,0,1683969465.5288584
0.38075393,0.6696122,0.023720896,1.2600623,2.5879307,1.9940169,0.98007965,9.665295,1.3629562,0,1683969465.539136
0.47027132,0.77906984,-0.12519024,1.2600623,2.5879307,1.9940169,0.98007965,9.665295,1.3629562,0,1683969465.5442624
0.47027132,0.77906984,-0.12519024,1.2600623,2.5879307,1.9940169,1.1315755,9.661447,1.2696925,0,1683969465.5699265
0.53673863,0.87810004,-0.32215294,1.2600623,2.5879307,1.9940169,1.1315755,9.661447,1.2696925,0,1683969465.5852563
0.53673863,0.87810004,-0.32215294,1.1597277,2.3973405,1.8015944,1.1315755,9.661447,1.2696925,0,1683969465.5903907
0.53673863,0.87810004,-0.32215294,1.0170907,2.1143572,1.6070337,1.1315755,9.661447,1.2696925,0,1683969465.5955188
0.49143112,0.9086505,-0.39465716,1.0170907,2.1143572,1.6070337,1.1315755,9.661447,1.2696925,0,1683969465.6006486
0.49143112,0.9086505,-0.39465716,1.0170907,2.1143572,1.6070337,1.271521,9.654967,1.1836292,0,1683969465.6160493
0.49143112,0.9086505,-0.39465716,0.78542,1.8480201,1.4850134,1.271521,9.654967,1.1836292,0,1683969465.6416981
0.39221802,0.8484642,-0.37276566,0.78542,1.8480201,1.4850134,1.271521,9.654967,1.1836292,0,1683969465.6468387
0.39221802,0.8484642,-0.37276566,0.78542,1.8480201,1.4850134,1.3976107,9.646352,1.1093724,0,1683969465.651973
0.39221802,0.8484642,-0.37276566,-0.73624533,-1.2924381,-1.0862712,1.3976107,9.646352,1.1093724,0,1683969465.66223
0.5433854,1.1337856,-0.28648013,-0.73624533,-1.2924381,-1.0862712,1.3976107,9.646352,1.1093724,0,1683969465.6775882
0.5433854,1.1337856,-0.28648013,-0.73624533,-1.2924381,-1.0862712,2.25282,9.506972,0.88227236,0,1683969465.6827135
0.51204205,1.0858561,-0.2695889,-0.73624533,-1.2924381,-1.0862712,2.25282,9.506972,0.88227236,0,1683969465.7134538
0.51204205,1.0858561,-0.2695889,-0.8060367,-1.3585643,-1.2108877,2.25282,9.506972,0.88227236,0,1683969465.7185907
0.51204205,1.0858561,-0.2695889,-0.8060367,-1.3585643,-1.2108877,2.1740723,9.52247,0.9121809,0,1683969465.7237263
0.51204205,1.0858561,-0.2695889,-0.93722,-1.3967434,-1.3223705,2.1740723,9.52247,0.9121809,0,1683969465.73913
0.51204205,1.0858561,-0.2695889,-0.93722,-1.3967434,-1.3223705,2.0386004,9.5467005,0.96991044,0,1683969465.7494068
0.46027076,1.024328,-0.25422215,-0.93722,-1.3967434,-1.3223705,2.0386004,9.5467005,0.96991044,0,1683969465.7596736
0.42221975,0.9685931,-0.24800226,-0.93722,-1.3967434,-1.3223705,2.0386004,9.5467005,0.96991044,0,1683969465.769938
0.42221975,0.9685931,-0.24800226,-0.93722,-1.3967434,-1.3223705,1.940061,9.561858,1.0213425,0,1683969465.78533
0.42221975,0.9685931,-0.24800226,-1.0679451,-1.401783,-1.3816245,1.940061,9.561858,1.0213425,0,1683969465.795561
0.42221975,0.9685931,-0.24800226,-1.2258538,-1.3920091,-1.4106406,1.940061,9.561858,1.0213425,0,1683969465.810833
0.35764283,0.90127206,-0.22781818,-1.2258538,-1.3920091,-1.4106406,1.940061,9.561858,1.0213425,0,1683969465.8159661
0.35764283,0.90127206,-0.22781818,-1.2258538,-1.3920091,-1.4106406,1.8376951,9.575026,1.0852971,0,1683969465.8262327
0.31514034,0.8585867,-0.21684194,-1.2258538,-1.3920091,-1.4106406,1.8376951,9.575026,1.0852971,0,1683969465.83646
0.31514034,0.8585867,-0.21684194,-1.2258538,-1.3920091,-1.4106406,1.7340796,9.58545,1.1611314,0,1683969465.8518686
0.31514034,0.8585867,-0.21684194,-1.3249667,-1.4283557,-1.4037683,1.7340796,9.58545,1.1611314,0,1683969465.8570094
0.31514034,0.8585867,-0.21684194,-1.3249667,-1.4283557,-1.4037683,1.6323485,9.5926485,1.2460493,0,1683969465.8928611
0.29751736,0.83053625,-0.20037755,-1.3249667,-1.4283557,-1.4037683,1.6323485,9.5926485,1.2460493,0,1683969465.8980033
0.29751736,0.83053625,-0.20037755,-1.3836098,-1.4950926,-1.3744467,1.6323485,9.5926485,1.2460493,0,1683969465.903107
0.29751736,0.83053625,-0.20037755,-1.4175128,-1.5995506,-1.3388638,1.6323485,9.5926485,1.2460493,0,1683969465.90824
0.29751736,0.83053625,-0.20037755,-1.4175128,-1.5995506,-1.3388638,1.4888017,9.5973215,1.3823941,0,1683969465.9338634
0.082077965,0.5100298,0.83157295,-1.4175128,-1.5995506,-1.3388638,1.4888017,9.5973215,1.3823941,0,1683969465.9543796
0.082077965,0.5100298,0.83157295,-1.3643675,-2.4776695,-1.5428929,1.4888017,9.5973215,1.3823941,0,1683969465.959507
0.082077965,0.5100298,0.83157295,-1.3643675,-2.4776695,-1.5428929,-0.4888181,7.767895,5.9713454,0,1683969465.964642
0.08396832,0.51417637,0.895479,-1.3643675,-2.4776695,-1.5428929,-0.4888181,7.767895,5.9713454,0,1683969465.9800515
0.08396832,0.51417637,0.895479,-1.3643675,-2.4776695,-1.5428929,-0.45898739,7.680187,6.086063,0,1683969465.9851844
0.08396832,0.51417637,0.895479,-1.3129021,-2.6615398,-1.5685493,-0.45898739,7.680187,6.086063,0,1683969465.9954333
0.08396832,0.51417637,0.895479,-1.3129021,-2.6615398,-1.5685493,-0.3927464,7.5517197,6.2492704,0,1683969466.0210328
0.078663126,0.5029562,1.0006073,-1.3129021,-2.6615398,-1.5685493,-0.3927464,7.5517197,6.2492704,0,1683969466.0261676
0.078663126,0.5029562,1.0006073,-1.2705997,-2.77287,-1.5690074,-0.3927464,7.5517197,6.2492704,0,1683969466.0364044
0.078663126,0.5029562,1.0006073,-1.2542591,-2.7111726,-1.4923438,-0.3927464,7.5517197,6.2492704,0,1683969466.056927
0.078663126,0.5029562,1.0006073,-1.2542591,-2.7111726,-1.4923438,-0.33817032,7.466881,6.353539,0,1683969466.067199
0.021586625,0.4561242,1.173727,-1.2542591,-2.7111726,-1.4923438,-0.33817032,7.466881,6.353539,0,1683969466.0723295
0.021586625,0.4561242,1.173727,-1.3098478,-2.4933991,-1.2961034,-0.33817032,7.466881,6.353539,0,1683969466.0928724
-0.029270003,0.38294917,1.3067836,-1.3098478,-2.4933991,-1.2961034,-0.33817032,7.466881,6.353539,0,1683969466.0980086
-0.029270003,0.38294917,1.3067836,-1.3098478,-2.4933991,-1.2961034,-0.28020844,7.3808937,6.4560046,0,1683969466.1031516
-0.083602436,0.3436786,1.4411817,-1.3098478,-2.4933991,-1.2961034,-0.28020844,7.3808937,6.4560046,0,1683969466.1185253
-0.083602436,0.3436786,1.4411817,-1.3098478,-2.4933991,-1.2961034,-0.21977733,7.290225,6.56052,0,1683969466.1287148
-0.083602436,0.3436786,1.4411817,-1.4466816,-2.0302107,-0.91232723,-0.21977733,7.290225,6.56052,0,1683969466.1338432
-0.09793254,0.37807086,1.571738,-1.4466816,-2.0302107,-0.91232723,-0.21977733,7.290225,6.56052,0,1683969466.149236
-0.09793254,0.37807086,1.571738,-1.4466816,-2.0302107,-0.91232723,-0.12938617,7.1416626,6.7242866,0,1683969466.1749027
-0.09793254,0.37807086,1.571738,-1.5364788,-1.5532776,-0.5919284,-0.12938617,7.1416626,6.7242866,0,1683969466.180038
-0.09793254,0.37807086,1.571738,-1.5815301,-0.91904676,-0.30848694,-0.12938617,7.1416626,6.7242866,0,1683969466.2005522
-0.03866079,0.43228132,1.6470474,-1.5815301,-0.91904676,-0.30848694,-0.12938617,7.1416626,6.7242866,0,1683969466.2108238
-0.13183697,0.42984214,1.586434,-1.5815301,-0.91904676,-0.30848694,-0.12938617,7.1416626,6.7242866,0,1683969466.231327
-0.13183697,0.42984214,1.586434,-1.5815301,-0.91904676,-0.30848694,-0.13787016,6.588306,7.26714,0,1683969466.2364657
-0.13183697,0.42984214,1.586434,-1.5815301,-0.91904676,-0.30848694,-0.1633846,6.634026,7.2248955,0,1683969466.2416017
-0.14263028,0.41118255,1.5346017,-1.5815301,-0.91904676,-0.30848694,-0.1633846,6.634026,7.2248955,0,1683969466.2467396
-0.14263028,0.41118255,1.5346017,0.957684,0.66706485,0.24358252,-0.1633846,6.634026,7.2248955,0,1683969466.267235
-0.14263028,0.41118255,1.5346017,1.0604621,0.9127854,0.39187005,-0.1633846,6.634026,7.2248955,0,1683969466.2979422
-0.13470298,0.40173078,1.4697809,1.0604621,0.9127854,0.39187005,-0.1633846,6.634026,7.2248955,0,1683969466.3030772
-0.13470298,0.40173078,1.4697809,1.0604621,0.9127854,0.39187005,-0.2277118,6.749662,7.115218,0,1683969466.328761
-0.13470298,0.40173078,1.4697809,1.14018,1.1508701,0.5204572,-0.2277118,6.749662,7.115218,0,1683969466.3390257
-0.10866488,0.39618164,1.3948984,1.14018,1.1508701,0.5204572,-0.2277118,6.749662,7.115218,0,1683969466.344164
-0.10866488,0.39618164,1.3948984,1.2035573,1.3187053,0.6065892,-0.2277118,6.749662,7.115218,0,1683969466.3595686
-0.090249166,0.39801103,1.3528838,1.2035573,1.3187053,0.6065892,-0.2277118,6.749662,7.115218,0,1683969466.3647084
-0.090249166,0.39801103,1.3528838,1.2035573,1.3187053,0.6065892,-0.31244394,6.874668,6.9912395,0,1683969466.3698463
-0.090249166,0.39801103,1.3528838,1.2035573,1.3187053,0.6065892,-0.3604892,6.9454384,6.9186025,0,1683969466.390371
-0.090249166,0.39801103,1.3528838,1.2903001,1.4743233,0.6795876,-0.3604892,6.9454384,6.9186025,0,1683969466.3955038
-0.085431814,0.39154723,1.308369,1.2903001,1.4743233,0.6795876,-0.3604892,6.9454384,6.9186025,0,1683969466.405765
-0.085431814,0.39154723,1.308369,1.4355333,1.6158913,0.79443026,-0.3604892,6.9454384,6.9186025,0,1683969466.43144
-0.085431814,0.39154723,1.308369,1.4355333,1.6158913,0.79443026,-0.41135442,7.021869,6.838147,0,1683969466.4365737
-0.09018819,0.36026493,1.2406212,1.4355333,1.6158913,0.79443026,-0.41135442,7.021869,6.838147,0,1683969466.4468412
-0.09811548,0.3392881,1.2004359,1.4355333,1.6158913,0.79443026,-0.41135442,7.021869,6.838147,0,1683969466.472429
-0.09811548,0.3392881,1.2004359,1.5691601,1.6788104,0.9120218,-0.41135442,7.021869,6.838147,0,1683969466.477562
-0.09811548,0.3392881,1.2004359,1.5691601,1.6788104,0.9120218,-0.46049044,7.1053042,6.748238,0,1683969466.4878008
-0.09811548,0.3392881,1.2004359,1.5691601,1.6788104,0.9120218,1.1739733,9.643947,1.3609477,0,1683969466.4928977
-0.09811548,0.3392881,1.2004359,1.5691601,1.6788104,0.9120218,1.3134642,9.642267,1.2400022,0,1683969466.5235903
-0.09811548,0.3392881,1.2004359,1.3833044,1.8852829,1.6345227,1.3134642,9.642267,1.2400022,0,1683969466.5287225
0.4612464,0.9440795,-0.24044085,1.3833044,1.8852829,1.6345227,1.3134642,9.642267,1.2400022,0,1683969466.5338583
0.40862137,0.9226148,-0.24794129,1.3833044,1.8852829,1.6345227,1.3134642,9.642267,1.2400022,0,1683969466.554277
0.40862137,0.9226148,-0.24794129,1.0377073,2.10046,1.4839444,1.3134642,9.642267,1.2400022,0,1683969466.5593717
0.40862137,0.9226148,-0.24794129,1.0377073,2.10046,1.4839444,1.4390548,9.63648,1.1417098,0,1683969466.5645092
0.33934906,0.8991378,-0.25214887,1.0377073,2.10046,1.4839444,1.4390548,9.63648,1.1417098,0,1683969466.5850167
0.33934906,0.8991378,-0.25214887,0.63423085,2.3906212,1.4607315,1.4390548,9.63648,1.1417098,0,1683969466.5901132
0.33934906,0.8991378,-0.25214887,0.63423085,2.3906212,1.4607315,1.5538135,9.626518,1.0732863,0,1683969466.5952177
0.3617894,0.9258467,-0.25397822,0.63423085,2.3906212,1.4607315,1.5538135,9.626518,1.0732863,0,1683969466.6208026
0.3617894,0.9258467,-0.25397822,0.63423085,2.3906212,1.4607315,1.720403,9.602652,1.0321915,0,1683969466.6310592
0.3617894,0.9258467,-0.25397822,0.399964,2.537687,1.538006,1.720403,9.602652,1.0321915,0,1683969466.641327
0.41996354,1.0134737,-0.27763817,0.399964,2.537687,1.538006,1.720403,9.602652,1.0321915,0,1683969466.6515915
0.41996354,1.0134737,-0.27763817,0.3494149,2.4541512,1.6381879,1.720403,9.602652,1.0321915,0,1683969466.6669886
0.41996354,1.0134737,-0.27763817,0.3494149,2.4541512,1.6381879,1.8390819,9.580732,1.0312378,0,1683969466.6721213
0.54119015,1.1254315,-0.31453055,0.3494149,2.4541512,1.6381879,1.8390819,9.580732,1.0312378,0,1683969466.6875236
0.54119015,1.1254315,-0.31453055,0.4560109,2.1960607,1.6803375,1.8390819,9.580732,1.0312378,0,1683969466.6926696
0.54119015,1.1254315,-0.31453055,0.4560109,2.1960607,1.6803375,1.9668459,9.55544,1.0301485,0,1683969466.6977577
0.54119015,1.1254315,-0.31453055,0.4560109,2.1960607,1.6803375,2.0983102,9.529212,1.013557,0,1683969466.718146
0.54119015,1.1254315,-0.31453055,0.66828656,1.8255708,1.6052011,2.0983102,9.529212,1.013557,0,1683969466.7334523
0.65906286,1.2572075,-0.3635578,0.66828656,1.8255708,1.6052011,2.0983102,9.529212,1.013557,0,1683969466.7386053
0.65906286,1.2572075,-0.3635578,0.9440922,1.3061826,1.35551,2.0983102,9.529212,1.013557,0,1683969466.7540138
0.7796187,1.4023379,-0.44362345,0.9440922,1.3061826,1.35551,2.0983102,9.529212,1.013557,0,1683969466.7591496
0.7796187,1.4023379,-0.44362345,0.9440922,1.3061826,1.35551,2.2238746,9.5049715,0.9726493,0,1683969466.7642827
0.7796187,1.4023379,-0.44362345,0.9440922,1.3061826,1.35551,1.4535176,9.650022,1.0002482,0,1683969466.78481
0.3035543,0.8623674,-0.22952558,0.9440922,1.3061826,1.35551,1.4535176,9.650022,1.0002482,0,1683969466.7899408
0.3035543,0.8623674,-0.22952558,-1.2276864,-1.5312865,-1.53205,1.4535176,9.650022,1.0002482,0,1683969466.800169
0.2584297,0.8043152,-0.19470648,-1.2276864,-1.5312865,-1.53205,1.4535176,9.650022,1.0002482,0,1683969466.8154972
0.2584297,0.8043152,-0.19470648,-1.2276864,-1.5312865,-1.53205,1.3385508,9.657778,1.0824676,0,1683969466.8308835
0.2584297,0.8043152,-0.19470648,-1.3550519,-1.5445728,-1.5302174,1.3385508,9.657778,1.0824676,0,1683969466.8360143
0.2584297,0.8043152,-0.19470648,-1.4633276,-1.5244142,-1.4918857,1.3385508,9.657778,1.0824676,0,1683969466.8462758
0.21629311,0.76754475,-0.17116854,-1.4633276,-1.5244142,-1.4918857,1.3385508,9.657778,1.0824676,0,1683969466.8616426
0.21629311,0.76754475,-0.17116854,-1.4633276,-1.5244142,-1.4918857,1.2246724,9.661969,1.1758611,0,1683969466.8719022
0.1662292,0.7273595,-0.13744704,-1.4633276,-1.5244142,-1.4918857,1.2246724,9.661969,1.1758611,0,1683969466.8821626
0.1662292,0.7273595,-0.13744704,-1.6846136,-1.4468343,-1.3142766,1.1151264,9.661948,1.2803848,0,1683969466.8924258
0.14561825,0.7104683,-0.11958014,-1.7537941,-1.450805,-1.2377657,0.96385884,9.653145,1.4573525,0,1683969466.8975818
0.14561825,0.7104683,-0.11958014,-1.7537941,-1.450805,-1.2377657,0.8738623,9.641317,1.5866654,0,1683969466.9026735
0.14561825,0.7104683,-0.11958014,-1.7832683,-1.481501,-1.2072225,0.8738623,9.641317,1.5866654,0,1683969466.907798
0.14561825,0.7104683,-0.11958014,-1.7832683,-1.481501,-1.2072225,0.83224916,9.633696,1.6538985,0,1683969466.912891
0.16750978,0.7265058,-0.11128698,-1.7832683,-1.481501,-1.2072225,0.83224916,9.633696,1.6538985,0,1683969466.9179862
0.16750978,0.7265058,-0.11128698,-1.8191566,-1.5777122,-1.2472341,0.83224916,9.633696,1.6538985,0,1683969466.9332654
0.21525647,0.7542513,-0.10768921,-1.8191566,-1.5777122,-1.2472341,0.83224916,9.633696,1.6538985,0,1683969466.9435043
0.21525647,0.7542513,-0.10768921,-1.8191566,-1.5777122,-1.2472341,0.27439997,7.905933,5.80147,0,1683969466.95891
0.21525647,0.7542513,-0.10768921,-1.597718,-1.8156443,-0.7130325,0.27439997,7.905933,5.80147,0,1683969466.964045
0.17549805,0.60832816,1.0178033,-1.597718,-1.8156443,-0.7130325,0.27439997,7.905933,5.80147,0,1683969466.969177
0.17549805,0.60832816,1.0178033,-1.6814066,-1.7426459,-0.713796,0.27439997,7.905933,5.80147,0,1683969466.9948
0.15439926,0.57344806,1.1500062,-1.6814066,-1.7426459,-0.713796,0.27439997,7.905933,5.80147,0,1683969467.004997
0.15439926,0.57344806,1.1500062,-1.6814066,-1.7426459,-0.713796,0.32279503,7.81583,5.919858,0,1683969467.0152235
0.15439926,0.57344806,1.1500062,-1.682781,-1.622,-0.6241516,0.32279503,7.81583,5.919858,0,1683969467.0203385
0.15439926,0.57344806,1.1500062,-1.682781,-1.622,-0.6241516,0.36908844,7.719339,6.0424905,0,1683969467.0305505
0.12640981,0.5294821,1.2917827,-1.682781,-1.622,-0.6241516,0.36908844,7.719339,6.0424905,0,1683969467.0356858
0.12640981,0.5294821,1.2917827,-1.6077974,-1.4416419,-0.47448957,0.36908844,7.719339,6.0424905,0,1683969467.071594
0.06738198,0.51137125,1.5123444,-1.6077974,-1.4416419,-0.47448957,0.36908844,7.719339,6.0424905,0,1683969467.0767345
0.06738198,0.51137125,1.5123444,-1.6077974,-1.4416419,-0.47448957,0.41654447,7.619947,6.1643343,0,1683969467.081827
0.06738198,0.51137125,1.5123444,-1.6077974,-1.4416419,-0.47448957,0.46542522,7.521441,6.2807174,0,1683969467.1023564
0.05573496,0.53057975,1.6119843,-1.6077974,-1.4416419,-0.47448957,0.46542522,7.521441,6.2807174,0,1683969467.1125956
0.05573496,0.53057975,1.6119843,-1.4760032,-1.1600331,-0.2921463,0.46542522,7.521441,6.2807174,0,1683969467.1177316
0.05573496,0.53057975,1.6119843,-1.2812898,-0.7367035,-0.12705997,0.46542522,7.521441,6.2807174,0,1683969467.127981
0.090919934,0.60515726,1.7127218,-1.2812898,-0.7367035,-0.12705997,0.46542522,7.521441,6.2807174,0,1683969467.1433413
0.090919934,0.60515726,1.7127218,-1.2812898,-0.7367035,-0.12705997,0.5336091,7.3835635,6.436953,0,1683969467.1484795
0.090919934,0.60515726,1.7127218,-1.2812898,-0.7367035,-0.12705997,0.5673657,7.3011203,6.5274687,0,1683969467.1843345
0.12256813,0.62845135,1.7128439,-1.2812898,-0.7367035,-0.12705997,0.5673657,7.3011203,6.5274687,0,1683969467.1894684
0.12256813,0.62845135,1.7128439,-1.1629347,-0.5035057,-0.08124508,0.5673657,7.3011203,6.5274687,0,1683969467.194607
0.15092343,0.6358298,1.7139415,-1.1629347,-0.5035057,-0.08124508,0.5673657,7.3011203,6.5274687,0,1683969467.199751
0.15092343,0.6358298,1.7139415,-1.1629347,-0.5035057,-0.08124508,0.5887201,7.2271338,6.607425,0,1683969467.2048843
0.03152623,0.53436047,1.2505608,-1.1629347,-0.5035057,-0.08124508,0.5887201,7.2271338,6.607425,0,1683969467.220212
0.03152623,0.53436047,1.2505608,-1.1629347,-0.5035057,-0.08124508,0.260126,7.5795283,6.2224746,0,1683969467.2355366
0.03152623,0.53436047,1.2505608,1.4770721,1.676825,0.61621034,0.260126,7.5795283,6.2224746,0,1683969467.245721
0.038904708,0.52686,1.1896425,1.4770721,1.676825,0.61621034,0.260126,7.5795283,6.2224746,0,1683969467.2559738
0.038904708,0.52686,1.1896425,1.6821702,1.7449366,0.6719518,0.260126,7.5795283,6.2224746,0,1683969467.2662482
0.038904708,0.52686,1.1896425,1.6821702,1.7449366,0.6719518,0.20877667,7.6545844,6.131872,0,1683969467.271343
0.038904708,0.52686,1.1896425,1.9892827,1.7733418,0.7113526,0.20877667,7.6545844,6.131872,0,1683969467.2969403
0.054759294,0.5246038,1.1059792,1.9892827,1.7733418,0.7113526,0.20877667,7.6545844,6.131872,0,1683969467.3122401
0.054759294,0.5246038,1.1059792,1.9892827,1.7733418,0.7113526,0.13696226,7.7871423,5.964711,0,1683969467.3173378
0.054759294,0.5246038,1.1059792,2.250275,1.753336,0.72265357,0.13696226,7.7871423,5.964711,0,1683969467.337753
0.054759294,0.5246038,1.1059792,2.250275,1.753336,0.72265357,0.094140686,7.8904867,5.828162,0,1683969467.342885
0.04927117,0.5077735,1.0120102,2.250275,1.753336,0.72265357,0.094140686,7.8904867,5.828162,0,1683969467.3531163
0.04927117,0.5077735,1.0120102,2.5557075,1.6514742,0.75915277,0.094140686,7.8904867,5.828162,0,1683969467.3633204
0.040307228,0.4841136,0.9185901,2.5557075,1.6514742,0.75915277,0.094140686,7.8904867,5.828162,0,1683969467.3786342
0.040307228,0.4841136,0.9185901,2.5557075,1.6514742,0.75915277,0.05765991,8.004984,5.670363,0,1683969467.3888998
0.040307228,0.4841136,0.9185901,2.7605,1.5758796,0.7959574,0.05765991,8.004984,5.670363,0,1683969467.4042618
0.028904125,0.46002686,0.8338291,2.7605,1.5758796,0.7959574,0.05765991,8.004984,5.670363,0,1683969467.409379
0.028904125,0.46002686,0.8338291,2.7605,1.5758796,0.7959574,0.03101093,8.128412,5.4921823,0,1683969467.414518
0.028904125,0.46002686,0.8338291,2.7605,1.5758796,0.7959574,0.013845038,8.257261,5.2965612,0,1683969467.4400868
0.028904125,0.46002686,0.8338291,2.8608346,1.5558738,0.82711154,0.013845038,8.257261,5.2965612,0,1683969467.4503613
0.011951917,0.43502536,0.76358116,2.8608346,1.5558738,0.82711154,0.013845038,8.257261,5.2965612,0,1683969467.4605803
0.0005488125,0.40606028,0.6735149,2.8608346,1.5558738,0.82711154,0.013845038,8.257261,5.2965612,0,1683969467.470829
0.0005488125,0.40606028,0.6735149,2.8608346,1.5558738,0.82711154,0.0038407438,8.386847,5.088902,0,1683969467.4810915
0.0005488125,0.40606028,0.6735149,2.93872,1.6094772,0.8712466,0.0038407438,8.386847,5.088902,0,1683969467.4862256
0.0005488125,0.40606028,0.6735149,1.6378825,1.2702943,0.87888235,0.0038407438,8.386847,5.088902,0,1683969467.511822
0.0005488125,0.40606028,0.6735149,1.6378825,1.2702943,0.87888235,2.2422163,9.549343,-0.13654944,0,1683969467.5220618
0.54606843,1.0626229,-0.529787,1.6378825,1.2702943,0.87888235,2.2422163,9.549343,-0.13654944,0,1683969467.5271919
0.4466724,0.9909115,-0.59655917,1.6378825,1.2702943,0.87888235,2.2422163,9.549343,-0.13654944,0,1683969467.5424802
0.4466724,0.9909115,-0.59655917,1.1468995,1.5815301,0.75625116,2.2422163,9.549343,-0.13654944,0,1683969467.5527444
0.4466724,0.9909115,-0.59655917,1.1468995,1.5815301,0.75625116,2.3251588,9.526945,-0.25897086,0,1683969467.5630157
0.4466724,0.9909115,-0.59655917,1.1468995,1.5815301,0.75625116,2.4374573,9.495187,-0.36927506,0,1683969467.5784204
0.4466724,0.9909115,-0.59655917,0.7431176,1.8278615,0.8016079,2.4374573,9.495187,-0.36927506,0,1683969467.5835528
0.41392657,0.9915823,-0.65387964,0.7431176,1.8278615,0.8016079,2.4374573,9.495187,-0.36927506,0,1683969467.5989542
0.41392657,0.9915823,-0.65387964,0.7431176,1.8278615,0.8016079,2.518392,9.473007,-0.39487946,0,1683969467.619407
0.41392657,0.9915823,-0.65387964,0.39660427,1.8880317,0.88606006,2.518392,9.473007,-0.39487946,0,1683969467.6245325
0.45764863,1.0800631,-0.7018092,0.39660427,1.8880317,0.88606006,2.518392,9.473007,-0.39487946,0,1683969467.6347477
0.45764863,1.0800631,-0.7018092,0.39660427,1.8880317,0.88606006,2.6043284,9.449633,-0.39756098,0,1683969467.6501288
0.58027774,1.2123878,-0.729006,0.39660427,1.8880317,0.88606006,2.6043284,9.449633,-0.39756098,0,1683969467.6552253
0.58027774,1.2123878,-0.729006,0.29840767,1.7165314,0.8729264,2.6043284,9.449633,-0.39756098,0,1683969467.6603549
0.67046595,1.2983074,-0.7268107,0.29840767,1.7165314,0.8729264,2.6043284,9.449633,-0.39756098,0,1683969467.6911407
0.67046595,1.2983074,-0.7268107,0.29840767,1.7165314,0.8729264,2.6879704,9.426324,-0.3941848,0,1683969467.6962724
0.67046595,1.2983074,-0.7268107,0.29825497,1.4692836,0.75686204,2.6879704,9.426324,-0.3941848,0,1683969467.7065415
0.67046595,1.2983074,-0.7268107,0.29825497,1.4692836,0.75686204,2.7604308,9.405325,-0.3949952,0,1683969467.7218633
0.67046595,1.2983074,-0.7268107,0.3173445,1.204779,0.5520695,2.7604308,9.405325,-0.3949952,0,1683969467.7372005
0.74327505,1.3811172,-0.7541904,0.3173445,1.204779,0.5520695,2.7604308,9.405325,-0.3949952,0,1683969467.7423308
0.76748383,1.4279492,-0.79577816,0.3173445,1.204779,0.5520695,2.7604308,9.405325,-0.3949952,0,1683969467.757673
0.76748383,1.4279492,-0.79577816,0.2687807,0.9243918,0.22143865,2.7604308,9.405325,-0.3949952,0,1683969467.7730634
0.76748383,1.4279492,-0.79577816,-1.0958922,-1.2533427,-1.3581061,2.7604308,9.405325,-0.3949952,0,1683969467.778197
0.44130626,0.9850575,-0.4875894,-1.0958922,-1.2533427,-1.3581061,2.7604308,9.405325,-0.3949952,0,1683969467.783287
0.44130626,0.9850575,-0.4875894,-1.0958922,-1.2533427,-1.3581061,2.0776322,9.5851555,-0.21058047,0,1683969467.803768
0.44130626,0.9850575,-0.4875894,-1.0958922,-1.2533427,-1.3581061,1.9035293,9.622898,-0.11195313,0,1683969467.8191338
0.42612243,0.9594462,-0.47697908,-1.0958922,-1.2533427,-1.3581061,1.9035293,9.622898,-0.11195313,0,1683969467.8293233
0.42612243,0.9594462,-0.47697908,-1.2557862,-1.3112222,-1.3917037,1.9035293,9.622898,-0.11195313,0,1683969467.8446543
0.4255736,0.9357863,-0.46142936,-1.2557862,-1.3112222,-1.3917037,1.9035293,9.622898,-0.11195313,0,1683969467.8600333
0.4255736,0.9357863,-0.46142936,-1.4217888,-1.36788,-1.4387404,1.9035293,9.622898,-0.11195313,0,1683969467.865168
0.4255736,0.9357863,-0.46142936,-1.4217888,-1.36788,-1.4387404,1.7853495,9.646122,-0.030888503,0,1683969467.8754153
0.42337835,0.90785784,-0.4293543,-1.4217888,-1.36788,-1.4387404,1.7853495,9.646122,-0.030888503,0,1683969467.8959432
0.42337835,0.90785784,-0.4293543,-1.5351044,-1.4144585,-1.4928019,1.7853495,9.646122,-0.030888503,0,1683969467.9062047
0.42337835,0.90785784,-0.4293543,-1.5351044,-1.4144585,-1.4928019,1.6651483,9.667445,0.062460545,0,1683969467.9164305
0.42337835,0.90785784,-0.4293543,-1.6442965,-1.4905112,-1.5748106,1.6651483,9.667445,0.062460545,0,1683969467.9266317
0.40709692,0.8952962,-0.40618226,-1.6442965,-1.4905112,-1.5748106,1.6651483,9.667445,0.062460545,0,1683969467.9421813
0.40709692,0.8952962,-0.40618226,-1.6442965,-1.4905112,-1.5748106,1.5412211,9.686736,0.16704735,0,1683969467.9521863
0.3755097,0.8474884,-0.3612406,-1.6442965,-1.4905112,-1.5748106,1.5412211,9.686736,0.16704735,0,1683969467.9573207
0.3755097,0.8474884,-0.3612406,-1.7218764,-1.5540411,-1.6383406,1.5412211,9.686736,0.16704735,0,1683969467.9624536
0.3755097,0.8474884,-0.3612406,-1.7218764,-1.5540411,-1.6383406,1.3472892,9.711083,0.34026995,0,1683969467.9675903
0.35325232,0.8118157,-0.319104,-1.7218764,-1.5540411,-1.6383406,1.3472892,9.711083,0.34026995,0,1683969467.9983346
0.35325232,0.8118157,-0.319104,-1.7704402,-1.5925257,-1.6751453,1.3472892,9.711083,0.34026995,0,1683969468.008569
0.35325232,0.8118157,-0.319104,-1.7704402,-1.5925257,-1.6751453,1.2807181,9.717724,0.40216216,0,1683969468.0188327
0.35325232,0.8118157,-0.319104,-1.8335121,-1.6569719,-1.7069103,1.2807181,9.717724,0.40216216,0,1683969468.0341256
0.35325232,0.8118157,-0.319104,-1.8335121,-1.6569719,-1.7069103,1.0791359,9.732078,0.5985444,0,1683969468.0443285
0.32654345,0.76358116,-0.27025968,-1.8335121,-1.6569719,-1.7069103,1.0791359,9.732078,0.5985444,0,1683969468.049465
0.07378479,0.5434463,0.14189851,-1.8335121,-1.6569719,-1.7069103,1.0791359,9.732078,0.5985444,0,1683969468.0751317
0.07378479,0.5434463,0.14189851,-2.5463917,-2.1890357,-1.6546812,1.0791359,9.732078,0.5985444,0,1683969468.0853968
0.07378479,0.5434463,0.14189851,-2.5463917,-2.1890357,-1.6546812,-0.19024882,9.465989,2.5680685,0,1683969468.0905252
0.07378479,0.5434463,0.14189851,-2.6117544,-2.162463,-1.6270396,-0.19024882,9.465989,2.5680685,0,1683969468.1058683
0.07378479,0.5434463,0.14189851,-2.6117544,-2.162463,-1.6270396,-0.27453673,9.400106,2.792622,0,1683969468.121266
0.050063897,0.52466476,0.17860797,-2.6117544,-2.162463,-1.6270396,-0.27453673,9.400106,2.792622,0,1683969468.1263573
0.050063897,0.52466476,0.17860797,-2.6513078,-2.1319196,-1.6030631,-0.27453673,9.400106,2.792622,0,1683969468.141639
0.0336605,0.5017366,0.27056456,-2.6513078,-2.1319196,-1.6030631,-0.27453673,9.400106,2.792622,0,1683969468.1570227
0.0336605,0.5017366,0.27056456,-2.6513078,-2.1319196,-1.6030631,-0.35252398,9.325934,3.0230417,0,1683969468.1621497
0.04183171,0.49435812,0.34666657,-2.6513078,-2.1319196,-1.6030631,-0.35252398,9.325934,3.0230417,0,1683969468.1723788
0.04183171,0.49435812,0.34666657,-2.617252,-2.1181753,-1.5968018,-0.35252398,9.325934,3.0230417,0,1683969468.1826465
0.04183171,0.49435812,0.34666657,-2.617252,-2.1181753,-1.5968018,-0.42425558,9.243276,3.2585266,0,1683969468.1980293
0.04183171,0.49435812,0.34666657,-2.5068383,-2.1736112,-1.5716035,-0.42425558,9.243276,3.2585266,0,1683969468.2031643
0.04183171,0.49435812,0.34666657,-2.5068383,-2.1736112,-1.5716035,-0.5197821,9.107692,3.607751,0,1683969468.2134397
0.0131715005,0.47801572,0.3916082,-2.5068383,-2.1736112,-1.5716035,-0.5197821,9.107692,3.607751,0,1683969468.223698
0.0131715005,0.47801572,0.3916082,-2.3718371,-2.2988386,-1.5054774,-0.5197821,9.107692,3.607751,0,1683969468.2543292
-0.014817937,0.44368443,0.4133168,-2.3718371,-2.2988386,-1.5054774,-0.5197821,9.107692,3.607751,0,1683969468.264585
-0.014817937,0.44368443,0.4133168,-2.3718371,-2.2988386,-1.5054774,-0.57111907,9.013652,3.8293633,0,1683969468.2697132
-0.03195308,0.41606086,0.4253907,-2.3718371,-2.2988386,-1.5054774,-0.57111907,9.013652,3.8293633,0,1683969468.2799838
-0.03195308,0.41606086,0.4253907,-2.2516494,-2.4582744,-1.3833044,-0.57111907,9.013652,3.8293633,0,1683969468.2902026
-0.03195308,0.41606086,0.4253907,-2.2516494,-2.4582744,-1.3833044,-0.60709494,8.918694,4.040354,0,1683969468.3004224
-0.030672522,0.42874455,0.44325754,-2.2516494,-2.4582744,-1.3833044,-0.60709494,8.918694,4.040354,0,1683969468.3106859
-0.030672522,0.42874455,0.44325754,1.7724255,0.6073528,0.61086524,-0.60709494,8.918694,4.040354,0,1683969468.336244
-0.033538543,0.36666775,1.5765554,1.7724255,0.6073528,0.61086524,-0.60709494,8.918694,4.040354,0,1683969468.3515809
-0.033538543,0.36666775,1.5765554,1.7724255,0.6073528,0.61086524,0.31344596,6.0179954,7.740904,0,1683969468.3669276
-0.033538543,0.36666775,1.5765554,1.7724255,0.6073528,0.61086524,0.3000123,6.1328163,7.650796,0,1683969468.3823237
-0.033538543,0.36666775,1.5765554,1.813659,0.9262244,0.74372846,0.3000123,6.1328163,7.650796,0,1683969468.3874538
0.00219525,0.4177073,1.5025266,1.813659,0.9262244,0.74372846,0.3000123,6.1328163,7.650796,0,1683969468.4028504
0.00219525,0.4177073,1.5025266,1.813659,0.9262244,0.74372846,0.2758951,6.2477427,7.558155,0,1683969468.4233336
0.00219525,0.4177073,1.5025266,1.794264,1.2284501,0.8226828,0.2758951,6.2477427,7.558155,0,1683969468.4335399
0.03286777,0.44563577,1.4474015,1.794264,1.2284501,0.8226828,0.2758951,6.2477427,7.558155,0,1683969468.4386425
0.060125455,0.46441734,1.399106,1.794264,1.2284501,0.8226828,0.2758951,6.2477427,7.558155,0,1683969468.4437366
0.060125455,0.46441734,1.399106,1.762499,1.5451837,0.88071495,0.2758951,6.2477427,7.558155,0,1683969468.4591103
0.060125455,0.46441734,1.399106,1.762499,1.5451837,0.88071495,0.2376959,6.3602247,7.465062,0,1683969468.4693797
0.064942814,0.45844138,1.355079,1.762499,1.5451837,0.88071495,0.2376959,6.3602247,7.465062,0,1683969468.500153
0.064942814,0.45844138,1.355079,1.762499,1.5451837,0.88071495,0.15129264,6.523819,7.3248215,0,1683969468.505297
0.064942814,0.45844138,1.355079,1.774869,1.892766,0.9230174,0.15129264,6.523819,7.3248215,0,1683969468.5104308
0.064942814,0.45844138,1.355079,1.774869,1.892766,0.9230174,0.11577816,6.5785155,7.276389,0,1683969468.5206623
0.05933273,0.43844023,1.3303825,1.774869,1.892766,0.9230174,0.11577816,6.5785155,7.276389,0,1683969468.5257967
0.05933273,0.43844023,1.3303825,1.8533652,2.0494528,0.95203346,0.11577816,6.5785155,7.276389,0,1683969468.5309322
0.034026377,0.38733968,1.270379,1.8533652,2.0494528,0.95203346,0.11577816,6.5785155,7.276389,0,1683969468.5667653
0.034026377,0.38733968,1.270379,2.0971005,2.1965187,1.0173961,0.11577816,6.5785155,7.276389,0,1683969468.5769968
0.034026377,0.38733968,1.270379,2.0971005,2.1965187,1.0173961,-0.0004969037,6.7532935,7.115416,0,1683969468.582128
0.014330104,0.33032414,1.1909841,2.0971005,2.1965187,1.0173961,-0.0004969037,6.7532935,7.115416,0,1683969468.597411
0.014330104,0.33032414,1.1909841,2.4578164,2.1813998,1.1293371,-0.0004969037,6.7532935,7.115416,0,1683969468.6025403
0.014330104,0.33032414,1.1909841,2.4578164,2.1813998,1.1293371,1.9439173,9.561346,1.0188142,0,1683969468.6128037
0.46350268,0.7579711,-0.3009322,2.4578164,2.1813998,1.1293371,1.9439173,9.561346,1.0188142,0,1683969468.6179357
0.46350268,0.7579711,-0.3009322,1.5758796,2.530662,2.0839667,1.9439173,9.561346,1.0188142,0,1683969468.6332932
0.5594229,0.88047814,-0.34666657,1.5758796,2.530662,2.0839667,1.9439173,9.561346,1.0188142,0,1683969468.6435537
0.5594229,0.88047814,-0.34666657,1.5470163,2.323884,2.0164661,1.9439173,9.561346,1.0188142,0,1683969468.664068
0.5594229,0.88047814,-0.34666657,1.5470163,2.323884,2.0164661,2.1111226,9.536114,0.91750884,0,1683969468.6692038
0.5594229,0.88047814,-0.34666657,1.5470163,2.323884,2.0164661,2.273939,9.507543,0.8197364,0,1683969468.6794565
0.64704996,0.97828877,-0.38709575,1.5470163,2.323884,2.0164661,2.273939,9.507543,0.8197364,0,1683969468.6845894
0.64704996,0.97828877,-0.38709575,1.5076154,2.160783,1.8327484,2.273939,9.507543,0.8197364,0,1683969468.7101917
0.64704996,0.97828877,-0.38709575,1.3782647,1.9251418,1.4781412,2.273939,9.507543,0.8197364,0,1683969468.7306652
0.64704996,0.97828877,-0.38709575,1.3782647,1.9251418,1.4781412,2.4891052,9.464523,0.6806487,0,1683969468.735787
0.66595346,1.0843315,-0.5073467,1.3782647,1.9251418,1.4781412,2.4891052,9.464523,0.6806487,0,1683969468.7460465
0.66595346,1.0843315,-0.5073467,1.3782647,1.9251418,1.4781412,2.603168,9.439349,0.5986181,0,1683969468.7614326
0.66595346,1.0843315,-0.5073467,1.1693488,1.7272215,1.219287,2.603168,9.439349,0.5986181,0,1683969468.7665684
0.5962543,1.0514638,-0.57546043,1.1693488,1.7272215,1.219287,2.603168,9.439349,0.5986181,0,1683969468.7716951
0.5962543,1.0514638,-0.57546043,0.9456194,1.578934,1.1151345,2.603168,9.439349,0.5986181,0,1683969468.802422
0.5962543,1.0514638,-0.57546043,0.9456194,1.578934,1.1151345,2.6533396,9.427536,0.5634553,0,1683969468.8075476
0.55856913,1.0073758,-0.5538128,0.9456194,1.578934,1.1151345,2.6533396,9.427536,0.5634553,0,1683969468.8178053
0.55856913,1.0073758,-0.5538128,0.9456194,1.578934,1.1151345,2.7939284,9.391317,0.48295897,0,1683969468.8434079
0.53551906,1.0042049,-0.4856381,0.9456194,1.578934,1.1151345,2.7939284,9.391317,0.48295897,0,1683969468.8485417
0.53551906,1.0042049,-0.4856381,0.80649483,1.4735597,1.1184943,2.7939284,9.391317,0.48295897,0,1683969468.8536751
0.53551906,1.0042049,-0.4856381,0.7996226,1.3141239,1.1630874,2.7939284,9.391317,0.48295897,0,1683969468.8639388
0.53551906,1.0042049,-0.4856381,0.7996226,1.3141239,1.1630874,2.8895,9.364411,0.44128004,0,1683969468.8690755
0.6077794,1.0428658,-0.43154958,0.7996226,1.3141239,1.1630874,2.8895,9.364411,0.44128004,0,1683969468.884414
0.6077794,1.0428658,-0.43154958,0.7996226,1.3141239,1.1630874,1.7897661,9.593417,0.9996149,0,1683969468.894676
0.6077794,1.0428658,-0.43154958,-2.113441,-1.3626876,-1.859932,1.7897661,9.593417,0.9996149,0,1683969468.90494
0.4269761,0.8491959,-0.21708584,-2.113441,-1.3626876,-1.859932,1.7897661,9.593417,0.9996149,0,1683969468.9151866
0.4269761,0.8491959,-0.21708584,-2.2487476,-1.3151928,-1.9743165,1.7897661,9.593417,0.9996149,0,1683969468.930572
0.43301308,0.8469397,-0.1797666,-2.2487476,-1.3151928,-1.9743165,1.7897661,9.593417,0.9996149,0,1683969468.935702
0.43301308,0.8469397,-0.1797666,-2.2487476,-1.3151928,-1.9743165,1.6472256,9.601423,1.1556175,0,1683969468.9561028
0.43301308,0.8469397,-0.1797666,-2.2487476,-1.3151928,-1.9743165,1.4967982,9.604006,1.3262041,0,1683969468.9765506
0.43301308,0.8469397,-0.1797666,-2.4181101,-1.2814425,-2.1255057,1.4967982,9.604006,1.3262041,0,1683969468.9868226
0.41301188,0.82614577,-0.17354672,-2.4181101,-1.2814425,-2.1255057,1.4967982,9.604006,1.3262041,0,1683969468.9919698
0.3849615,0.78986317,-0.1460451,-2.4181101,-1.2814425,-2.1255057,1.4967982,9.604006,1.3262041,0,1683969469.0124564
0.3849615,0.78986317,-0.1460451,-2.5433373,-1.2841915,-2.245846,1.4967982,9.604006,1.3262041,0,1683969469.0175898
0.3849615,0.78986317,-0.1460451,-2.5433373,-1.2841915,-2.245846,1.2552309,9.595628,1.6076277,0,1683969469.0227273
0.3849615,0.78986317,-0.1460451,-2.6648996,-1.311375,-2.357329,1.2552309,9.595628,1.6076277,0,1683969469.048335
0.35898435,0.7482754,-0.12573905,-2.6648996,-1.311375,-2.357329,1.2552309,9.595628,1.6076277,0,1683969469.0534313
0.35898435,0.7482754,-0.12573905,-2.6648996,-1.311375,-2.357329,1.0849725,9.580257,1.8104215,0,1683969469.0636659
0.35898435,0.7482754,-0.12573905,-2.7731755,-1.3370314,-2.4433084,1.0849725,9.580257,1.8104215,0,1683969469.0687582
0.35898435,0.7482754,-0.12573905,-2.7731755,-1.3370314,-2.4433084,0.9088991,9.555498,2.0254533,0,1683969469.073895
0.32160413,0.71010244,-0.089517415,-2.7731755,-1.3370314,-2.4433084,0.9088991,9.555498,2.0254533,0,1683969469.099553
0.32160413,0.71010244,-0.089517415,-2.7731755,-1.3370314,-2.4433084,0.72989947,9.520221,2.2513916,0,1683969469.120098
0.32160413,0.71010244,-0.089517415,-2.876717,-1.356579,-2.5071437,0.72989947,9.520221,2.2513916,0,1683969469.1252007
0.2872119,0.6655876,-0.056222793,-2.876717,-1.356579,-2.5071437,0.72989947,9.520221,2.2513916,0,1683969469.1354535
0.2872119,0.6655876,-0.056222793,-3.0211868,-1.3736832,-2.5189028,0.72989947,9.520221,2.2513916,0,1683969469.145716
0.2872119,0.6655876,-0.056222793,-3.0211868,-1.3736832,-2.5189028,0.5507981,9.473445,2.4872823,0,1683969469.150848
0.23672113,0.58820504,-0.019452354,-3.0211868,-1.3736832,-2.5189028,0.5507981,9.473445,2.4872823,0,1683969469.1559806
0.23672113,0.58820504,-0.019452354,-3.0211868,-1.3736832,-2.5189028,-1.1157788,6.98387,6.7982864,0,1683969469.1662538
0.23672113,0.58820504,-0.019452354,-3.408628,-1.6103935,-2.3113613,-1.1157788,6.98387,6.7982864,0,1683969469.1867754
-0.08274873,0.13909347,0.7575442,-3.408628,-1.6103935,-2.3113613,-1.1157788,6.98387,6.7982864,0,1683969469.1919124
-0.10653061,0.095920235,0.7497389,-3.408628,-1.6103935,-2.3113613,-1.1157788,6.98387,6.7982864,0,1683969469.197054
-0.10653061,0.095920235,0.7497389,-3.2679763,-1.658041,-2.2322543,-1.1157788,6.98387,6.7982864,0,1683969469.202188
-0.10653061,0.095920235,0.7497389,-3.2679763,-1.658041,-2.2322543,-1.1584188,6.7356,7.037462,0,1683969469.2124093
-0.10653061,0.095920235,0.7497389,-3.127172,-1.8161024,-2.098933,-1.1584188,6.7356,7.037462,0,1683969469.2380693
-0.10896978,0.04853942,0.76291037,-3.127172,-1.8161024,-2.098933,-1.1584188,6.7356,7.037462,0,1683969469.2431793
-0.10896978,0.04853942,0.76291037,-3.127172,-1.8161024,-2.098933,-1.1893164,6.3661084,7.3684664,0,1683969469.2585738
-0.08915155,0.00079272914,0.79461956,-3.127172,-1.8161024,-2.098933,-1.1893164,6.3661084,7.3684664,0,1683969469.279111
-0.08915155,0.00079272914,0.79461956,-3.060893,-1.9709567,-2.0002782,-1.1893164,6.3661084,7.3684664,0,1683969469.2893682
-0.08915155,0.00079272914,0.79461956,-3.060893,-1.9709567,-2.0002782,-1.1802679,6.120844,7.5748496,0,1683969469.2945082
-0.06744295,-0.038904708,0.88834447,-3.060893,-1.9709567,-2.0002782,-1.1802679,6.120844,7.5748496,0,1683969469.3149865
-0.06744295,-0.038904708,0.88834447,-3.060893,-1.9709567,-2.0002782,-1.1664517,5.997383,7.675083,0,1683969469.3201146
-0.06744295,-0.038904708,0.88834447,-3.017827,-2.1250474,-1.922393,-1.1664517,5.997383,7.675083,0,1683969469.3303866
-0.047258858,-0.09000525,1.0489026,-3.017827,-2.1250474,-1.922393,-1.1664517,5.997383,7.675083,0,1683969469.3406415
-0.047258858,-0.09000525,1.0489026,-2.9023736,-2.2699752,-1.8344283,-1.1664517,5.997383,7.675083,0,1683969469.3508995
-0.047258858,-0.09000525,1.0489026,-2.9023736,-2.2699752,-1.8344283,-1.089631,5.6268673,7.9616065,0,1683969469.3713472
-0.07537025,-0.13854466,1.2599516,-2.9023736,-2.2699752,-1.8344283,-1.089631,5.6268673,7.9616065,0,1683969469.396974
-0.07537025,-0.13854466,1.2599516,-2.7302623,-2.3258693,-1.7197384,-1.089631,5.6268673,7.9616065,0,1683969469.4020486
-0.07537025,-0.13854466,1.2599516,-2.7302623,-2.3258693,-1.7197384,-1.0134487,5.3845577,8.137295,0,1683969469.4071324
-0.07537025,-0.13854466,1.2599516,-2.4233024,-2.290592,-1.5096008,-1.0134487,5.3845577,8.137295,0,1683969469.4173214
-0.13482493,-0.16055815,1.4775862,-2.4233024,-2.290592,-1.5096008,-1.0134487,5.3845577,8.137295,0,1683969469.4325695
-0.13482493,-0.16055815,1.4775862,-2.4233024,-2.290592,-1.5096008,-0.00912363,5.6754093,8.00161,0,1683969469.4376566
-0.13482493,-0.16055815,1.4775862,-2.4233024,-2.290592,-1.5096008,-0.041554593,5.87047,7.8595147,0,1683969469.463223
-0.13482493,-0.16055815,1.4775862,3.0028608,1.3949108,1.1276573,-0.041554593,5.87047,7.8595147,0,1683969469.4683611
0.016708292,0.34825203,1.1928744,3.0028608,1.3949108,1.1276573,-0.041554593,5.87047,7.8595147,0,1683969469.473459
0.016708292,0.34825203,1.1928744,3.1383202,1.5065464,1.1155926,-0.041554593,5.87047,7.8595147,0,1683969469.4989293
0.016708292,0.34825203,1.1928744,3.1383202,1.5065464,1.1155926,-0.09628004,6.178262,7.619444,0,1683969469.5040638
0.033111688,0.3358123,1.1058571,3.1383202,1.5065464,1.1155926,-0.09628004,6.178262,7.619444,0,1683969469.5091968
0.033111688,0.3358123,1.1058571,3.229492,1.6458237,1.1032226,-0.09628004,6.178262,7.619444,0,1683969469.5297098
0.04116094,0.31471348,1.0231085,3.229492,1.6458237,1.1032226,-0.09628004,6.178262,7.619444,0,1683969469.5399904
0.04116094,0.31471348,1.0231085,3.229492,1.6458237,1.1032226,-0.13801074,6.3885927,7.443316,0,1683969469.5451052
0.04116094,0.31471348,1.0231085,3.229492,1.6458237,1.1032226,-0.16078696,6.493858,7.3511953,0,1683969469.5552728
0.030123709,0.30806676,0.94365263,3.229492,1.6458237,1.1032226,-0.16078696,6.493858,7.3511953,0,1683969469.5655055
0.030123709,0.30806676,0.94365263,3.2607987,1.7455474,1.0945178,-0.16078696,6.493858,7.3511953,0,1683969469.5705945
-0.0056710625,0.27105242,0.8007175,3.2607987,1.7455474,1.0945178,-0.16078696,6.493858,7.3511953,0,1683969469.5961561
-0.0056710625,0.27105242,0.8007175,3.2607987,1.7455474,1.0945178,-0.2362037,6.8051314,7.0619054,0,1683969469.6012912
-0.0056710625,0.27105242,0.8007175,3.2502613,1.8889481,1.0827587,-0.2362037,6.8051314,7.0619054,0,1683969469.6166933
-0.0757971,0.2128173,0.6794299,3.2502613,1.8889481,1.0827587,-0.2362037,6.8051314,7.0619054,0,1683969469.6269681
-0.0757971,0.2128173,0.6794299,3.2502613,1.8889481,1.0827587,-0.28956372,7.003638,6.863041,0,1683969469.6372344
-0.0757971,0.2128173,0.6794299,3.1884112,1.9549215,1.1174252,-0.28956372,7.003638,6.863041,0,1683969469.6526353
-0.1575092,0.14689882,0.59582746,3.1884112,1.9549215,1.1174252,-0.28956372,7.003638,6.863041,0,1683969469.6679597
-0.1575092,0.14689882,0.59582746,3.1383202,1.9465221,1.2501358,-0.28956372,7.003638,6.863041,0,1683969469.6730497
-0.1575092,0.14689882,0.59582746,3.1383202,1.9465221,1.2501358,-0.36172384,7.285273,6.5597296,0,1683969469.6781447
-0.23562351,0.1203119,0.5407023,3.1383202,1.9465221,1.2501358,-0.36172384,7.285273,6.5597296,0,1683969469.7037635
0.7417506,1.0359142,0.84565914,3.1383202,1.9465221,1.2501358,-0.36172384,7.285273,6.5597296,0,1683969469.7191715
0.7417506,1.0359142,0.84565914,3.1383202,1.9465221,1.2501358,1.690521,7.1815786,6.465538,0,1683969469.7242913
0.7417506,1.0359142,0.84565914,-2.5248587,2.0619757,2.8009698,1.690521,7.1815786,6.465538,0,1683969469.7294297
0.8845028,1.1087233,1.0404266,-2.5248587,2.0619757,2.8009698,1.690521,7.1815786,6.465538,0,1683969469.7498777
0.8845028,1.1087233,1.0404266,-2.5248587,2.0619757,2.8009698,1.7475799,6.989687,6.6578035,0,1683969469.7652762
0.8845028,1.1087233,1.0404266,-2.41979,2.2592852,2.5334108,1.7475799,6.989687,6.6578035,0,1683969469.7704048
0.8845028,1.1087233,1.0404266,-2.2203424,2.4569001,2.118939,1.7475799,6.989687,6.6578035,0,1683969469.790824
0.97060543,1.1357371,1.0723796,-2.2203424,2.4569001,2.118939,1.7475799,6.989687,6.6578035,0,1683969469.8010721
0.97060543,1.1357371,1.0723796,-2.2203424,2.4569001,2.118939,1.7643493,6.8061776,6.8409886,0,1683969469.8062036
0.97060543,1.1357371,1.0723796,-2.0587685,2.5659394,1.7460055,1.7643493,6.8061776,6.8409886,0,1683969469.8318152
0.97060543,1.1357371,1.0723796,-2.0587685,2.5659394,1.7460055,1.7556864,6.7206097,6.927271,0,1683969469.8420715
0.9735324,1.1239071,1.0220718,-2.0587685,2.5659394,1.7460055,1.7556864,6.7206097,6.927271,0,1683969469.847136
0.9735324,1.1239071,1.0220718,-1.7777706,2.812118,1.0436633,1.7556864,6.7206097,6.927271,0,1683969469.867632
0.81754774,1.0846975,0.88084406,-1.7777706,2.812118,1.0436633,1.7556864,6.7206097,6.927271,0,1683969469.8778255
0.81754774,1.0846975,0.88084406,-1.7777706,2.812118,1.0436633,1.6614921,6.4933887,7.163202,0,1683969469.8829112
0.5952786,0.9976192,0.5698503,-1.7777706,2.812118,1.0436633,1.6614921,6.4933887,7.163202,0,1683969469.913585
0.5952786,0.9976192,0.5698503,-1.7777706,2.812118,1.0436633,1.5390058,6.365483,7.3039846,0,1683969469.918684
0.5952786,0.9976192,0.5698503,-1.6111571,3.2209396,0.73532903,1.5390058,6.365483,7.3039846,0,1683969469.9237645
0.5952786,0.9976192,0.5698503,-1.9698877,2.329382,0.73746705,1.5390058,6.365483,7.3039846,0,1683969469.9441593
0.3485569,0.98932606,0.3621553,-1.9698877,2.329382,0.73746705,1.5390058,6.365483,7.3039846,0,1683969469.949299
0.3485569,0.98932606,0.3621553,-1.9698877,2.329382,0.73746705,1.3098295,6.190765,7.4963255,0,1683969469.9544306
0.35233763,0.99511904,0.708395,-1.9698877,2.329382,0.73746705,1.3098295,6.190765,7.4963255,0,1683969469.9748783
0.35233763,0.99511904,0.708395,-1.9698877,2.329382,0.73746705,1.2191955,6.0487823,7.626395,0,1683969469.9902132
0.35233763,0.99511904,0.708395,1.0601566,-0.17654006,-0.015271631,1.2191955,6.0487823,7.626395,0,1683969470.0004354
0.35233763,0.99511904,0.708395,1.0601566,-0.17654006,-0.015271631,0.24675778,5.2717576,8.269449,0,1683969470.0158315
-0.03683142,0.47374716,0.91816336,1.0601566,-0.17654006,-0.015271631,0.24675778,5.2717576,8.269449,0,1683969470.020967
-0.0160985,0.49161404,0.89255214,1.0601566,-0.17654006,-0.015271631,0.24675778,5.2717576,8.269449,0,1683969470.0414684
-0.0160985,0.49161404,0.89255214,0.9825767,-0.10293079,0.13148874,0.24675778,5.2717576,8.269449,0,1683969470.0465767
-0.0160985,0.49161404,0.89255214,0.9825767,-0.10293079,0.13148874,0.26240727,5.385823,8.19513,0,1683969470.0619185
-0.0160985,0.49161404,0.89255214,0.9825767,-0.10293079,0.13148874,0.27402014,5.452964,8.150228,0,1683969470.0824404
-0.0160985,0.49161404,0.89255214,0.7870999,0.06658431,0.24190263,0.27402014,5.452964,8.150228,0,1683969470.0875719
0.032440916,0.5539957,0.85639143,0.7870999,0.06658431,0.24190263,0.27402014,5.452964,8.150228,0,1683969470.0978427
0.032440916,0.5539957,0.85639143,0.7870999,0.06658431,0.24190263,0.2774545,5.5039783,8.1157465,0,1683969470.1132386
0.07982173,0.62936604,0.78333837,0.7870999,0.06658431,0.24190263,0.2774545,5.5039783,8.1157465,0,1683969470.1183727
0.07982173,0.62936604,0.78333837,0.41798455,0.30558532,0.24831672,0.2774545,5.5039783,8.1157465,0,1683969470.1286209
0.07982173,0.62936604,0.78333837,0.41798455,0.30558532,0.24831672,0.26749024,5.5339737,8.095659,0,1683969470.1440141
0.07982173,0.62936604,0.78333837,0.08552113,0.45631635,0.18967366,0.26749024,5.5339737,8.095659,0,1683969470.1491432
0.08848077,0.64997697,0.73778695,0.08552113,0.45631635,0.18967366,0.26749024,5.5339737,8.095659,0,1683969470.1696346
0.08238286,0.655648,0.7111391,0.08552113,0.45631635,0.18967366,0.26749024,5.5339737,8.095659,0,1683969470.1850278
0.08238286,0.655648,0.7111391,0.08552113,0.45631635,0.18967366,0.244468,5.540844,8.091686,0,1683969470.190163
0.08238286,0.655648,0.7111391,-0.22204952,0.538325,0.12644911,0.244468,5.540844,8.091686,0,1683969470.2004247
0.07195542,0.65302587,0.7876069,-0.22204952,0.538325,0.12644911,0.244468,5.540844,8.091686,0,1683969470.2209299
0.07195542,0.65302587,0.7876069,-0.22204952,0.538325,0.12644911,0.19420592,5.5116014,8.112993,0,1683969470.2363303
0.07195542,0.65302587,0.7876069,-0.48670688,0.593761,0.0759,0.19420592,5.5116014,8.112993,0,1683969470.2414658
0.10250599,0.67253923,0.91749257,-0.48670688,0.593761,0.0759,0.19420592,5.5116014,8.112993,0,1683969470.2465997
0.10250599,0.67253923,0.91749257,-0.57009,0.6947065,0.005497787,0.19420592,5.5116014,8.112993,0,1683969470.2722452
0.10250599,0.67253923,0.91749257,0.39263365,-0.16294831,-0.23014349,0.19420592,5.5116014,8.112993,0,1683969470.2773612
-0.05921077,0.60235226,0.7777283,0.39263365,-0.16294831,-0.23014349,0.19420592,5.5116014,8.112993,0,1683969470.28245
