acc_x,acc_y,acc_z,gyr_x,gyr_y,gyr_z,grav_x,grav_y,grav_z,label,timestamp
-0.9914573,0.0044889767,-0.6672804,2.4159431,0.94314575,-4.6414948,-6.794724,7.066993,-0.24435109,0,1683807139.4305508
-1.1154501,-0.0018501864,-0.7270778,2.4159431,0.94314575,-4.6414948,-6.794724,7.066993,-0.24435109,0,1683807139.4461765
-1.1154501,-0.0018501864,-0.7270778,1.9525146,0.71310043,-4.3325424,-7.1151776,6.7319145,-0.4753576,0,1683807139.4774275
-1.5708538,-0.09898497,-0.75464857,1.1993599,0.9239197,-3.796749,-7.909715,5.7067337,-1.0197973,0,1683807139.4930515
-1.5708538,-0.09898497,-0.75464857,0.8839989,1.0666466,-3.439865,-7.909715,5.7067337,-1.0197973,0,1683807139.539928
-1.7800158,-0.1565834,-0.7985829,0.8839989,1.0666466,-3.439865,-7.909715,5.7067337,-1.0197973,0,1683807139.5555518
-1.7800158,-0.1565834,-0.7985829,2.218876,0.7972145,-4.482746,-7.909715,5.7067337,-1.0197973,0,1683807139.5871918
-1.8646997,-0.19197959,-0.83275074,0.7626343,1.0443497,-3.2267761,-8.194443,5.2420244,-1.2420433,0,1683807139.6340768
-2.078002,-0.2583588,-0.8410462,0.7626343,1.0443497,-3.2267761,-8.194443,5.2420244,-1.2420433,0,1683807139.6495109
-2.2630055,-0.3257238,-0.814446,0.4356575,-0.028438568,-1.78442,-8.408833,4.8456945,-1.4075385,0,1683807139.6721764
-2.4416547,-0.3838075,-0.76173085,0.23324966,-0.6110954,-0.66690445,-8.706771,4.269575,-1.4605625,0,1683807139.7503023
-1.1508311,-0.2583588,-0.51571673,-2.6952553,-0.7655716,6.1837196,-6.8408256,7.0257993,0.107905075,0,1683807139.7659264
-0.8816442,-0.2422531,-0.37197846,-2.6952553,-0.7655716,6.1837196,-6.8408256,7.0257993,0.107905075,0,1683807139.7815511
-0.8816442,-0.2422531,-0.37197846,-2.6952553,-0.7655716,6.1837196,-6.62836,7.2239094,0.22443178,0,1683807139.797176
-0.5531299,-0.2273606,-0.0910686,-3.22464,-0.42043686,6.69508,-5.6571617,7.9754176,0.7480824,0,1683807139.8634899
-0.33373117,-0.15951033,0.090022184,-3.22464,-0.42043686,6.69508,-5.6571617,7.9754176,0.7480824,0,1683807139.9416149
0.10606725,-0.0516384,0.33724955,-3.1437302,-0.03791809,7.03701,-1.9922533,9.259974,2.5405126,0,1683807139.9884906
0.21051179,-0.04138655,0.43464217,-3.1437302,-0.03791809,7.03701,-1.9922533,9.259974,2.5405126,0,1683807140.0041146
1.348801,0.509696,1.5082507,1.1567688,-2.803402,-2.6355743,3.4622204,7.334541,5.512526,0,1683807140.0199049
0.7899083,0.34446833,1.1995122,1.4103127,-1.362114,-2.1455765,3.3410552,7.683707,5.123086,0,1683807140.035446
1.3175602,0.74081767,0.9085932,1.2898827,-0.12216568,-2.2626686,2.8544986,8.128512,4.685029,0,1683807140.0510793
1.3175602,0.74081767,0.9085932,1.2898827,-0.12216568,-2.2626686,2.4293659,8.390758,4.4568763,0,1683807140.0667026
1.2633892,0.74984115,0.9596098,1.5924263,-0.061416626,-3.2875252,2.4293659,8.390758,4.4568763,0,1683807140.0667026
1.0903512,0.6700405,0.9903502,1.8641281,-0.03364563,-3.8062286,2.1411755,8.542376,4.314346,0,1683807140.0823286
-0.7388613,0.12872444,-0.35928497,2.2178078,1.3980293,-4.6883583,-5.457406,8.147429,-0.0805611,0,1683807140.097954
-0.8901823,0.2217039,-0.52645385,1.4432907,1.1678505,-3.6613655,-5.9933248,7.7490497,-0.4501952,0,1683807140.129202
-1.1554718,0.14945564,-0.5372062,0.55488586,1.7943001,-3.0051422,-7.1367054,6.5946326,-1.3223674,0,1683807140.160217
-1.3458287,0.07722253,-0.58625126,0.45581818,1.8167305,-2.6430511,-7.4640656,6.1373587,-1.670612,0,1683807140.1798766
-1.4012281,0.050379667,-0.6172495,0.45581818,1.8167305,-2.6430511,-7.4640656,6.1373587,-1.670612,0,1683807140.2267537
-1.5296037,0.021337805,-0.63799584,0.41215897,1.3745308,-2.1593285,-7.707318,5.732075,-1.9776136,0,1683807140.242378
-1.658222,-0.009903047,-0.6418934,0.51229477,0.903759,-1.8909645,-7.9948354,5.1999965,-2.2832081,0,1683807140.2892525
-1.658222,-0.009903047,-0.6418934,0.65288544,0.42430878,-1.5948296,-7.9948354,5.1999965,-2.2832081,0,1683807140.304879
-1.8815334,-0.10215455,-0.7087731,0.68159103,0.2762413,-1.459446,-8.036296,5.1209264,-2.3161263,0,1683807140.320504
-2.0489602,-0.17293178,-0.7802782,0.73072433,-0.07423401,-0.9705162,-8.036296,5.1209264,-2.3161263,0,1683807140.3358343
-2.1385274,-0.18611056,-0.8490991,0.67424774,-0.15514374,-0.61042786,-8.1936455,4.8159156,-2.4169264,0,1683807140.3701043
-2.1905146,-0.21613817,-0.8886506,0.67424774,-0.15514374,-0.61042786,-8.1936455,4.8159156,-2.4169264,0,1683807140.4326062
-1.8539627,-0.118760735,-0.70461774,-0.5615616,-0.72618484,2.1037865,-8.103747,5.04117,-2.2552726,0,1683807140.448231
-1.8539627,-0.118760735,-0.70461774,-0.7787895,-0.96797943,3.1733704,-8.103747,5.04117,-2.2552726,0,1683807140.620106
-1.8539627,-0.118760735,-0.70461774,-0.76597214,-1.0201836,3.3342552,-7.582194,5.9401,-1.842808,0,1683807140.6357305
-1.2352724,0.04866597,-0.57014555,-0.7905388,-1.1746597,3.9637756,-7.277506,6.36083,-1.657751,0,1683807140.6694326
-1.2352724,0.04866597,-0.57014555,-0.861969,-1.2523651,4.2577744,-7.035989,6.658586,-1.5259328,0,1683807140.7339556
-1.1213039,0.06941232,-0.59967273,-0.861969,-1.2523651,4.2577744,-7.035989,6.658586,-1.5259328,0,1683807140.7652068
-0.80792487,0.06697068,-0.47252548,-2.0144653,-0.5227089,5.6192207,-5.269678,8.23765,-0.73620623,0,1683807140.7808316
-0.612442,0.074538246,-0.394666,-2.0144653,-0.5227089,5.6192207,-5.269678,8.23765,-0.73620623,0,1683807140.7964573
-0.612442,0.074538246,-0.394666,-2.2264862,-0.36823273,5.817356,-5.269678,8.23765,-0.73620623,0,1683807140.8120825
-0.48870704,0.116273604,-0.29508957,-2.2264862,-0.36823273,5.817356,-5.269678,8.23765,-0.73620623,0,1683807140.8277082
-0.48870704,0.116273604,-0.29508957,-2.2264862,-0.36823273,5.817356,-4.289388,8.812608,-0.3308762,0,1683807140.8433318
-0.48870704,0.116273604,-0.29508957,-2.5525284,-0.027370453,6.0878563,-3.7541711,9.058965,-0.108376615,0,1683807140.8590057
-0.27149212,0.108463384,-0.18112113,-2.5525284,-0.027370453,6.0878563,-3.7541711,9.058965,-0.108376615,0,1683807140.8740132
-0.21756372,0.116030954,-0.16208847,-2.6174164,0.0068092346,6.1400604,-3.4776413,9.169314,0.008180492,0,1683807140.920898
-0.015483937,0.110419735,-0.036882404,-2.7590752,-0.010280609,6.2615585,-2.314634,9.515649,0.51505786,0,1683807140.9365234
-0.015483937,0.110419735,-0.036882404,-2.794323,-0.01455307,6.3030815,-2.314634,9.515649,0.51505786,0,1683807140.9677727
-0.015483937,0.110419735,-0.036882404,-2.939186,0.08771896,6.442604,-1.3899951,9.663063,0.92926663,0,1683807140.9833984
0.19880405,0.13433567,0.04755889,-3.3801842,0.97185135,6.561966,-1.3899951,9.663063,0.92926663,0,1683807141.0146477
0.19880405,0.13433567,0.04755889,-3.7008858,1.5812111,6.571579,0.49177396,9.606956,1.9065537,0,1683807141.0302746
0.36280337,0.1665471,0.26525912,-3.7008858,1.5812111,6.571579,0.49177396,9.606956,1.9065537,0,1683807141.0302746
0.36280337,0.1665471,0.26525912,-4.0065002,2.0861626,6.5384674,0.49177396,9.606956,1.9065537,0,1683807141.0458972
1.3485584,0.2426929,0.7609422,-4.1780663,2.2310257,5.6489944,3.0867567,8.368464,4.0756774,0,1683807141.0615227
1.600669,0.40767795,0.9693612,-4.0278625,1.6164589,4.938431,3.459049,8.010761,4.47583,0,1683807141.0927713
1.600669,0.40767795,0.9693612,-4.0278625,1.6164589,4.938431,3.7689118,7.661642,4.823373,0,1683807141.1083972
1.8039621,0.5294566,1.4789511,-4.0278625,1.6164589,4.938431,3.7689118,7.661642,4.823373,0,1683807141.124022
1.8039621,0.5294566,1.4789511,-3.1777763,0.59907913,3.0976677,4.011286,7.3461475,5.110194,0,1683807141.139647
1.8039621,0.5294566,1.4789511,-2.8752327,0.47010422,2.640648,4.011286,7.3461475,5.110194,0,1683807141.1747332
1.8039621,0.5294566,1.4789511,-2.8752327,0.47010422,2.640648,4.48929,6.889945,5.3427825,0,1683807141.190359
1.4293449,0.40035304,1.3806031,1.0992241,-1.1607742,-1.7343521,4.48929,6.889945,5.3427825,0,1683807141.190359
1.4293449,0.40035304,1.3806031,1.0992241,-1.1607742,-1.7343521,4.5210547,6.7792616,5.4563794,0,1683807141.2059844
1.3690622,0.3996251,1.3615704,1.210041,-1.0116386,-1.8366241,4.521619,6.7009997,5.551753,0,1683807141.2372324
1.3690622,0.3996251,1.3615704,1.210041,-1.0116386,-1.8366241,4.4602227,6.9537773,5.284106,0,1683807141.2528617
1.2360458,0.419871,1.2563827,1.4252663,-0.30534744,-2.0091248,4.3187585,7.162093,5.1208534,0,1683807141.2684836
1.1530756,0.48772126,0.9671622,1.6234016,0.6183052,-2.5491905,4.0016017,7.4648542,4.9430275,0,1683807141.330984
1.1530756,0.48772126,0.9671622,1.6234016,0.6183052,-2.5491905,2.7593112,8.393605,4.2548776,0,1683807141.3466077
0.82407606,0.52067584,0.9288542,2.4872398,-0.16796112,-3.9170456,2.7593112,8.393605,4.2548776,0,1683807141.3466077
0.82407606,0.52067584,0.9288542,2.4872398,-0.16796112,-3.9170456,3.5754373,7.802465,4.7442775,0,1683807141.3778577
0.5519622,0.47161555,0.63036764,3.253212,0.19533157,-4.2984962,1.7014405,8.996165,3.5134747,0,1683807141.4118946
0.46726307,0.46112105,0.43464217,3.253212,0.19533157,-4.2984962,1.3046689,9.171833,3.2164733,0,1683807141.4431458
0.46726307,0.46112105,0.43464217,3.4331894,0.29546738,-4.4091797,1.3046689,9.171833,3.2164733,0,1683807141.474396
0.46726307,0.46112105,0.43464217,3.5163689,0.27090073,-4.542427,0.88718796,9.326607,2.8978758,0,1683807141.5212703
0.0033212362,0.338114,0.11443858,2.947464,-0.044326782,-5.363674,-1.9210756,9.553212,1.1027249,0,1683807141.5525217
0.0033212362,0.338114,0.11443858,2.947464,-0.044326782,-5.363674,-2.9462276,9.3381815,0.5371094,0,1683807141.568146
0.0033212362,0.338114,0.11443858,3.081646,-0.0017356873,-5.517082,-2.9462276,9.3381815,0.5371094,0,1683807141.5837703
-0.2304847,0.21706326,-0.06152628,3.081646,-0.0017356873,-5.517082,-2.9462276,9.3381815,0.5371094,0,1683807141.6150212
-0.2304847,0.21706326,-0.06152628,3.081646,-0.0017356873,-5.517082,-2.1758091,9.51356,0.96354014,0,1683807141.6654713
-0.2304847,0.21706326,-0.06152628,3.1168938,0.04299164,-5.5799675,-2.1758091,9.51356,0.96354014,0,1683807141.6821244
-0.2304847,0.21706326,-0.06152628,3.1168938,0.04299164,-5.5799675,-3.464726,9.170895,0.24649543,0,1683807141.69775
-0.33421648,0.14971344,-0.14451168,3.031578,0.114421844,-5.5714226,-3.974959,8.964859,-0.037304033,0,1683807141.7290025
-0.44600108,0.13385037,-0.16428745,2.8761673,0.25287628,-5.506401,-4.4691563,8.723672,-0.30751666,0,1683807141.7446315
-0.44600108,0.13385037,-0.16428745,2.8026009,0.36369324,-5.464878,-4.4691563,8.723672,-0.30751666,0,1683807141.7915025
-0.44600108,0.13385037,-0.16428745,2.8026009,0.36369324,-5.464878,-4.7083316,8.591245,-0.43877012,0,1683807141.8227522
-0.44600108,0.13385037,-0.16428745,2.8026009,0.36369324,-5.464878,-5.8025923,7.833857,-1.0634841,0,1683807141.8540008
-0.9982969,0.03500189,-0.5074212,2.474556,0.18571854,-4.748974,-5.8025923,7.833857,-1.0634841,0,1683807141.8540008
-0.9982969,0.03500189,-0.5074212,2.2753525,0.08665085,-4.4262695,-5.8025923,7.833857,-1.0634841,0,1683807141.869632
-1.1337548,0.015969232,-0.5769852,2.2753525,0.08665085,-4.4262695,-6.1824684,7.5041223,-1.2789162,0,1683807141.8852515
-1.1337548,0.015969232,-0.5769852,2.2753525,0.08665085,-4.4262695,-6.5257115,7.171563,-1.4677008,0,1683807141.9165027
-1.1720628,0.017425116,-0.6013864,2.2753525,0.08665085,-4.4262695,-6.5257115,7.171563,-1.4677008,0,1683807141.9325883
-1.1720628,0.017425116,-0.6013864,2.2753525,0.08665085,-4.4262695,-6.6828375,7.0073433,-1.5515183,0,1683807141.9688697
-1.1720628,0.017425116,-0.6013864,2.2753525,0.08665085,-4.4262695,-7.0938697,6.536636,-1.7662944,0,1683807141.9844966
-1.2577325,0.046709623,-0.5628207,2.2753525,0.08665085,-4.4262695,-7.0938697,6.536636,-1.7662944,0,1683807142.0001214
-1.2577325,0.046709623,-0.5628207,1.6159248,0.2687645,-3.7317276,-7.0938697,6.536636,-1.7662944,0,1683807142.015747
-1.2577325,0.046709623,-0.5628207,2.131424,0.071697235,-4.244156,-7.0938697,6.536636,-1.7662944,0,1683807142.0313704
-1.4622539,0.00034880562,-0.5791842,0.9980202,0.95062256,-3.1724358,-7.514574,5.9623804,-2.0375426,0,1683807142.0469947
-1.6172297,-0.059448615,-0.63434094,0.73379517,1.232872,-2.6973915,-7.675926,5.7003803,-2.1808736,0,1683807142.0782497
-1.6172297,-0.059448615,-0.63434094,0.73379517,1.232872,-2.6973915,-7.8076544,5.4597683,-2.3241892,0,1683807142.0938706
-1.7634096,-0.11192112,-0.6980359,0.73379517,1.232872,-2.6973915,-7.8076544,5.4597683,-2.3241892,0,1683807142.1251194
-1.975984,-0.18661101,-0.7922438,0.5591583,0.7886696,-1.7183304,-8.00097,5.058409,-2.5626879,0,1683807142.1407459
-2.0443194,-0.1980761,-0.83811927,0.5591583,0.7886696,-1.7183304,-8.00097,5.058409,-2.5626879,0,1683807142.1561573
-2.0443194,-0.1980761,-0.83811927,0.40361404,0.22937775,-0.8213806,-8.069193,4.9066377,-2.6426144,0,1683807142.1758218
-2.0443194,-0.1980761,-0.83811927,0.21402359,0.06649017,-0.38358688,-8.139332,4.7490296,-2.7144783,0,1683807142.2070694
-2.0699492,-0.22223468,-0.89596033,0.21402359,0.06649017,-0.38358688,-8.139332,4.7490296,-2.7144783,0,1683807142.2070694
-2.012836,-0.18685366,-0.88229626,0.21402359,0.06649017,-0.38358688,-8.139332,4.7490296,-2.7144783,0,1683807142.2226934
-2.012836,-0.18685366,-0.88229626,0.21402359,0.06649017,-0.38358688,-8.168308,4.683062,-2.7419052,0,1683807142.2383196
-2.012836,-0.18685366,-0.88229626,-0.04699707,0.05367279,0.01909256,-8.168308,4.683062,-2.7419052,0,1683807142.269568
-1.9686742,-0.13974974,-0.7690558,-0.46663284,0.020694733,0.76049805,-8.145208,4.729575,-2.7307684,0,1683807142.2851946
-1.938404,-0.13291012,-0.7344027,-0.58813095,-0.09973526,1.1323357,-8.109561,4.8045926,-2.705789,0,1683807142.3320668
-1.7724483,-0.06653088,-0.6235887,-0.58813095,-0.09973526,1.1323357,-7.9939847,5.05505,-2.5909579,0,1683807142.3633194
-1.8729953,-0.106795184,-0.6819302,-0.62965393,-0.20521164,1.3294029,-7.9093556,5.22681,-2.5085719,0,1683807142.4258187
-1.5503501,-0.022353891,-0.54574436,-0.8288574,-0.7803917,2.9784393,-7.671855,5.651252,-2.3187017,0,1683807142.4414496
-1.4471188,0.004003682,-0.53573513,-0.8288574,-0.7803917,2.9784393,-7.671855,5.651252,-2.3187017,0,1683807142.4822514
-1.3482703,0.033288192,-0.5274396,-0.86610794,-0.8794594,3.2968712,-7.516081,5.898488,-2.2106009,0,1683807142.5135014
-0.94289744,0.09187237,-0.5489139,-1.1185837,-0.9743881,4.112911,-6.8898253,6.733441,-1.8334306,0,1683807142.544751
-0.94289744,0.09187237,-0.5489139,-1.3241959,-0.7942772,4.356842,-6.6191406,7.0334945,-1.6992102,0,1683807142.560374
-0.85381556,0.11260356,-0.52768224,-1.5586472,-0.6877327,4.5731354,-5.9821596,7.6440644,-1.3972942,0,1683807142.5916245
-0.64344025,0.15946484,-0.39052582,-1.9239426,-0.5396652,4.896908,-5.619455,7.9428735,-1.2259245,0,1683807142.6072493
-0.5499603,0.17728426,-0.36148396,-1.9239426,-0.5396652,4.896908,-5.619455,7.9428735,-1.2259245,0,1683807142.622872
-0.5499603,0.17728426,-0.36148396,-1.9239426,-0.5396652,4.896908,-5.2303996,8.229513,-1.043268,0,1683807142.638499
-0.5499603,0.17728426,-0.36148396,-2.0762825,-0.4587555,5.0045204,-5.2303996,8.229513,-1.043268,0,1683807142.6921718
-0.4679607,0.20656876,-0.35024637,-2.2063255,-0.41830063,5.0993156,-4.815596,8.500733,-0.8473231,0,1683807142.723421
-0.4679607,0.20656876,-0.35024637,-2.3469162,-0.42470932,5.1568604,-4.3807306,8.750654,-0.6368987,0,1683807142.7390504
-0.37766552,0.24513453,-0.3351264,-2.3469162,-0.42470932,5.1568604,-4.3807306,8.750654,-0.6368987,0,1683807142.75467
-0.33617282,0.25538638,-0.26434916,-2.5194168,-0.4523468,5.179291,-3.9296749,8.975704,-0.40593088,0,1683807142.7703006
-0.3088295,0.21804902,-0.203566,-2.66428,-0.48959732,5.2208138,-2.9799,9.342278,0.11147534,0,1683807142.7859232
-0.13970424,0.22317494,-0.022733029,-2.66428,-0.48959732,5.2208138,-2.9799,9.342278,0.11147534,0,1683807142.8171754
0.35987642,0.2531874,0.25597784,-3.202343,0.29119492,5.9761047,-0.23893541,9.684163,1.5265272,0,1683807142.87967
0.6881329,0.25490108,0.62768334,-3.9916801,2.1937752,5.79813,-0.23893541,9.684163,1.5265272,0,1683807142.8952942
0.6881329,0.25490108,0.62768334,-3.9149094,2.2502518,5.611744,2.371824,8.861576,3.4665978,0,1683807142.910923
0.79234993,0.25635698,0.7431228,-3.9149094,2.2502518,5.611744,2.371824,8.861576,3.4665978,0,1683807142.910923
0.95806295,0.28101602,0.85416436,-3.9149094,2.2502518,5.611744,2.371824,8.861576,3.4665978,0,1683807142.9265444
1.1655113,0.31835338,0.9159181,-3.744545,2.1692085,5.305996,2.7823648,8.571814,3.8668888,0,1683807142.9421694
1.1655113,0.31835338,0.9159181,-3.51223,1.9231415,4.8436356,3.1450062,8.265309,4.2383943,0,1683807142.9577951
1.6487436,0.6241498,1.2644356,-3.51223,1.9231415,4.8436356,3.4505847,7.959855,4.572152,0,1683807142.9734218
1.6487436,0.6241498,1.2644356,-3.51223,1.9231415,4.8436356,3.688599,7.6739426,4.865719,0,1683807142.9892063
1.6487436,0.6241498,1.2644356,-2.4853706,1.1476898,2.539444,3.688599,7.6739426,4.865719,0,1683807143.0098765
1.5996984,0.5838855,1.3403387,-2.8827095,1.3586426,3.3576202,3.858654,7.423253,5.1162953,0,1683807143.0254989
1.4991363,0.5333693,1.3715796,-2.0497131,1.0070992,1.8577194,3.97288,7.2131405,5.32515,0,1683807143.0879967
1.3768723,0.47502777,1.3388677,-1.2890816,0.8909416,0.9074974,4.0416718,7.0431676,5.4980955,0,1683807143.1036258
1.3104931,0.4503839,1.2414902,-1.2890816,0.8909416,0.9074974,4.0416718,7.0431676,5.4980955,0,1683807143.1192472
1.3331807,0.45795146,1.154122,-0.9705162,0.59907913,0.4930687,4.096117,6.809469,5.746595,0,1683807143.1348715
1.3331807,0.45795146,1.154122,-0.25047302,-0.41082382,-0.43579102,4.077455,6.9092026,5.6398296,0,1683807143.1502507
1.3056098,0.44917068,1.2222149,-0.25047302,-0.41082382,-0.43579102,4.077455,6.9092026,5.6398296,0,1683807143.1502507
1.3056098,0.44917068,1.2222149,1.6979027,0.84941864,-1.9537163,3.7857497,7.2195196,5.451332,0,1683807143.1689112
0.91876924,0.46234944,1.129463,1.6979027,0.84941864,-1.9537163,3.7857497,7.2195196,5.451332,0,1683807143.1689112
0.91876924,0.46234944,1.129463,1.6979027,0.84941864,-1.9537163,3.4495916,7.5051365,5.286173,0,1683807143.1845326
0.5221772,0.5641097,0.39266416,3.6505508,-0.18918991,-3.954296,1.2999508,9.122308,3.3561893,0,1683807143.2001572
0.44627407,0.5807159,0.27843788,3.5514832,-0.041122437,-3.7424088,0.956216,9.279822,3.0233986,0,1683807143.2157855
0.44627407,0.5807159,0.27843788,3.674984,-0.32457352,-4.1705894,0.39538205,9.473148,2.5047002,0,1683807143.2314084
0.32108316,0.5333693,0.033409514,3.674984,-0.32457352,-4.1705894,0.39538205,9.473148,2.5047002,0,1683807143.2314084
-0.2112094,0.33153218,-0.025417315,3.1019402,-0.47157288,-5.507469,-3.0739386,9.309093,0.24914153,0,1683807143.2470334
-0.33128953,0.27052152,-0.10741697,3.1019402,-0.47157288,-5.507469,-3.5873003,9.126946,-0.022821743,0,1683807143.2626634
-0.33128953,0.27052152,-0.10741697,3.1222343,-0.5450058,-5.5447197,-3.5873003,9.126946,-0.022821743,0,1683807143.2782848
-0.33128953,0.27052152,-0.10741697,3.0773735,-0.67611694,-5.524559,-3.5873003,9.126946,-0.022821743,0,1683807143.2939074
-1.406354,-0.037974317,-0.5655049,1.677742,0.097332,-4.0704536,-7.4766874,6.079742,-1.8183144,0,1683807143.3095317
-1.4749473,-0.047983523,-0.59016395,1.2675858,0.16021729,-3.4046173,-7.693886,5.7707887,-1.9163798,0,1683807143.3251612
-1.5930712,-0.07409845,-0.65361625,0.94688416,0.3199005,-2.9636192,-7.693886,5.7707887,-1.9163798,0,1683807143.3407843
-1.6953319,-0.11119317,-0.6658245,0.8424759,0.34339905,-2.8230286,-8.175632,4.966283,-2.1599693,0,1683807143.3564107
-0.28808314,0.3354297,-0.11181495,-1.8195343,-0.4236412,5.2186775,-4.3246503,8.8010025,-0.10068101,0,1683807143.3720348
0.0499247,0.41304654,0.061723433,-2.5268936,0.68639755,5.578766,-1.2766335,9.660687,1.1007763,0,1683807143.3876576
0.16195197,0.40206674,0.14249468,-2.5268936,0.68639755,5.578766,-1.2766335,9.660687,1.1007763,0,1683807143.403282
0.30447698,0.43524876,0.23890153,-2.8443909,1.2585068,5.6074715,-0.73722327,9.685158,1.3507836,0,1683807143.4189098
0.3737983,0.43574923,0.31894484,-2.8443909,1.2585068,5.6074715,0.05685023,9.646508,1.7640953,0,1683807143.4345372
1.1240185,0.33153218,0.96130836,-3.5175705,3.1557465,4.99918,3.202177,8.138283,4.436757,0,1683807143.4657815
1.1240185,0.33153218,0.96130836,-3.5175705,3.1557465,4.99918,3.5346897,7.644877,5.0231686,0,1683807143.4814067
1.4661969,0.50725436,1.2588243,-3.5346603,3.0864525,4.3940926,3.5346897,7.644877,5.0231686,0,1683807143.4814067
1.4661969,0.50725436,1.2588243,-3.5346603,3.0864525,4.3940926,3.617289,7.483884,5.2035646,0,1683807143.4970338
1.6472877,0.4972452,1.4662727,-2.6706886,1.8379593,2.4542618,3.7916887,7.056076,5.657321,0,1683807143.5123477
1.7942107,0.5741189,1.5590096,-1.9356918,1.0049629,1.4997673,3.7916887,7.056076,5.657321,0,1683807143.530992
1.8327613,0.6065882,1.6012301,-1.5043068,0.5329895,0.9693146,3.7916887,7.056076,5.657321,0,1683807143.562241
1.8327613,0.6065882,1.6012301,-0.09492874,-0.8325958,-0.6637001,3.7916887,7.056076,5.657321,0,1683807143.5778663
0.68520594,0.60194755,0.66917604,2.6130104,-0.20734787,-2.910347,2.561501,8.659637,3.8235848,0,1683807143.5934892
0.23686936,0.61316997,0.06196608,3.183918,-0.92538834,-4.5615196,-0.7781898,9.724836,0.99617183,0,1683807143.6247425
0.114362754,0.54337853,0.009493579,3.016758,-0.97011566,-5.0696754,-1.9233258,9.611898,0.2874056,0,1683807143.6557722
0.12851213,0.5565573,0.01998808,3.027439,-1.0127068,-5.4190826,-2.6717772,9.435038,-0.109877355,0,1683807143.6764145
0.12851213,0.5565573,0.01998808,2.9773712,-1.0169792,-5.7152176,-2.9312534,9.355292,-0.23801659,0,1683807143.7076638
-0.11261872,0.3769224,-0.069093846,2.9773712,-1.0169792,-5.7152176,-2.9312534,9.355292,-0.23801659,0,1683807143.7076638
-1.2177109,-0.044313483,-0.49472773,2.233696,0.017490387,-4.726677,-6.936567,6.6306324,-2.02216,0,1683807143.7389116
-1.2177109,-0.044313483,-0.49472773,2.233696,0.017490387,-4.726677,-7.2558064,6.227841,-2.1766183,0,1683807143.7545366
-1.2177109,-0.044313483,-0.49472773,1.9493103,-0.0667572,-4.1045,-7.2558064,6.227841,-2.1766183,0,1683807143.770545
-1.0798112,-0.0428576,-0.41858193,1.9493103,-0.0667572,-4.1045,-7.2558064,6.227841,-2.1766183,0,1683807143.770545
-2.0565276,-0.32522336,-0.74513984,0.6635666,0.5032158,-2.2072601,-8.576317,3.7219021,-2.9605086,0,1683807143.7861762
-2.0565276,-0.32522336,-0.74513984,-0.384655,0.05580902,0.18424988,-8.576317,3.7219021,-2.9605086,0,1683807143.8018007
-2.0565276,-0.32522336,-0.74513984,-0.384655,0.05580902,0.18424988,-8.625389,3.551734,-3.0262566,0,1683807143.8174288
-2.0255294,-0.30643335,-0.68899727,-0.384655,0.05580902,0.18424988,-8.625389,3.551734,-3.0262566,0,1683807143.8330526
-1.5237498,-0.09605804,-0.44812426,-0.70962906,-0.04966736,1.9802856,-8.526804,3.8336184,-2.960975,0,1683807143.8486762
-1.5237498,-0.09605804,-0.44812426,-0.70962906,-0.04966736,1.9802856,-8.309592,4.3559175,-2.854301,0,1683807143.8643007
-1.5237498,-0.09605804,-0.44812426,-0.66583633,-0.259552,2.4127388,-8.431924,4.0684853,-2.9189873,0,1683807143.9268055
-1.5237498,-0.09605804,-0.44812426,-0.6105614,-0.44487,2.6758957,-8.431924,4.0684853,-2.9189873,0,1683807143.9424312
-1.4537005,-0.0709137,-0.455434,-0.6105614,-0.44487,2.6758957,-8.102513,4.8059764,-2.7243807,0,1683807143.958057
-1.4205185,-0.059448615,-0.48790327,-0.5721092,-0.6100273,2.9410553,-8.102513,4.8059764,-2.7243807,0,1683807143.9736824
-1.4205185,-0.059448615,-0.48790327,-0.58706284,-0.71977615,3.2277107,-8.102513,4.8059764,-2.7243807,0,1683807143.9893034
-1.3648765,-0.05627903,-0.5413464,-0.58706284,-0.71977615,3.2277107,-8.102513,4.8059764,-2.7243807,0,1683807144.004927
-1.3648765,-0.05627903,-0.5413464,-0.58706284,-0.71977615,3.2277107,-7.974714,5.0575557,-2.6448913,0,1683807144.020553
-1.3648765,-0.05627903,-0.5413464,-1.2283325,-0.59934616,4.2663193,-7.209539,6.2541876,-2.2534597,0,1683807144.0734367
-1.1015282,0.021580454,-0.57063085,-1.2283325,-0.59934616,4.2663193,-7.209539,6.2541876,-2.2534597,0,1683807144.0734367
-0.97926426,0.039142057,-0.5181584,-1.4157867,-0.54073334,4.4931602,-6.9467382,6.5845203,-2.134787,0,1683807144.1046836
-0.97926426,0.039142057,-0.5181584,-1.90485,-0.2818489,5.144043,-5.9575424,7.599255,-1.7115492,0,1683807144.12031
-0.6087872,0.13946159,-0.39930663,-1.90485,-0.2818489,5.144043,-5.9575424,7.599255,-1.7115492,0,1683807144.12031
-0.5089681,0.1609359,-0.35512963,-2.2115326,-0.20307541,5.410404,-5.136459,8.240556,-1.3712834,0,1683807144.1359339
-0.38497525,0.1609359,-0.27460104,-2.2744179,-0.21589279,5.458336,-4.2122836,8.803177,-0.9649576,0,1683807144.1511989
1.2380022,0.4001104,1.5663345,-0.3122902,-0.009212494,-0.49333572,4.036607,6.745989,5.862408,0,1683807144.169847
1.0830263,0.37009794,1.5358216,0.8062935,-0.2946663,-0.9471512,4.036607,6.745989,5.862408,0,1683807144.2010963
1.0820405,0.67833596,0.7345847,1.6957664,0.7056236,-1.6342163,3.3457992,7.648272,5.145868,0,1683807144.2167182
0.56342727,0.51139456,0.8832062,2.8004646,-0.102939606,-3.4078217,2.2497933,8.510924,4.321225,0,1683807144.2635927
0.44970146,0.57924485,0.28307852,3.619709,-0.60575485,-4.2057037,0.47887644,9.430148,2.6482737,0,1683807144.2792175
-0.05818988,0.32323667,0.13395654,3.4918022,-0.92752457,-5.5447197,-3.5761635,9.131043,-0.07406633,0,1683807144.294843
-0.41207594,0.08991603,-0.04347938,3.4524155,-0.588665,-5.891056,-5.1360183,8.30549,-0.9003083,0,1683807144.3104708
-0.5423928,0.025720624,-0.097650416,3.2010078,-0.022029877,-5.8089447,-5.1360183,8.30549,-0.9003083,0,1683807144.326095
-1.13057,-0.1150907,-0.5167025,2.659874,0.12817383,-4.5360184,-7.183347,6.33192,-2.1158218,0,1683807144.3573427
-0.93240297,-0.092403166,-0.32755882,2.659874,0.12817383,-4.5360184,-7.183347,6.33192,-2.1158218,0,1683807144.419843
-1.217453,-0.12582785,-0.57063085,2.659874,0.12817383,-4.5360184,-7.475103,5.9154396,-2.3023496,0,1683807144.4354672
-1.3472997,-0.17123324,-0.6235887,2.659874,0.12817383,-4.5360184,-7.475103,5.9154396,-2.3023496,0,1683807144.4510946
-1.9210697,-0.31741312,-0.99749315,1.0374069,-0.1733017,-2.2701454,-8.66171,3.4955213,-2.987725,0,1683807144.4667227
-2.1209657,-0.38330707,-0.9730919,-0.36128998,0.6480789,-0.8192444,-8.68408,3.3941529,-3.0392218,0,1683807144.4823437
-2.1209657,-0.38330707,-0.9730919,-0.36128998,0.6480789,-0.8192444,-8.684012,3.3485665,-3.0895631,0,1683807144.5135925
-2.111927,-0.3764826,-0.9101249,-0.36128998,0.6480789,-0.8192444,-8.684012,3.3485665,-3.0895631,0,1683807144.5292175
-1.5515785,-0.14243403,-0.49058753,-0.59453964,-1.1277962,2.7908516,-8.336595,4.418286,-2.6740108,0,1683807144.5448425
-1.4849415,-0.12705624,-0.5154741,-0.8331299,-1.190548,3.8785934,-8.111933,4.947205,-2.4273627,0,1683807144.5757732
-0.3349444,0.22243184,-0.22919564,-2.174282,-0.6281853,5.3273582,-4.6352563,8.615732,-0.67374367,0,1683807144.5954323
-0.23928067,0.23659638,-0.18307747,-2.174282,-0.6281853,5.3273582,-4.6352563,8.615732,-0.67374367,0,1683807144.6110575
-0.17240098,0.24537718,-0.11595513,-2.2136688,-0.6462097,5.34111,-3.7032106,9.077328,-0.24237104,0,1683807144.626678
-0.10188158,0.27538964,-0.052017536,-2.2136688,-0.6462097,5.34111,-3.7032106,9.077328,-0.24237104,0,1683807144.6423032
-0.10188158,0.27538964,-0.052017536,-2.2136688,-0.6462097,5.34111,-3.212748,9.265437,-0.0179713,0,1683807144.6576393
-0.10188158,0.27538964,-0.052017536,-2.2968483,-0.4172325,5.425358,-2.70649,9.423476,0.20832402,0,1683807144.6782813
0.1885522,0.3166397,0.14493632,-2.3606682,-0.2456665,5.4722214,-2.1859393,9.549908,0.43740943,0,1683807144.7251546
0.1885522,0.3166397,0.14493632,-2.3606682,-0.2456665,5.4722214,0.56631434,9.645444,1.6778232,0,1683807144.7407844
0.77672946,0.4325645,0.43438435,-2.6877785,1.8103218,5.774765,0.56631434,9.645444,1.6778232,0,1683807144.7407844
0.77672946,0.4325645,0.43438435,-2.6877785,1.8103218,5.774765,3.207959,8.306572,4.108559,0,1683807144.7564087
0.9690427,0.5553289,1.1211674,-0.53699493,-0.6239128,-0.41656494,3.207959,8.306572,4.108559,0,1683807144.7564087
0.78795195,0.56142545,1.1065177,-0.53699493,-0.6239128,-0.41656494,3.207959,8.306572,4.108559,0,1683807144.7720308
0.70619494,0.61633956,1.045507,0.9916115,-0.0667572,-1.9825554,2.552376,8.6256485,3.9056292,0,1683807144.7876585
0.726456,0.6309894,0.95813876,1.2483597,-0.075302124,-2.1092606,2.298998,8.760216,3.7607994,0,1683807144.8032837
0.73305297,0.68980104,0.8092594,2.0239449,-0.22016525,-2.6963234,2.298998,8.760216,3.7607994,0,1683807144.818905
0.73305297,0.68980104,0.8092594,2.0239449,-0.22016525,-2.6963234,1.5570339,9.138782,3.1982355,0,1683807144.8345308
0.688876,0.68102026,0.72140586,2.0239449,-0.22016525,-2.6963234,1.5570339,9.138782,3.1982355,0,1683807144.8501565
0.688876,0.68102026,0.72140586,2.1964455,-0.10614395,-2.9082108,1.5570339,9.138782,3.1982355,0,1683807144.8657796
-0.5875403,0.019138813,-0.26848936,2.5948524,0.032310486,-5.9527397,-6.0241847,7.6520615,-1.1513232,0,1683807144.9126546
-0.5875403,0.019138813,-0.26848936,2.5373077,0.036582947,-5.9112167,-6.0241847,7.6520615,-1.1513232,0,1683807144.928664
-0.5875403,0.019138813,-0.26848936,2.5373077,0.036582947,-5.9112167,-6.673213,7.0423274,-1.4297684,0,1683807144.9911695
-0.7481426,0.010100198,-0.31876287,2.5373077,0.036582947,-5.9112167,-6.673213,7.0423274,-1.4297684,0,1683807145.0067945
-0.7481426,0.010100198,-0.31876287,2.4638748,-0.017757416,-5.759945,-6.673213,7.0423274,-1.4297684,0,1683807145.022422
-0.85771304,0.016211879,-0.32438925,2.3232841,-0.12857437,-5.453129,-7.24445,6.3968434,-1.6639495,0,1683807145.0380468
-0.9289907,-0.046997767,-0.3507468,2.3232841,-0.12857437,-5.453129,-7.24445,6.3968434,-1.6639495,0,1683807145.0536706
-0.96657073,-0.07848127,-0.34487778,2.0344925,0.32417297,-5.178356,-7.24445,6.3968434,-1.6639495,0,1683807145.0849197
-0.96657073,-0.07848127,-0.34487778,1.7415619,1.006031,-4.8342896,-7.885759,5.4947953,-1.9474146,0,1683807145.1070664
-1.1942801,-0.17684446,-0.42933425,1.7415619,1.006031,-4.8342896,-7.885759,5.4947953,-1.9474146,0,1683807145.1070664
-0.7664473,0.016697174,-0.32487455,2.2081947,0.019626617,-5.337105,-8.145193,5.0400295,-2.1034083,0,1683807145.137723
-1.5144837,-0.29496825,-0.6687514,1.3985634,1.5886879,-4.309044,-8.523394,4.166112,-2.4830728,0,1683807145.1716473
-1.5144837,-0.29496825,-0.6687514,1.0161781,1.5343475,-3.5100937,-8.523394,4.166112,-2.4830728,0,1683807145.1872737
-1.9057072,-0.39307362,-0.9101249,1.0161781,1.5343475,-3.5100937,-8.523394,4.166112,-2.4830728,0,1683807145.1872737
-1.9057072,-0.39307362,-0.9101249,-0.7404709,-1.9182014,4.491024,-8.06862,5.2822227,-1.779292,0,1683807145.2028952
-1.1383803,-0.13363805,-0.43957093,-0.7404709,-1.9182014,4.491024,-8.06862,5.2822227,-1.779292,0,1683807145.2028952
-0.9521636,-0.10142662,-0.413456,-1.0569,-2.0140648,5.389042,-7.345791,6.3861313,-1.1945975,0,1683807145.234144
-0.9521636,-0.10142662,-0.413456,-1.4073753,-2.006588,6.592808,-5.551453,8.080424,-0.24183549,0,1683807145.265394
-0.547276,-0.15121482,-0.25385466,-1.4073753,-2.006588,6.592808,-5.551453,8.080424,-0.24183549,0,1683807145.265394
-0.547276,-0.15121482,-0.25385466,-1.4073753,-2.006588,6.592808,-5.289234,8.25692,-0.13292201,0,1683807145.281019
1.5413569,0.90774393,-0.12717757,-0.46556473,0.48826218,4.433613,1.262205,9.675632,0.97946906,0,1683807145.3122687
1.5733409,0.9531493,-0.08422898,-0.46556473,0.48826218,4.433613,1.262205,9.675632,0.97946906,0,1683807145.343519
1.187486,0.7569234,0.2245095,-0.63926697,-1.0328674,1.0279274,2.4381077,9.433879,1.1081256,0,1683807145.359144
1.2065187,0.74227357,0.43853968,-0.8502197,-0.31068802,0.9778595,2.6200855,9.3726845,1.2076147,0,1683807145.374773
1.2719274,0.8562572,0.51151586,0.055274963,1.0049629,-2.0933723,2.5677862,9.290842,1.80475,0,1683807145.3903978
0.7733173,0.6431976,0.5327475,0.26195526,1.0635757,-2.5609398,1.1317259,9.591413,1.7012897,0,1683807145.4060202
0.7733173,0.6431976,0.5327475,0.26195526,1.0635757,-2.5609398,0.816631,9.639647,1.6064575,0,1683807145.4216442
0.7733173,0.6431976,0.5327475,1.4103127,2.5239563,-3.0755043,0.816631,9.639647,1.6064575,0,1683807145.4372692
0.16122404,0.4123186,-0.04542056,2.2764206,2.3332977,-3.7317276,-0.9923284,9.7369,0.6151751,0,1683807145.452894
0.046512473,0.41133285,-0.060070395,2.2764206,2.3332977,-3.7317276,-0.9923284,9.7369,0.6151751,0,1683807145.4997687
0.046512473,0.41133285,-0.060070395,2.3370361,2.1255493,-3.7647057,-1.3565593,9.705538,0.36424446,0,1683807145.5153985
-0.081863165,0.3796067,-0.011495421,2.3370361,2.1255493,-3.7647057,-1.3565593,9.705538,0.36424446,0,1683807145.5153985
-0.081863165,0.3796067,-0.011495421,2.2497177,2.376957,-3.2150269,-1.3565593,9.705538,0.36424446,0,1683807145.5310225
-0.3056599,0.296136,-0.28410977,0.38759232,6.2587547,-1.3603783,-2.9046595,9.303582,-1.0847558,0,1683807145.5466483
-1.0810245,0.21877696,-0.9218326,-0.6968117,7.5562477,1.4359474,-2.4159527,9.147567,-2.579843,0,1683807145.5622742
-1.0810245,0.21877696,-0.9218326,-5.361538,10.869274,4.427204,-0.8016841,9.532927,-2.1566212,0,1683807145.5778978
-0.36448672,0.10553645,0.17544924,-8.275089,10.758457,6.3520813,2.0763364,9.391568,1.9125035,0,1683807145.609144
0.14047767,0.3791214,0.4783187,-8.330498,10.411186,6.419239,2.0763364,9.391568,1.9125035,0,1683807145.6250305
0.14047767,0.3791214,0.4783187,-8.330498,10.411186,6.419239,2.5740397,8.837406,3.3830404,0,1683807145.6560276
0.39551526,0.51042396,0.58302104,-7.8585243,8.468151,6.3456726,2.8113039,8.368452,4.2703576,0,1683807145.6726925
0.39551526,0.51042396,0.58302104,-6.8081665,6.912842,5.942993,2.8113039,8.368452,4.2703576,0,1683807145.6883185
1.6629081,1.0942032,0.91981566,-6.8081665,6.912842,5.942993,3.057855,7.345371,5.7328386,0,1683807145.719565
0.79186463,0.59437996,0.5840068,-5.5096054,7.6766777,2.2732162,1.9196304,5.461939,7.915341,0,1683807145.7351897
0.79186463,0.59437996,0.5840068,-5.337105,6.9171143,1.3326073,1.9196304,5.461939,7.915341,0,1683807145.7508154
0.07775333,0.35179323,1.1882898,-1.1771965,0.7811928,-0.6328583,0.52148294,2.8871245,9.357508,0,1683807145.766439
-0.28150132,0.3852179,1.8958042,-1.4765358,1.6291428,-0.9183121,0.06995879,2.4422143,9.497425,0,1683807145.7820644
-0.1372626,0.29126787,0.9649784,-0.47410965,1.8294144,-0.40067673,-0.21902797,2.3125372,9.527571,0,1683807145.8289385
-0.16727506,0.37106854,1.2046381,1.3910866,0.07917404,0.024433136,-0.7695911,2.5074449,9.449383,0,1683807145.8445685
-0.14067483,0.31419805,0.96423525,1.4753342,-0.19666672,0.0041389465,-0.81742585,2.7618272,9.374141,0,1683807145.860193
-0.18119694,0.27076417,1.0162225,1.4753342,-0.19666672,0.0041389465,-0.81742585,2.7618272,9.374141,0,1683807145.875816
-0.18119694,0.27076417,1.0162225,1.4753342,-0.19666672,0.0041389465,-0.75759727,2.966685,9.316395,0,1683807145.8914402
-0.18119694,0.27076417,1.0162225,1.4890862,-0.5098915,-0.029907227,-0.75759727,2.966685,9.316395,0,1683807145.9070644
-0.23098516,0.25659963,0.9325091,1.177063,-0.03364563,0.088386536,-0.7456399,3.0818033,9.279919,0,1683807145.9383137
-0.064043745,0.380092,0.7414091,0.9852028,0.23578644,0.16075134,-0.776499,3.1643455,9.249559,0,1683807145.9539437
-0.0218231,0.39302814,0.7545879,0.045661926,0.48398972,0.01909256,-1.0627731,3.233474,9.197041,0,1683807145.9695675
-0.120428935,0.3188387,1.0503902,0.34713745,0.9677124,-0.26956558,-1.2011166,3.3839118,9.125614,0,1683807145.9851918
