acc_x,acc_y,acc_z,gyr_x,gyr_y,gyr_z,grav_x,grav_y,grav_z,label,timestamp
-0.3769224,0.37228176,0.28332117,4.4374847,-2.702465,-1.5387535,-0.07117469,9.67963,1.5716479,0,1683900244.0887365
-0.3769224,0.37228176,0.28332117,4.4374847,-2.702465,-1.5387535,-0.31876415,9.773097,0.7452085,0,1683900244.1073778
-0.3276195,0.36545733,0.35581207,4.4374847,-2.702465,-1.5387535,-0.31876415,9.773097,0.7452085,0,1683900244.117717
-0.3276195,0.36545733,0.35581207,4.1456223,-2.5533295,-1.3821411,-0.31876415,9.773097,0.7452085,0,1683900244.1228604
-0.3276195,0.36545733,0.35581207,3.9133072,-2.142105,-1.2383461,-0.31876415,9.773097,0.7452085,0,1683900244.1331794
-0.30370355,0.34374037,0.34091958,3.9133072,-2.142105,-1.2383461,-0.31876415,9.773097,0.7452085,0,1683900244.143453
-0.30370355,0.34374037,0.34091958,3.9133072,-2.142105,-1.2383461,-0.43784508,9.789723,0.374165,0,1683900244.1485674
-0.25758538,0.36154464,0.30576605,3.9133072,-2.142105,-1.2383461,-0.43784508,9.789723,0.374165,0,1683900244.158855
-0.25758538,0.36154464,0.30576605,3.665104,-1.6882896,-1.1189842,-0.43784508,9.789723,0.374165,0,1683900244.1640105
-0.25758538,0.36154464,0.30576605,3.665104,-1.6882896,-1.1189842,-0.55238885,9.791045,0.026388822,0,1683900244.1742728
-0.25758538,0.36154464,0.30576605,3.438263,-1.2547684,-1.0434151,-0.55238885,9.791045,0.026388822,0,1683900244.1897917
-0.25758538,0.36154464,0.30576605,3.438263,-1.2547684,-1.0434151,-0.66309315,9.779626,-0.29935372,0,1683900244.2000678
-0.23855272,0.37667975,0.25744888,3.438263,-1.2547684,-1.0434151,-0.66309315,9.779626,-0.29935372,0,1683900244.2052011
-0.23855272,0.37667975,0.25744888,3.2966042,-0.9297943,-0.9901428,-0.66309315,9.779626,-0.29935372,0,1683900244.2206228
-0.23855272,0.37667975,0.25744888,3.2966042,-0.9297943,-0.9901428,-0.770378,9.757243,-0.764151,0,1683900244.230884
-0.22438818,0.3852179,0.19131231,3.2966042,-0.9297943,-0.9901428,-0.770378,9.757243,-0.764151,0,1683900244.236016
-0.119443186,0.5816865,-0.23944749,2.7180862,-0.07650375,-0.6683731,-1.5110325,9.205162,-3.025253,0,1683900244.262187
-0.119443186,0.5816865,-0.23944749,2.456131,0.26863098,-0.6662369,-1.5110325,9.205162,-3.025253,0,1683900244.2673562
-0.1377479,0.587055,-0.3544017,2.456131,0.26863098,-0.6662369,-1.5110325,9.205162,-3.025253,0,1683900244.2827537
-0.1377479,0.587055,-0.3544017,2.456131,0.26863098,-0.6662369,-1.5377276,9.161805,-3.141194,0,1683900244.2879283
-0.2002296,0.5807159,-0.41664076,2.456131,0.26863098,-0.6662369,-1.5377276,9.161805,-3.141194,0,1683900244.2930582
-0.2002296,0.5807159,-0.41664076,2.2184753,0.50935745,-0.6332588,-1.5377276,9.161805,-3.141194,0,1683900244.3033588
-0.23464003,0.5885261,-0.4898596,2.2184753,0.50935745,-0.6332588,-1.5833293,9.076251,-3.3593357,0,1683900244.3188748
-0.23464003,0.5885261,-0.4898596,2.2184753,0.50935745,-0.6332588,-1.615578,8.99202,-3.5642512,0,1683900244.3240201
-0.23464003,0.5885261,-0.4898596,2.080021,0.65208435,-0.53525925,-1.615578,8.99202,-3.5642512,0,1683900244.334301
-0.20755452,0.6082867,-0.5057227,2.080021,0.65208435,-0.53525925,-1.615578,8.99202,-3.5642512,0,1683900244.3445957
-0.20755452,0.6082867,-0.5057227,2.080021,0.65208435,-0.53525925,-1.632614,8.908013,-3.7619474,0,1683900244.3600457
-0.20755452,0.6082867,-0.5057227,2.080021,0.65208435,-0.53525925,-1.6374593,8.8241,-3.9527678,0,1683900244.3655565
-0.23415475,0.7605783,-1.5493037,1.3450241,0.45074463,-0.4096222,-1.6755649,7.845028,-5.640781,0,1683900244.371111
-0.28222924,0.73764807,-1.5927527,1.3450241,0.45074463,-0.4096222,-1.6755649,7.845028,-5.640781,0,1683900244.3944185
-0.28222924,0.73764807,-1.5927527,1.158638,0.31442642,-0.44260025,-1.6755649,7.845028,-5.640781,0,1683900244.4047601
-0.28222924,0.73764807,-1.5927527,1.158638,0.31442642,-0.44260025,-1.694844,7.7614717,-5.7495604,0,1683900244.4098923
-0.361302,0.6873594,-1.6247215,1.158638,0.31442642,-0.44260025,-1.694844,7.7614717,-5.7495604,0,1683900244.4355335
-0.361302,0.6873594,-1.6247215,0.98493576,0.007610321,-0.4319191,-1.694844,7.7614717,-5.7495604,0,1683900244.4406939
-0.361302,0.6873594,-1.6247215,0.98493576,0.007610321,-0.4319191,-1.7264026,7.6824384,-5.845516,0,1683900244.4458668
-0.4342782,0.6673562,-1.6884165,0.98493576,0.007610321,-0.4319191,-1.7264026,7.6824384,-5.845516,0,1683900244.4664798
-0.4342782,0.6673562,-1.6884165,0.8187103,-0.35354614,-0.33498764,-1.7264026,7.6824384,-5.845516,0,1683900244.4768007
-0.4342782,0.6673562,-1.6884165,0.8187103,-0.35354614,-0.33498764,-1.7944934,7.5728993,-5.9666886,0,1683900244.4819374
-0.4342782,0.6673562,-1.6884165,0.8187103,-0.35354614,-0.33498764,-1.8213067,7.541342,-5.9984493,0,1683900244.5024607
-0.45185494,0.6405133,-1.7011099,0.48425674,-0.68372726,-0.18798828,-1.8213067,7.541342,-5.9984493,0,1683900244.5076964
-0.45185494,0.6405133,-1.7011099,0.48425674,-0.68372726,-0.18798828,-1.8794283,7.4893475,-6.0454783,0,1683900244.5129182
-0.45185494,0.6405133,-1.7011099,0.21162033,-0.8647728,-0.04846573,-1.8794283,7.4893475,-6.0454783,0,1683900244.5385473
-0.43647718,0.6204949,-1.6737666,0.21162033,-0.8647728,-0.04846573,-1.8794283,7.4893475,-6.0454783,0,1683900244.5436754
-0.43647718,0.6204949,-1.6737666,0.21162033,-0.8647728,-0.04846573,-1.9389439,7.4558024,-6.0681043,0,1683900244.548785
-0.43647718,0.6204949,-1.6737666,-0.10160446,-0.9659767,0.060214996,-1.9389439,7.4558024,-6.0681043,0,1683900244.5692751
-0.43647718,0.6204949,-1.6737666,-0.10160446,-0.9659767,0.060214996,-1.9958209,7.4439006,-6.064275,0,1683900244.574419
-0.3918149,0.6285478,-1.616426,-0.10160446,-0.9659767,0.060214996,-1.9958209,7.4439006,-6.064275,0,1683900244.5795462
-0.36057404,0.631232,-1.5810298,-0.10160446,-0.9659767,0.060214996,-1.9958209,7.4439006,-6.064275,0,1683900244.5949264
-0.36057404,0.631232,-1.5810298,-0.10160446,-0.9659767,0.060214996,-2.071236,7.4660068,-6.0115824,0,1683900244.6000657
-0.3383718,0.62951833,-1.5563859,-0.10160446,-0.9659767,0.060214996,-2.071236,7.4660068,-6.0115824,0,1683900244.6257336
-0.3383718,0.62951833,-1.5563859,-0.71416855,-1.0140419,0.18598557,-2.071236,7.4660068,-6.0115824,0,1683900244.6410851
-0.3383718,0.62951833,-1.5563859,-0.71416855,-1.0140419,0.18598557,-2.09491,7.4829865,-5.9821954,0,1683900244.6462204
-0.31419805,0.629033,-1.4931762,-0.71416855,-1.0140419,0.18598557,-2.09491,7.4829865,-5.9821954,0,1683900244.6513145
-0.31419805,0.629033,-1.4931762,-0.96343994,-1.1375427,0.24446487,-2.09491,7.4829865,-5.9821954,0,1683900244.6666975
-0.31419805,0.629033,-1.4931762,-0.96343994,-1.1375427,0.24446487,-2.1430955,7.529245,-5.906606,0,1683900244.6769366
-0.28394297,0.6414839,-1.4109188,-0.96343994,-1.1375427,0.24446487,-2.1430955,7.529245,-5.906606,0,1683900244.687146
-0.28394297,0.6414839,-1.4109188,-0.96343994,-1.1375427,0.24446487,-2.1948256,7.589262,-5.8100104,0,1683900244.702531
-0.28394297,0.6414839,-1.4109188,-1.158371,-1.2984276,0.29039383,-2.1948256,7.589262,-5.8100104,0,1683900244.7179286
-0.24806146,0.6431976,-1.3360014,-1.158371,-1.2984276,0.29039383,-2.1948256,7.589262,-5.8100104,0,1683900244.7385015
-0.24806146,0.6431976,-1.3360014,-1.158371,-1.2984276,0.29039383,-2.2826114,7.696953,-5.631784,0,1683900244.7436473
-0.24806146,0.6431976,-1.3360014,-1.3096428,-1.468792,0.31589508,-2.2826114,7.696953,-5.631784,0,1683900244.7539418
-0.24806146,0.6431976,-1.3360014,-1.4204597,-1.6478348,0.31375885,-2.2826114,7.696953,-5.631784,0,1683900244.7590754
-0.21512209,0.6405133,-1.2466768,-1.4204597,-1.6478348,0.31375885,-2.2826114,7.696953,-5.631784,0,1683900244.7642064
-0.21512209,0.6405133,-1.2466768,-1.4204597,-1.6478348,0.31375885,-2.3504264,7.77544,-5.494399,0,1683900244.7900226
-0.21512209,0.6405133,-1.2466768,-1.4896202,-1.8181992,0.29239655,-2.3504264,7.77544,-5.494399,0,1683900244.8054922
-0.21657798,0.6231792,-1.1758996,-1.4896202,-1.8181992,0.29239655,-2.3504264,7.77544,-5.494399,0,1683900244.8157887
-0.21657798,0.6231792,-1.1758996,-1.4896202,-1.8181992,0.29239655,-2.3874924,7.81522,-5.421495,0,1683900244.8209498
-0.24342084,0.5672945,-1.0768085,-1.4896202,-1.8181992,0.29239655,-2.3874924,7.81522,-5.421495,0,1683900244.8416202
-0.24342084,0.5672945,-1.0768085,-1.53862,-2.005787,0.29880524,-2.3874924,7.81522,-5.421495,0,1683900244.8518684
-0.24342084,0.5672945,-1.0768085,-1.53862,-2.005787,0.29880524,-2.5091684,7.93673,-5.1848598,0,1683900244.862133
-0.24342084,0.5672945,-1.0768085,-1.53862,-2.005787,0.29880524,-2.5512874,7.978358,-5.099718,0,1683900244.8723326
-0.24317819,0.5580132,-1.0363015,-1.53862,-2.005787,0.29880524,-2.5512874,7.978358,-5.099718,0,1683900244.8929548
-0.24317819,0.5580132,-1.0363015,-1.5929604,-2.1846962,0.34353256,-2.5512874,7.978358,-5.099718,0,1683900244.8981004
-0.24317819,0.5580132,-1.0363015,-1.5929604,-2.1846962,0.34353256,-2.6345494,8.063652,-4.9200673,0,1683900244.9186456
-0.23292634,0.5467908,-0.9437922,-1.5929604,-2.1846962,0.34353256,-2.6345494,8.063652,-4.9200673,0,1683900244.9289377
-0.23292634,0.5467908,-0.9437922,-1.65905,-2.3295593,0.39787292,-2.6345494,8.063652,-4.9200673,0,1683900244.9340563
-0.23292634,0.5467908,-0.9437922,-1.65905,-2.3295593,0.39787292,-2.7128391,8.151972,-4.7282386,0,1683900244.9495392
-0.23292634,0.5467908,-0.9437922,-1.7314148,-2.3838997,0.44794083,-2.7128391,8.151972,-4.7282386,0,1683900244.9599023
-0.21512209,0.5348252,-0.82152826,-1.7314148,-2.3838997,0.44794083,-2.7128391,8.151972,-4.7282386,0,1683900244.9702172
-0.21512209,0.5348252,-0.82152826,-1.7314148,-2.3838997,0.44794083,-2.7817135,8.24281,-4.5264273,0,1683900244.985664
-0.21512209,0.5348252,-0.82152826,-1.812458,-2.3636055,0.4969406,-2.7817135,8.24281,-4.5264273,0,1683900244.9908302
-0.20803982,0.5280007,-0.80150986,-1.812458,-2.3636055,0.4969406,-2.7817135,8.24281,-4.5264273,0,1683900245.006449
-0.19681737,0.5275003,-0.80810684,-1.812458,-2.3636055,0.4969406,-2.7817135,8.24281,-4.5264273,0,1683900245.0219417
-0.19681737,0.5275003,-0.80810684,-1.9157982,-2.3370361,0.5405998,-2.7817135,8.24281,-4.5264273,0,1683900245.0373514
-0.19681737,0.5275003,-0.80810684,-1.9157982,-2.3370361,0.5405998,-2.8398085,8.335915,-4.3149033,0,1683900245.042579
-0.18949245,0.524816,-0.80907744,-1.9157982,-2.3370361,0.5405998,-2.8398085,8.335915,-4.3149033,0,1683900245.0477598
-0.18949245,0.524816,-0.80907744,-1.9157982,-2.3370361,0.5405998,-2.865718,8.383747,-4.2036705,0,1683900245.052909
-0.18949245,0.524816,-0.80907744,-1.9860268,-2.3519897,0.560894,-2.865718,8.383747,-4.2036705,0,1683900245.0581715
-0.15092668,0.5084676,-0.69705015,-2.253456,-2.4041939,0.6152344,-2.931477,8.5331745,-3.8421044,0,1683900245.079299
-0.15092668,0.5084676,-0.69705015,-2.4090004,-2.3881721,0.6396675,-2.931477,8.5331745,-3.8421044,0,1683900245.0846207
-0.12579751,0.51579255,-0.5806401,-2.4090004,-2.3881721,0.6396675,-2.931477,8.5331745,-3.8421044,0,1683900245.0899138
-0.12579751,0.51579255,-0.5806401,-2.4090004,-2.3881721,0.6396675,-2.9880006,8.739435,-3.296137,0,1683900245.0952663
-0.12579751,0.51579255,-0.5806401,-2.5442505,-2.3732185,0.64394,-2.9880006,8.739435,-3.296137,0,1683900245.1007104
-0.12139953,0.50945336,-0.5384194,-2.5442505,-2.3732185,0.64394,-2.9880006,8.739435,-3.296137,0,1683900245.1058984
-0.11651625,0.50871027,-0.4583761,-2.5442505,-2.3732185,0.64394,-2.9880006,8.739435,-3.296137,0,1683900245.1214364
-0.11651625,0.50871027,-0.4583761,-2.6572037,-2.3252869,0.6546211,-2.9880006,8.739435,-3.296137,0,1683900245.1266952
-0.11651625,0.50871027,-0.4583761,-2.6572037,-2.3252869,0.6546211,-3.0058734,8.888483,-2.8513136,0,1683900245.1318755
-0.11431725,0.51213765,-0.3954091,-2.6572037,-2.3252869,0.6546211,-3.0058734,8.888483,-2.8513136,0,1683900245.1371326
-0.11431725,0.51213765,-0.3954091,-2.845726,-2.2624016,0.64821243,-3.0058734,8.888483,-2.8513136,0,1683900245.1477306
-0.10016788,0.5170058,-0.31827757,-2.845726,-2.2624016,0.64821243,-3.0058734,8.888483,-2.8513136,0,1683900245.1528983
-0.10016788,0.5170058,-0.31827757,-2.845726,-2.2624016,0.64821243,-3.0038054,9.026719,-2.3803096,0,1683900245.158056
-0.10016788,0.5170058,-0.31827757,-2.9107475,-2.2198105,0.64287186,-2.9941578,9.109677,-2.054066,0,1683900245.1683836
-0.13897629,0.4979731,-0.20455176,-2.9107475,-2.2198105,0.64287186,-2.9941578,9.109677,-2.054066,0,1683900245.1838334
-0.13897629,0.4979731,-0.20455176,-2.9319763,-2.1303558,0.69293976,-2.9941578,9.109677,-2.054066,0,1683900245.204536
-0.13897629,0.4979731,-0.20455176,-2.9319763,-2.1303558,0.69293976,-2.9729362,9.184991,-1.7227844,0,1683900245.2096972
-0.1604506,0.5160352,-0.028586896,-2.854271,-2.071743,0.7825279,-2.9357839,9.252235,-1.3955995,0,1683900245.2149425
-0.14872769,0.5397085,-0.022232568,-2.854271,-2.071743,0.7825279,-2.9357839,9.252235,-1.3955995,0,1683900245.2409017
-0.14872769,0.5397085,-0.022232568,-2.743454,-2.0749474,0.8730507,-2.9357839,9.252235,-1.3955995,0,1683900245.2460415
-0.14872769,0.5397085,-0.022232568,-2.743454,-2.0749474,0.8730507,-2.849765,9.338114,-0.9213319,0,1683900245.2511878
-0.14872769,0.5397085,-0.022232568,1.0360718,1.7749405,-0.8825302,-4.780189,8.209547,-2.4338279,0,1683900245.2603312
-0.49211925,0.6424545,-0.6414081,1.0360718,1.7749405,-0.8825302,-4.780189,8.209547,-2.4338279,0,1683900245.2603617
-0.49700254,0.6348869,-0.6318993,1.0360718,1.7749405,-0.8825302,-4.780189,8.209547,-2.4338279,0,1683900245.305597
-0.49700254,0.6348869,-0.6318993,1.0360718,1.7749405,-0.8825302,-4.819136,8.110198,-2.6778717,0,1683900245.3211162
-0.49700254,0.6348869,-0.6318993,0.8315277,1.5948296,-0.7941437,-4.819136,8.110198,-2.6778717,0,1683900245.3367043
-0.6090298,0.6309894,-0.6262881,1.0073662,1.1155128,-0.5459404,-4.876207,7.7595778,-3.4902663,0,1683900245.3528233
-0.6090298,0.6309894,-0.6262881,1.0168457,1.1112404,-0.52778244,-4.876207,7.7595778,-3.4902663,0,1683900245.3583317
-0.6090298,0.6309894,-0.6262881,1.0168457,1.1112404,-0.52778244,-4.880727,7.69299,-3.6286075,0,1683900245.3687587
-0.61684,0.65149313,-0.7624588,1.0168457,1.1112404,-0.52778244,-4.880727,7.69299,-3.6286075,0,1683900245.3842707
-0.67321,0.64124125,-0.91256654,1.0733223,0.6116295,-0.57037354,-4.906331,7.3623366,-4.2301655,0,1683900245.3991416
-0.7481426,0.64880884,-1.0126283,1.0733223,0.6116295,-0.57037354,-4.906331,7.3623366,-4.2301655,0,1683900245.4108646
-0.7984161,0.63318837,-1.0999964,1.0743904,0.53699493,-0.57250977,-4.917124,7.32134,-4.288387,0,1683900245.4160206
-0.7984161,0.63318837,-1.0999964,1.0743904,0.53699493,-0.57250977,-4.9526277,7.199801,-4.4502497,0,1683900245.4263525
-0.7984161,0.63318837,-1.0999964,0.9721184,0.42951584,-0.5544853,-4.9526277,7.199801,-4.4502497,0,1683900245.4314907
-0.7984161,0.63318837,-1.0999964,0.79000473,0.3336525,-0.49266815,-4.9526277,7.199801,-4.4502497,0,1683900245.4628446
-0.87651825,0.6082867,-1.2347113,0.79000473,0.3336525,-0.49266815,-4.9526277,7.199801,-4.4502497,0,1683900245.478387
-0.87651825,0.6082867,-1.2347113,0.79000473,0.3336525,-0.49266815,-4.9872026,7.088044,-4.5888796,0,1683900245.4886816
-0.87651825,0.6082867,-1.2347113,0.79000473,0.3336525,-0.49266815,-5.0270777,6.9930544,-4.6899977,0,1683900245.4991643
-0.9292334,0.5646102,-1.3386858,0.79000473,0.3336525,-0.49266815,-5.0270777,6.9930544,-4.6899977,0,1683900245.504347
-0.9292334,0.5646102,-1.3386858,0.5726433,0.008678436,-0.3679657,-5.0270777,6.9930544,-4.6899977,0,1683900245.5095038
-0.9292334,0.5646102,-1.3386858,0.48639297,-0.11909485,-0.30735016,-5.0270777,6.9930544,-4.6899977,0,1683900245.5301235
-0.9380142,0.55996954,-1.3284339,0.48639297,-0.11909485,-0.30735016,-5.0270777,6.9930544,-4.6899977,0,1683900245.535264
-0.9380142,0.55996954,-1.3284339,0.48639297,-0.11909485,-0.30735016,-5.0425744,6.967441,-4.7114315,0,1683900245.5508208
-0.9380142,0.55996954,-1.3284339,0.48639297,-0.11909485,-0.30735016,-5.0876803,6.9141665,-4.741328,0,1683900245.5560477
-0.9380142,0.55996954,-1.3284339,-0.019626617,-0.3929329,0.04846573,-5.0876803,6.9141665,-4.741328,0,1683900245.566339
-0.9641291,0.5482466,-1.2703501,-0.019626617,-0.3929329,0.04846573,-5.0876803,6.9141665,-4.741328,0,1683900245.5715213
-0.9641291,0.5482466,-1.2703501,0.19453049,-0.3439331,-0.10814667,-5.0876803,6.9141665,-4.741328,0,1683900245.576698
-0.9641291,0.5482466,-1.2703501,0.19453049,-0.3439331,-0.10814667,-5.110036,6.9004717,-4.737237,0,1683900245.5818374
-0.96534234,0.5343399,-1.2317843,0.19453049,-0.3439331,-0.10814667,-5.110036,6.9004717,-4.737237,0,1683900245.6024897
-0.9548479,0.532884,-1.213237,0.19453049,-0.3439331,-0.10814667,-5.110036,6.9004717,-4.737237,0,1683900245.618937
-0.9548479,0.532884,-1.213237,-0.12403488,-0.41643143,0.13378143,-5.110036,6.9004717,-4.737237,0,1683900245.6292539
-0.9548479,0.532884,-1.213237,-0.12403488,-0.41643143,0.13378143,-5.117671,6.9007335,-4.7286057,0,1683900245.6343923
-0.9548479,0.532884,-1.213237,-0.3977394,-0.537796,0.3606224,-5.117671,6.9007335,-4.7286057,0,1683900245.6448514
-0.8848137,0.5548436,-1.1531969,-0.3977394,-0.537796,0.3606224,-5.117671,6.9007335,-4.7286057,0,1683900245.650076
-0.8848137,0.5548436,-1.1531969,-0.3977394,-0.537796,0.3606224,-5.1281614,6.92801,-4.6770744,0,1683900245.6764007
-0.8848137,0.5548436,-1.1531969,-0.53726196,-0.68906784,0.4746437,-5.1281614,6.92801,-4.6770744,0,1683900245.6815567
-0.8359961,0.56216854,-1.0997539,-0.53726196,-0.68906784,0.4746437,-5.1281614,6.92801,-4.6770744,0,1683900245.7022264
-0.8359961,0.56216854,-1.0997539,-0.53726196,-0.68906784,0.4746437,-5.130528,6.964232,-4.62034,0,1683900245.7073567
-0.8359961,0.56216854,-1.0997539,-0.63632965,-0.8574295,0.56943893,-5.130528,6.964232,-4.62034,0,1683900245.717661
-0.73129374,0.6048745,-0.95502985,-0.63632965,-0.8574295,0.56943893,-5.130528,6.964232,-4.62034,0,1683900245.73325
-0.78596526,0.57924485,-1.0233654,-0.63632965,-0.8574295,0.56943893,-5.130528,6.964232,-4.62034,0,1683900245.7472134
-0.70957685,0.60584503,-0.919391,-0.7173729,-1.089611,0.64180374,-5.1371927,7.094775,-4.409515,0,1683900245.7524624
-0.70957685,0.60584503,-0.919391,-0.7195091,-1.311245,0.6588936,-5.149369,7.1832466,-4.249159,0,1683900245.7628684
-0.6593033,0.6182959,-0.82861054,-0.7195091,-1.311245,0.6588936,-5.149369,7.1832466,-4.249159,0,1683900245.768064
-0.63367367,0.5999912,-0.6477624,-0.57250977,-1.6840172,0.6727791,-5.180638,7.296527,-4.0114927,0,1683900245.788983
-0.64027065,0.59340936,-0.63751054,-0.57250977,-1.6840172,0.6727791,-5.180638,7.296527,-4.0114927,0,1683900245.799565
-0.64027065,0.59340936,-0.63751054,-0.57250977,-1.6840172,0.6727791,-5.2078958,7.3759522,-3.8266873,0,1683900245.8048654
-0.6490515,0.57704586,-0.61432254,-0.5383301,-1.7916298,0.7526207,-5.2078958,7.3759522,-3.8266873,0,1683900245.8101
-0.6490515,0.57704586,-0.61432254,-0.5383301,-1.7916298,0.7526207,-5.229486,7.4560504,-3.6373308,0,1683900245.8255703
-0.64295495,0.5741189,-0.60235703,-0.5383301,-1.7916298,0.7526207,-5.229486,7.4560504,-3.6373308,0,1683900245.8515313
-0.5838855,0.5677798,-0.5376915,-0.5383301,-1.7916298,0.7526207,-5.238383,7.574173,-3.3707037,0,1683900245.856734
-0.5838855,0.5677798,-0.5376915,-0.6480789,-1.9386292,1.0061646,-5.2295394,7.642248,-3.2277455,0,1683900245.8619213
-0.5838855,0.5677798,-0.5376915,-0.68746567,-1.9407654,1.042347,-5.2295394,7.642248,-3.2277455,0,1683900245.8876834
-0.5838855,0.5677798,-0.5376915,-0.68746567,-1.9407654,1.042347,-5.221491,7.6787553,-3.1532762,0,1683900245.903117
-0.5155499,0.5951079,-0.43957093,-0.68746567,-1.9407654,1.042347,-5.221491,7.6787553,-3.1532762,0,1683900245.92891
-0.5155499,0.5951079,-0.43957093,-0.68746567,-1.9407654,1.042347,-5.184184,7.7939014,-2.9239922,0,1683900245.9391704
-0.5155499,0.5951079,-0.43957093,-0.7908058,-1.8874931,1.1084366,-5.184184,7.7939014,-2.9239922,0,1683900245.9443367
-0.5004148,0.61684,-0.3717358,-0.7908058,-1.8874931,1.1084366,-5.184184,7.7939014,-2.9239922,0,1683900245.9855433
-0.5004148,0.61684,-0.3717358,-0.7908058,-1.8874931,1.1084366,-5.110196,7.952773,-2.6095383,0,1683900245.9923127
-0.5004148,0.61684,-0.3717358,-0.85048676,-1.8310165,1.1456871,-5.110196,7.952773,-2.6095383,0,1683900246.003227
-0.5004148,0.61684,-0.3717358,-0.83553314,-1.8555832,1.1755943,-5.110196,7.952773,-2.6095383,0,1683900246.0238938
-0.49042073,0.6178106,-0.33829597,-0.83553314,-1.8555832,1.1755943,-5.040603,8.07026,-2.3735251,0,1683900246.0343451
-0.49042073,0.6178106,-0.33829597,-0.76423645,-1.9716072,1.2310028,-5.040603,8.07026,-2.3735251,0,1683900246.0395014
-0.45405394,0.64124125,-0.29119205,-0.76423645,-1.9716072,1.2310028,-4.9588714,8.1861315,-2.1371071,0,1683900246.0446992
-0.45405394,0.64124125,-0.29119205,-0.76423645,-1.9716072,1.2310028,-4.929524,8.22379,-2.0589952,0,1683900246.0757203
-0.45405394,0.64124125,-0.29119205,-0.76423645,-1.9716072,1.2310028,-4.8340387,8.334773,-1.825929,0,1683900246.0809386
-0.4503839,0.63318837,-0.16697174,-0.7460785,-1.9418335,1.255436,-4.8340387,8.334773,-1.825929,0,1683900246.0809526
-0.4503839,0.63318837,-0.16697174,-0.7460785,-1.9418335,1.255436,-4.760852,8.408586,-1.6734315,0,1683900246.0861187
-0.4503839,0.63318837,-0.16697174,-0.7546234,-1.8736076,1.3055038,-4.760852,8.408586,-1.6734315,0,1683900246.101588
-0.44501534,0.63952756,-0.14719598,-0.7556915,-1.8267441,1.3290024,-4.760852,8.408586,-1.6734315,0,1683900246.1120682
-0.44501534,0.63952756,-0.14719598,-0.7556915,-1.8267441,1.3290024,-4.720559,8.445808,-1.5984449,0,1683900246.117243
-0.45795146,0.6280625,-0.15964682,-0.7450104,-1.6594505,1.3864136,-4.5878596,8.555923,-1.3849612,0,1683900246.1224136
-0.45795146,0.6280625,-0.15964682,-0.7972145,-1.631813,1.5355492,-4.5878596,8.555923,-1.3849612,0,1683900246.148132
-0.35496283,0.6392849,-0.15744783,-0.8451462,-1.6563797,1.6091156,-4.2562437,8.781487,-0.96967596,0,1683900246.1534085
-0.33153218,0.652949,-0.12889126,-0.880394,-1.6585159,1.6420937,-4.1922336,8.819914,-0.8970419,0,1683900246.1637387
-0.33153218,0.652949,-0.12889126,-0.954895,-1.5934944,1.6816139,-3.9883094,8.9336195,-0.6739628,0,1683900246.168974
-0.27564743,0.69127214,-0.023946265,-0.954895,-1.5934944,1.6816139,-3.9883094,8.9336195,-0.6739628,0,1683900246.1792922
-0.27564743,0.69127214,-0.023946265,-0.954895,-1.5934944,1.6816139,-3.9173632,8.9702635,-0.59919685,0,1683900246.1998386
-0.26612353,0.69151473,0.023642955,-1.0177803,-1.4677238,1.7507744,-3.695064,9.076059,-0.37688863,0,1683900246.2155943
-0.2304847,0.7054215,0.042190317,-1.0177803,-1.4677238,1.7507744,-3.695064,9.076059,-0.37688863,0,1683900246.2207596
-0.2304847,0.7054215,0.042190317,-1.0528946,-1.385746,1.8061829,-3.5361686,9.144024,-0.22966106,0,1683900246.231344
-0.2304847,0.7054215,0.042190317,-1.0528946,-1.385746,1.8061829,-3.4541388,9.176866,-0.15636367,0,1683900246.2519143
-0.21365103,0.7061646,0.051228933,-1.0528946,-1.385746,1.8061829,-3.4541388,9.176866,-0.15636367,0,1683900246.2571578
-0.15166979,0.7330075,0.108084254,-1.0528946,-1.385746,1.8061829,-3.4541388,9.176866,-0.15636367,0,1683900246.2622938
-0.15166979,0.7330075,0.108084254,-1.0528946,-1.385746,1.8061829,-3.2017112,9.269084,0.059400044,0,1683900246.277792
-0.15166979,0.7330075,0.108084254,-1.0028267,-1.4326096,1.816864,-3.2017112,9.269084,0.059400044,0,1683900246.28808
-0.12896709,0.7437446,0.12614632,-1.0028267,-1.4326096,1.816864,-3.2017112,9.269084,0.059400044,0,1683900246.2984295
-0.07064073,0.7749855,0.23084867,-0.8239174,-1.413517,1.737957,-2.85683,9.375577,0.3278272,0,1683900246.3243885
-0.07064073,0.7749855,0.23084867,-0.8239174,-1.413517,1.737957,-2.6842961,9.4213505,0.45064938,0,1683900246.3295739
-0.07064073,0.7749855,0.23084867,-0.7972145,-1.3782692,1.7295456,-2.6842961,9.4213505,0.45064938,0,1683900246.334727
-0.07064073,0.7749855,0.23084867,-0.7972145,-1.3782692,1.7295456,-2.597604,9.442646,0.50919497,0,1683900246.3453548
-0.06916968,0.7893775,0.2569636,-0.7972145,-1.3782692,1.7295456,-2.597604,9.442646,0.50919497,0,1683900246.350518
-0.06916968,0.7893775,0.2569636,-0.6831932,-1.2579727,1.704979,-2.597604,9.442646,0.50919497,0,1683900246.3660753
-0.06916968,0.7893775,0.2569636,-0.6831932,-1.2579727,1.704979,-2.3395662,9.500054,0.66767836,0,1683900246.3712006
-0.10113847,0.79084855,0.25916258,-0.6831932,-1.2579727,1.704979,-2.3395662,9.500054,0.66767836,0,1683900246.3764365
0.11387746,0.9004342,0.3833829,-0.6831932,-1.2579727,1.704979,-2.3395662,9.500054,0.66767836,0,1683900246.3920374
0.1902659,0.95876056,0.36215124,-0.6831932,-1.2579727,1.704979,-2.3395662,9.500054,0.66767836,0,1683900246.4023442
0.1902659,0.95876056,0.36215124,-0.6831932,-1.2579727,1.704979,-0.81317717,9.696091,1.2226856,0,1683900246.407522
0.1902659,0.95876056,0.36215124,-0.1538086,-0.9659767,1.8626595,-0.81317717,9.696091,1.2226856,0,1683900246.4229763
0.22540426,0.9817059,0.33286673,-0.1538086,-0.9659767,1.8626595,-0.81317717,9.696091,1.2226856,0,1683900246.4332561
0.22540426,0.9817059,0.33286673,-0.12296677,-0.9064293,1.8541145,-0.81317717,9.696091,1.2226856,0,1683900246.453872
0.22540426,0.9817059,0.33286673,-0.12296677,-0.9064293,1.8541145,-0.7138805,9.702383,1.234717,0,1683900246.4590402
0.22540426,0.9817059,0.33286673,-0.12296677,-0.9064293,1.8541145,-0.4267572,9.714989,1.267784,0,1683900246.4745574
0.3249807,1.0444151,0.25549254,-0.12296677,-0.9064293,1.8541145,-0.4267572,9.714989,1.267784,0,1683900246.479687
0.3249807,1.0444151,0.25549254,-0.17944336,-0.66236496,1.7432976,-0.4267572,9.714989,1.267784,0,1683900246.4848216
0.36891505,1.0868936,0.25159502,-0.17944336,-0.66236496,1.7432976,-0.4267572,9.714989,1.267784,0,1683900246.5105722
0.36891505,1.0868936,0.25159502,-0.17944336,-0.66236496,1.7432976,-0.24812359,9.717523,1.2955955,0,1683900246.5157049
0.36891505,1.0868936,0.25159502,-0.2550125,-0.54634094,1.6347504,-0.24812359,9.717523,1.2955955,0,1683900246.5209281
0.36891505,1.0868936,0.25159502,-0.26676178,-0.53993225,1.5772057,-0.24812359,9.717523,1.2955955,0,1683900246.5312781
0.40966463,1.1125079,0.26721546,-0.26676178,-0.53993225,1.5772057,-0.24812359,9.717523,1.2955955,0,1683900246.5417588
0.40966463,1.1125079,0.26721546,-0.26676178,-0.53993225,1.5772057,-0.0801974,9.716406,1.324921,0,1683900246.552115
0.49654758,1.1945229,0.41706538,-0.09305954,-0.69761276,1.3290024,-0.0801974,9.716406,1.324921,0,1683900246.5573256
0.5055862,1.2137982,0.44782093,-0.09305954,-0.69761276,1.3290024,0.07415338,9.713798,1.3442651,0,1683900246.5624828
0.5055862,1.2137982,0.44782093,0.026168823,-0.7434082,1.2320709,0.3320786,9.71233,1.3155842,0,1683900246.5676963
0.5055862,1.2137982,0.44782093,0.026168823,-0.7434082,1.2320709,0.71742827,9.708962,1.1797163,0,1683900246.5729356
0.5055862,1.2137982,0.44782093,0.045394897,0.18972397,0.44153214,0.71742827,9.708962,1.1797163,0,1683900246.5935361
0.5753928,1.3758563,0.22840703,0.045394897,0.18972397,0.44153214,0.71742827,9.708962,1.1797163,0,1683900246.6088974
0.5753928,1.3758563,0.22840703,-0.018558502,0.2344513,0.3467369,0.71742827,9.708962,1.1797163,0,1683900246.6140733
0.5753928,1.3758563,0.22840703,-0.018558502,0.2344513,0.3467369,0.76197857,9.705163,1.1830481,0,1683900246.6192045
0.60491997,1.388292,0.23231971,-0.04299164,0.25154114,0.2956009,0.7808254,9.703207,1.1867905,0,1683900246.6244187
0.60491997,1.388292,0.23231971,-0.09519577,0.29520035,0.10601044,0.7808254,9.703207,1.1867905,0,1683900246.6296062
0.60491997,1.388292,0.23231971,-0.09519577,0.29520035,0.10601044,0.8210535,9.697645,1.2049634,0,1683900246.6348145
0.6900892,1.4363816,0.2867334,-0.09519577,0.29520035,0.10601044,0.8210535,9.697645,1.2049634,0,1683900246.6348424
0.71474826,1.4451624,0.3182169,-0.09519577,0.29520035,0.10601044,0.8210535,9.697645,1.2049634,0,1683900246.6399655
0.71474826,1.4451624,0.3182169,-0.10374069,0.31763077,0.028305054,0.818137,9.693419,1.2404258,0,1683900246.6451647
0.70936453,1.3858503,0.48223138,-0.10374069,0.31763077,0.028305054,0.818137,9.693419,1.2404258,0,1683900246.6554232
0.70936453,1.3858503,0.48223138,-0.037651062,0.65101624,-0.52030563,0.818137,9.693419,1.2404258,0,1683900246.6605456
0.74451804,1.4275856,0.42975888,-0.037651062,0.65101624,-0.52030563,0.818137,9.693419,1.2404258,0,1683900246.6656778
0.74451804,1.4275856,0.42975888,-0.037651062,0.65101624,-0.52030563,0.780926,9.694286,1.2575159,0,1683900246.6810985
0.74451804,1.4275856,0.42975888,-0.094127655,0.49013138,-0.27851105,0.780926,9.694286,1.2575159,0,1683900246.6862414
0.74451804,1.4275856,0.42975888,-0.094127655,0.49013138,-0.27851105,0.7522706,9.695821,1.2631491,0,1683900246.69649
0.74451804,1.4275856,0.42975888,0.016555786,0.71603775,-0.64180374,0.7522706,9.695821,1.2631491,0,1683900246.7016568
0.74451804,1.4275856,0.42975888,0.24353027,0.80869675,-0.9687805,0.7522706,9.695821,1.2631491,0,1683900246.7274585
0.74451804,1.4275856,0.42975888,0.24353027,0.80869675,-0.9687805,0.6305736,9.705053,1.2588483,0,1683900246.737798
0.5636699,1.2416116,0.46075708,0.24353027,0.80869675,-0.9687805,0.6305736,9.705053,1.2588483,0,1683900246.74298
0.5636699,1.2416116,0.46075708,0.6504822,1.3339424,-1.6846848,0.6305736,9.705053,1.2588483,0,1683900246.7482293
0.2664117,0.91238457,0.32237223,0.6504822,1.3339424,-1.6846848,-0.33419743,9.757127,0.9258388,0,1683900246.7534053
0.2195504,0.89042497,0.30845034,0.6504822,1.3339424,-1.6846848,-0.33419743,9.757127,0.9258388,0,1683900246.758619
0.2195504,0.89042497,0.30845034,0.73246,1.3988304,-1.7219353,-0.33419743,9.757127,0.9258388,0,1683900246.763787
0.2195504,0.89042497,0.30845034,0.73246,1.3988304,-1.7219353,-0.506623,9.756025,0.8565592,0,1683900246.7689009
0.2195504,0.89042497,0.30845034,0.77825546,1.4276695,-1.7454338,-0.506623,9.756025,0.8565592,0,1683900246.779244
0.2195504,0.89042497,0.30845034,0.77825546,1.4276695,-1.7454338,-0.59471875,9.754428,0.81721187,0,1683900246.7844439
0.1985614,0.88090104,0.28600547,0.77825546,1.4276695,-1.7454338,-0.59471875,9.754428,0.81721187,0,1683900246.7914248
0.14096297,0.82477367,0.18935597,0.77825546,1.4276695,-1.7454338,-0.59471875,9.754428,0.81721187,0,1683900246.796707
0.14096297,0.82477367,0.18935597,0.9072304,1.4531708,-1.8135262,-0.59471875,9.754428,0.81721187,0,1683900246.812114
0.11484805,0.7949887,0.14176674,0.9072304,1.4531708,-1.8135262,-0.59471875,9.754428,0.81721187,0,1683900246.8277183
0.086048834,0.78547996,0.10588526,1.0189819,1.3838768,-1.8860245,-1.2324281,9.717829,0.46401036,0,1683900246.8330085
0.07189946,0.7564381,0.07611546,1.0189819,1.3838768,-1.8860245,-1.2324281,9.717829,0.46401036,0,1683900246.8535745
0.07189946,0.7564381,0.07611546,1.0189819,1.3838768,-1.8860245,-1.4183109,9.697335,0.34709632,0,1683900246.8587363
0.07189946,0.7564381,0.07611546,1.028595,1.4031029,-1.9125938,-1.4183109,9.697335,0.34709632,0,1683900246.8639226
0.055293277,0.740575,0.069533646,1.028595,1.4031029,-1.9125938,-1.4183109,9.697335,0.34709632,0,1683900246.8897686
0.055293277,0.740575,0.069533646,1.0147095,1.4339447,-1.9264793,-1.4183109,9.697335,0.34709632,0,1683900246.894947
0.055293277,0.740575,0.069533646,1.0147095,1.4339447,-1.9264793,-1.5119761,9.685112,0.2879454,0,1683900246.9001231
-0.02279369,0.7161586,0.0763581,1.0147095,1.4339447,-1.9264793,-1.5119761,9.685112,0.2879454,0,1683900246.9052935
-0.02279369,0.7161586,0.0763581,1.3418198,1.5224648,-1.8710709,-1.5119761,9.685112,0.2879454,0,1683900246.9156003
-0.19338998,0.61219937,-0.24872875,1.3418198,1.5224648,-1.8710709,-1.5119761,9.685112,0.2879454,0,1683900246.9361987
-0.19338998,0.61219937,-0.24872875,1.3418198,1.5224648,-1.8710709,-3.001353,9.288604,-0.9402692,0,1683900246.9413497
-0.23147045,0.5807159,-0.24043325,1.3418198,1.5224648,-1.8710709,-3.001353,9.288604,-0.9402692,0,1683900246.9670084
-0.23147045,0.5807159,-0.24043325,1.1606407,1.6151237,-1.8434334,-3.001353,9.288604,-0.9402692,0,1683900246.9721334
-0.23147045,0.5807159,-0.24043325,1.1606407,1.6151237,-1.8434334,-3.1566808,9.2186775,-1.1053233,0,1683900246.977291
-0.25611433,0.57436156,-0.1964989,1.1606407,1.6151237,-1.8434334,-3.1566808,9.2186775,-1.1053233,0,1683900246.9927094
-0.25611433,0.57436156,-0.1964989,1.0467529,1.7109871,-1.807251,-3.1566808,9.2186775,-1.1053233,0,1683900247.0081155
-0.25611433,0.57436156,-0.1964989,1.0467529,1.7109871,-1.807251,-3.2306466,9.18343,-1.1823465,0,1683900247.0132718
-0.25611433,0.57436156,-0.1964989,0.8571625,2.1286201,-1.6825485,-3.2306466,9.18343,-1.1823465,0,1683900247.0243142
-0.25611433,0.57436156,-0.1964989,0.8571625,2.1286201,-1.6825485,-3.429993,9.079003,-1.40614,0,1683900247.029662
-0.33518705,0.62122285,-0.1510935,0.8571625,2.1286201,-1.6825485,-3.429993,9.079003,-1.40614,0,1683900247.0349376
-0.38034979,0.60243285,-0.17916477,0.8571625,2.1286201,-1.6825485,-3.429993,9.079003,-1.40614,0,1683900247.0559516
-0.38034979,0.60243285,-0.17916477,0.8571625,2.2052574,-1.6346169,-3.429993,9.079003,-1.40614,0,1683900247.0766501
-0.38034979,0.60243285,-0.17916477,0.8571625,2.2052574,-1.6346169,-3.489458,9.043912,-1.4838196,0,1683900247.081786
-0.3957124,0.5951079,-0.2577522,0.8571625,2.2052574,-1.6346169,-3.489458,9.043912,-1.4838196,0,1683900247.1024523
-0.3957124,0.5951079,-0.2577522,0.8571625,2.2052574,-1.6346169,-3.644208,8.938378,-1.730757,0,1683900247.1076314
-0.3957124,0.5951079,-0.2577522,0.94768524,2.2595978,-1.4578438,-3.644208,8.938378,-1.730757,0,1683900247.1179464
-0.3957124,0.5951079,-0.2577522,0.99882126,2.183895,-1.3555717,-3.644208,8.938378,-1.730757,0,1683900247.1231496
-0.3896159,0.5816865,-0.34951842,0.99882126,2.183895,-1.3555717,-3.644208,8.938378,-1.730757,0,1683900247.1282954
-0.3896159,0.5816865,-0.34951842,0.99882126,2.183895,-1.3555717,-3.729538,8.867555,-1.9045722,0,1683900247.1334407
-0.37522388,0.5772885,-0.37636128,0.99882126,2.183895,-1.3555717,-3.729538,8.867555,-1.9045722,0,1683900247.1487901
-0.37522388,0.5772885,-0.37636128,1.1255264,1.626873,-0.8378029,-3.729538,8.867555,-1.9045722,0,1683900247.1692622
-0.37522388,0.5772885,-0.37636128,1.0020256,1.7961693,-0.82178116,-3.729538,8.867555,-1.9045722,0,1683900247.1845634
-0.5941373,0.57070667,-0.8154318,1.0020256,1.7961693,-0.82178116,-3.729538,8.867555,-1.9045722,0,1683900247.1896963
-0.5941373,0.57070667,-0.8154318,1.0020256,1.7961693,-0.82178116,-4.2087793,7.8377314,-4.126322,0,1683900247.2101545
-0.5995059,0.59389466,-0.82249886,1.0020256,1.7961693,-0.82178116,-4.2087793,7.8377314,-4.126322,0,1683900247.2152717
-0.5995059,0.59389466,-0.82249886,1.0020256,1.7961693,-0.82178116,-4.2051797,7.7962284,-4.207813,0,1683900247.230665
-0.5995059,0.59389466,-0.82249886,0.86250305,1.9399643,-0.7451439,-4.2051797,7.7962284,-4.207813,0,1683900247.2615988
-0.6893158,0.5665513,-0.9611263,0.86250305,1.9399643,-0.7451439,-4.2051797,7.7962284,-4.207813,0,1683900247.2667408
-0.64075595,0.6409986,-1.1034087,0.86250305,1.9399643,-0.7451439,-4.2051797,7.7962284,-4.207813,0,1683900247.3079364
-0.6893158,0.5665513,-0.9611263,0.86250305,1.9399643,-0.7451439,-4.2051797,7.7962284,-4.207813,0,1683900247.3130586
-0.6893158,0.5665513,-0.9611263,0.801754,0.9833336,-0.40107727,-4.2051797,7.7962284,-4.207813,0,1683900247.3181548
-0.6893158,0.5665513,-0.9611263,0.801754,0.9833336,-0.40107727,-4.176035,7.6779594,-4.4474783,0,1683900247.333475
-0.6893158,0.5665513,-0.9611263,0.86250305,1.9399643,-0.7451439,-4.176035,7.6779594,-4.4474783,0,1683900247.3539488
-0.6893158,0.5665513,-0.9611263,0.86250305,1.9399643,-0.7451439,-4.111871,7.4654307,-4.850798,0,1683900247.3642466
-0.6893158,0.5665513,-0.9611263,0.801754,0.9833336,-0.40107727,-4.111871,7.4654307,-4.850798,0,1683900247.3847551
-0.64075595,0.6409986,-1.1034087,0.801754,0.9833336,-0.40107727,-4.111871,7.4654307,-4.850798,0,1683900247.3950288
-0.64075595,0.6409986,-1.1034087,0.801754,0.9833336,-0.40107727,-4.1051507,7.435813,-4.9017153,0,1683900247.4001217
-0.64075595,0.6409986,-1.1034087,0.59827805,0.8769226,-0.42123795,-4.1051507,7.435813,-4.9017153,0,1683900247.4103506
-0.64075595,0.6409986,-1.1034087,0.59827805,0.8769226,-0.42123795,-4.087044,7.3533435,-5.039325,0,1683900247.4154603
-0.6383143,0.6995676,-1.0416701,0.59827805,0.8769226,-0.42123795,-4.087044,7.3533435,-5.039325,0,1683900247.4257183
-0.8901823,0.48992026,-1.2171497,0.59827805,0.8769226,-0.42123795,-4.087044,7.3533435,-5.039325,0,1683900247.4411013
-0.8901823,0.48992026,-1.2171497,-0.6311226,-0.6571579,0.338192,-4.087044,7.3533435,-5.039325,0,1683900247.4513223
-0.8901823,0.48992026,-1.2171497,-0.6311226,-0.6571579,0.338192,-4.450363,6.908509,-5.351371,0,1683900247.461586
-0.8901823,0.48992026,-1.2171497,-0.9026909,-0.6347275,0.56303024,-4.450363,6.908509,-5.351371,0,1683900247.4821036
-0.8342976,0.5016432,-1.1202575,-0.9026909,-0.6347275,0.56303024,-4.450363,6.908509,-5.351371,0,1683900247.4872007
-0.8342976,0.5016432,-1.1202575,-0.9026909,-0.6347275,0.56303024,-4.454634,6.9642606,-5.2750063,0,1683900247.5077403
-0.8342976,0.5016432,-1.1202575,-0.9026909,-0.6347275,0.56303024,-4.450981,7.000222,-5.2303004,0,1683900247.5282516
-0.8342976,0.5016432,-1.1202575,-1.0017586,-0.6443405,0.66316605,-4.450981,7.000222,-5.2303004,0,1683900247.533393
-0.80281407,0.50945336,-1.0753527,-1.0017586,-0.6443405,0.66316605,-4.450981,7.000222,-5.2303004,0,1683900247.5385237
-0.80281407,0.50945336,-1.0753527,-1.0017586,-0.6443405,0.66316605,-4.425728,7.128505,-5.0761933,0,1683900247.5487432
-0.6039039,0.5775463,-0.90548426,-1.0017586,-0.6443405,0.66316605,-4.425728,7.128505,-5.0761933,0,1683900247.5641375
-0.6039039,0.5775463,-0.90548426,-1.0017586,-0.6443405,0.66316605,-4.406052,7.2221737,-4.9595666,0,1683900247.5692792
-0.6039039,0.5775463,-0.90548426,-1.177597,-0.75942993,0.8687782,-4.406052,7.2221737,-4.9595666,0,1683900247.5949533
-0.6790639,0.55288726,-0.96990716,-1.177597,-0.75942993,0.8687782,-4.406052,7.2221737,-4.9595666,0,1683900247.6052089
-0.5423928,0.6026755,-0.8466726,-1.177597,-0.75942993,0.8687782,-4.406052,7.2221737,-4.9595666,0,1683900247.6205904
-0.5423928,0.6026755,-0.8466726,-1.1797333,-1.0853386,0.9231186,-4.406052,7.2221737,-4.9595666,0,1683900247.625717
-0.5423928,0.6026755,-0.8466726,-1.1797333,-1.0853386,0.9231186,-4.391048,7.3152404,-4.8349094,0,1683900247.630854
-0.50993866,0.6165822,-0.7915006,-1.1797333,-1.0853386,0.9231186,-4.391048,7.3152404,-4.8349094,0,1683900247.661674
-0.50993866,0.6165822,-0.7915006,-1.1083031,-1.2802696,0.8869362,-4.391048,7.3152404,-4.8349094,0,1683900247.677074
-0.50993866,0.6165822,-0.7915006,-1.1083031,-1.2802696,0.8869362,-4.384449,7.403411,-4.7049456,0,1683900247.682208
-0.49847358,0.6195243,-0.7690558,-1.0614395,-1.3804054,0.866642,-4.384823,7.444737,-4.6389236,0,1683900247.6873648
-0.45770884,0.5799728,-0.457633,-1.1115074,-1.8842888,1.3001633,-4.384823,7.444737,-4.6389236,0,1683900247.697696
-0.4403747,0.59340936,-0.44616792,-1.1115074,-1.8842888,1.3001633,-4.373504,8.18907,-3.159429,0,1683900247.7028546
-0.4403747,0.59340936,-0.44616792,-1.1115074,-1.8842888,1.3001633,-4.2941966,8.324589,-2.9037023,0,1683900247.707977
-0.4403747,0.59340936,-0.44616792,-1.1540985,-1.8853569,1.3812065,-4.2941966,8.324589,-2.9037023,0,1683900247.7233255
-0.4403747,0.59340936,-0.44616792,-1.158371,-1.937561,1.4428902,-4.2941966,8.324589,-2.9037023,0,1683900247.7438612
-0.4101196,0.59974855,-0.41589764,-1.158371,-1.937561,1.4428902,-4.2941966,8.324589,-2.9037023,0,1683900247.7540386
-0.4101196,0.59974855,-0.41589764,-1.158371,-1.937561,1.4428902,-4.2306967,8.415434,-2.7298448,0,1683900247.7591405
-0.4101196,0.59974855,-0.41589764,-1.158371,-1.937561,1.4428902,-4.1587806,8.506217,-2.5532715,0,1683900247.7642581
-0.35740444,0.629761,-0.3666099,-1.158371,-1.937561,1.4428902,-4.1587806,8.506217,-2.5532715,0,1683900247.7847695
-0.35740444,0.629761,-0.3666099,-1.1466217,-2.0015144,1.4866829,-4.1587806,8.506217,-2.5532715,0,1683900247.7949874
-0.35740444,0.629761,-0.3666099,-1.1466217,-2.0015144,1.4866829,-4.082604,8.5937195,-2.377122,0,1683900247.8052506
-0.35740444,0.629761,-0.3666099,-1.0880089,-2.0792198,1.4792061,-4.082604,8.5937195,-2.377122,0,1683900247.8206134
-0.3029756,0.6571043,-0.2909494,-1.0880089,-2.0792198,1.4792061,-4.082604,8.5937195,-2.377122,0,1683900247.8308518
-0.3029756,0.6571043,-0.2909494,-1.0284615,-2.1239471,1.4589119,-4.082604,8.5937195,-2.377122,0,1683900247.8359847
-0.27758864,0.6734527,-0.25214097,-1.0284615,-2.1239471,1.4589119,-4.082604,8.5937195,-2.377122,0,1683900247.8462408
-0.27758864,0.6734527,-0.25214097,-1.0284615,-2.1239471,1.4589119,-4.0442667,8.635134,-2.2910168,0,1683900247.851336
-0.21340838,0.64124125,-0.13450249,-1.0284615,-2.1239471,1.4589119,-4.0442667,8.635134,-2.2910168,0,1683900247.882095
-0.21340838,0.64124125,-0.13450249,-0.361557,-2.5373077,1.2224579,-4.0442667,8.635134,-2.2910168,0,1683900247.9231536
-0.21340838,0.64124125,-0.13450249,-0.361557,-2.5373077,1.2224579,-3.8695097,8.807042,-1.9061159,0,1683900247.93342
0.5443946,1.2506502,0.34628817,-0.361557,-2.5373077,1.2224579,-3.8695097,8.807042,-1.9061159,0,1683900247.9385548
0.5443946,1.2506502,0.34628817,-0.3476715,-1.4229965,1.4334106,-3.8695097,8.807042,-1.9061159,0,1683900247.9436455
0.5443946,1.2506502,0.34628817,-0.3476715,-1.4229965,1.4334106,-1.0783968,9.736681,0.45218936,0,1683900247.9641638
0.5443946,1.2506502,0.34628817,-0.19533157,-1.413517,1.1382103,-1.0783968,9.736681,0.45218936,0,1683900247.9795544
0.56708217,1.3082486,0.38216966,-0.19533157,-1.413517,1.1382103,-1.0783968,9.736681,0.45218936,0,1683900247.9846487
0.56708217,1.3082486,0.38216966,-0.19533157,-1.413517,1.1382103,-0.9365404,9.749163,0.49708572,0,1683900247.9897969
0.56708217,1.3082486,0.38216966,-0.11335373,-1.4017677,0.9890747,-0.9365404,9.749163,0.49708572,0,1683900248.0153532
0.56708217,1.3082486,0.38216966,-0.11335373,-1.4017677,0.9890747,-0.87643135,9.753917,0.51318395,0,1683900248.0204835
0.55610234,1.3153309,0.40461454,-0.11335373,-1.4017677,0.9890747,-0.87643135,9.753917,0.51318395,0,1683900248.0307376
0.4914368,1.2892159,0.43170005,-0.11335373,-1.4017677,0.9890747,-0.87643135,9.753917,0.51318395,0,1683900248.0461195
0.4914368,1.2892159,0.43170005,0.094394684,-1.283474,0.6045532,-0.87643135,9.753917,0.51318395,0,1683900248.0563416
0.4914368,1.2892159,0.43170005,0.094394684,-1.283474,0.6045532,-0.7368145,9.764114,0.5380973,0,1683900248.0614717
0.4914368,1.2892159,0.43170005,0.094394684,-1.283474,0.6045532,-0.7023741,9.766546,0.5400179,0,1683900248.0768158
0.4914368,1.2892159,0.43170005,0.14019012,-1.2057686,0.5033493,-0.7023741,9.766546,0.5400179,0,1683900248.087091
0.42919776,1.2550482,0.41462374,0.14019012,-1.2057686,0.5033493,-0.7023741,9.766546,0.5400179,0,1683900248.0922346
0.35963377,1.2330735,0.3789849,0.14019012,-1.2057686,0.5033493,-0.7023741,9.766546,0.5400179,0,1683900248.1076014
0.35963377,1.2330735,0.3789849,0.1881218,-0.8936119,0.32871246,-0.7023741,9.766546,0.5400179,0,1683900248.1127276
0.35963377,1.2330735,0.3789849,0.1881218,-0.8936119,0.32871246,-0.6222732,9.772225,0.535498,0,1683900248.122968
0.30447698,1.2133129,0.31504732,0.1881218,-0.8936119,0.32871246,-0.6222732,9.772225,0.535498,0,1683900248.1536462
0.30447698,1.2133129,0.31504732,0.1881218,-0.8936119,0.32871246,-0.55737585,9.776464,0.5295906,0,1683900248.1587737
0.30447698,1.2133129,0.31504732,0.14766693,-0.6443405,0.3094864,-0.55737585,9.776464,0.5295906,0,1683900248.1741476
0.2898423,1.2057452,0.27428254,0.14766693,-0.6443405,0.3094864,-0.55737585,9.776464,0.5295906,0,1683900248.1946058
0.2898423,1.2057452,0.27428254,0.10400772,-0.5207062,0.31589508,-0.55737585,9.776464,0.5295906,0,1683900248.2048705
0.2898423,1.2057452,0.27428254,0.10400772,-0.5207062,0.31589508,-1.5729302,9.670812,0.41435033,0,1683900248.21513
0.071414165,0.89139557,0.14079615,0.10400772,-0.5207062,0.31589508,-1.5729302,9.670812,0.41435033,0,1683900248.2253962
0.036503267,0.89262396,0.1205351,0.10400772,-0.5207062,0.31589508,-1.5729302,9.670812,0.41435033,0,1683900248.2613263
0.036503267,0.89262396,0.1205351,0.7164383,1.599102,-1.3534355,-1.5729302,9.670812,0.41435033,0,1683900248.2664592
0.036503267,0.89262396,0.1205351,0.6802559,1.7407608,-1.3757324,-1.5729302,9.670812,0.41435033,0,1683900248.2715878
0.036503267,0.89262396,0.1205351,0.6802559,1.7407608,-1.3757324,-1.7667652,9.642245,0.2757536,0,1683900248.276715
0.036503267,0.89262396,0.1205351,0.6802559,1.7407608,-1.3757324,-1.89756,9.619618,0.18057288,0,1683900248.2818494
0.01771326,0.8865123,0.11369547,0.6802559,1.7407608,-1.3757324,-1.89756,9.619618,0.18057288,0,1683900248.2869816
0.01771326,0.8865123,0.11369547,0.6802559,1.7407608,-1.3757324,-2.0290632,9.59409,0.08205924,0,1683900248.2921147
0.01771326,0.8865123,0.11369547,0.6759834,1.8047142,-1.3874817,-2.0290632,9.59409,0.08205924,0,1683900248.3126018
-0.038914576,0.8501455,0.062208727,0.6759834,1.8047142,-1.3874817,-2.0290632,9.59409,0.08205924,0,1683900248.3382456
-0.038914576,0.8501455,0.062208727,0.7026863,1.9495773,-1.4279366,-2.0290632,9.59409,0.08205924,0,1683900248.3433776
-0.038914576,0.8501455,0.062208727,0.7026863,1.9495773,-1.4279366,-2.2279396,9.5499,-0.07800322,0,1683900248.3535988
-0.0620874,0.8259869,0.036336448,0.7026863,1.9495773,-1.4279366,-2.2279396,9.5499,-0.07800322,0,1683900248.3637748
-0.13336508,0.7652189,-0.0141797075,0.7026863,1.9495773,-1.4279366,-2.2279396,9.5499,-0.07800322,0,1683900248.3740368
-0.13336508,0.7652189,-0.0141797075,0.7164383,2.0124626,-1.4045715,-2.2279396,9.5499,-0.07800322,0,1683900248.3894515
-0.13336508,0.7652189,-0.0141797075,0.7164383,2.0124626,-1.4045715,-2.4230266,9.499313,-0.24974811,0,1683900248.3945832
-0.16850345,0.7249546,-0.034683414,0.7164383,2.0124626,-1.4045715,-2.4230266,9.499313,-0.24974811,0,1683900248.4048386
-0.16850345,0.7249546,-0.034683414,0.6823921,2.0231438,-1.329937,-2.4230266,9.499313,-0.24974811,0,1683900248.4099302
-0.16850345,0.7249546,-0.034683414,0.6823921,2.0231438,-1.329937,-2.5440211,9.463864,-0.36553332,0,1683900248.420153
-0.16850345,0.7249546,-0.034683414,0.6823921,2.0231438,-1.329937,-2.65274,9.4289255,-0.4782473,0,1683900248.4355319
-0.16850345,0.7249546,-0.034683414,0.6173706,2.0880318,-1.2233925,-2.65274,9.4289255,-0.4782473,0,1683900248.4457848
-0.17459998,0.71347433,0.0033818982,0.6173706,2.0880318,-1.2233925,-2.65274,9.4289255,-0.4782473,0,1683900248.4560533
-0.17459998,0.71347433,0.0033818982,0.6173706,2.0880318,-1.2233925,-4.140163,8.184116,-3.4712636,0,1683900248.4867413
-0.5033417,0.59389466,-0.69876385,0.6173706,2.0880318,-1.2233925,-4.140163,8.184116,-3.4712636,0,1683900248.4918723
-0.5033417,0.59389466,-0.69876385,1.0861397,1.9262123,-1.543026,-4.140163,8.184116,-3.4712636,0,1683900248.502132
-0.58315754,0.5441065,-0.76661414,1.0861397,1.9262123,-1.543026,-4.140163,8.184116,-3.4712636,0,1683900248.532786
-0.58315754,0.5441065,-0.76661414,1.0765266,1.8675995,-1.4758682,-4.140163,8.184116,-3.4712636,0,1683900248.5481644
-0.58315754,0.5441065,-0.76661414,1.0765266,1.8675995,-1.4758682,-4.1981535,8.077928,-3.645954,0,1683900248.5532968
-0.64563924,0.5289713,-0.8083495,1.0765266,1.8675995,-1.4758682,-4.1981535,8.077928,-3.645954,0,1683900248.5635505
-0.64563924,0.5289713,-0.8083495,1.1362076,1.6981697,-1.3555717,-4.1981535,8.077928,-3.645954,0,1683900248.5789506
-0.64563924,0.5289713,-0.8083495,1.1362076,1.6981697,-1.3555717,-4.249248,7.9701867,-3.8197386,0,1683900248.5891693
-0.6749237,0.526287,-0.86082196,1.1362076,1.6981697,-1.3555717,-4.249248,7.9701867,-3.8197386,0,1683900248.6045613
-0.6749237,0.526287,-0.86082196,1.1362076,1.6981697,-1.3555717,-4.3141103,7.814017,-4.062018,0,1683900248.609695
-0.6749237,0.526287,-0.86082196,1.1543655,1.4233971,-1.1989594,-4.3141103,7.814017,-4.062018,0,1683900248.6250818
-0.68418986,0.53898054,-0.8559387,1.1543655,1.4233971,-1.1989594,-4.3141103,7.814017,-4.062018,0,1683900248.6506774
-0.68418986,0.53898054,-0.8559387,1.1223221,1.2986946,-1.1093712,-4.3141103,7.814017,-4.062018,0,1683900248.6557732
-0.68418986,0.53898054,-0.8559387,1.1223221,1.2986946,-1.1093712,-4.353752,7.680394,-4.269282,0,1683900248.6659954
-0.68418986,0.53898054,-0.8559387,0.8687782,1.2582397,-0.87718964,-4.353752,7.680394,-4.269282,0,1683900248.6762528
-0.66051656,0.5697361,-0.8459295,0.8687782,1.2582397,-0.87718964,-4.353752,7.680394,-4.269282,0,1683900248.691641
-0.6248929,0.60560244,-0.7936996,0.8687782,1.2582397,-0.87718964,-4.353752,7.680394,-4.269282,0,1683900248.7223368
-0.6248929,0.60560244,-0.7936996,0.8687782,1.2582397,-0.87718964,-4.3488336,7.585198,-4.4410367,0,1683900248.7274632
-0.6248929,0.60560244,-0.7936996,0.6025505,1.3881493,-0.708828,-4.3488336,7.585198,-4.4410367,0,1683900248.732557
-0.6248929,0.60560244,-0.7936996,0.3670311,1.6140556,-0.5735779,-4.3488336,7.585198,-4.4410367,0,1683900248.7581737
-0.59121037,0.6446535,-0.7495226,0.3670311,1.6140556,-0.5735779,-4.3488336,7.585198,-4.4410367,0,1683900248.7632656
-0.59121037,0.6446535,-0.7495226,-0.09305954,-0.8062935,0.17637253,-4.3488336,7.585198,-4.4410367,0,1683900248.7683966
-0.59121037,0.6446535,-0.7495226,-0.09305954,-0.8062935,0.17637253,-4.361969,6.96466,-5.3513665,0,1683900248.7786157
-0.59121037,0.6446535,-0.7495226,-0.09305954,-0.8062935,0.17637253,-4.3972044,6.9746475,-5.309357,0,1683900248.8094013
-0.84185,0.51139456,-1.1722448,-0.09305954,-0.8062935,0.17637253,-4.3972044,6.9746475,-5.309357,0,1683900248.8145273
-0.85333025,0.51896214,-1.1805402,-0.09305954,-0.8062935,0.17637253,-4.3972044,6.9746475,-5.309357,0,1683900248.8196602
-0.85333025,0.51896214,-1.1805402,-0.23164749,-0.9159088,0.2807808,-4.3972044,6.9746475,-5.309357,0,1683900248.835007
-0.85333025,0.51896214,-1.1805402,-0.23164749,-0.9159088,0.2807808,-4.4135947,6.984621,-5.2825785,0,1683900248.8452692
-0.85333025,0.51896214,-1.1805402,-0.31576157,-0.95970154,0.33712387,-4.4135947,6.984621,-5.2825785,0,1683900248.8606446
-0.8442916,0.5011427,-1.1595513,-0.31576157,-0.95970154,0.33712387,-4.4135947,6.984621,-5.2825785,0,1683900248.870899
-0.8442916,0.5011427,-1.1595513,-0.574646,-1.0682487,0.53325653,-4.4135947,6.984621,-5.2825785,0,1683900248.8862982
-0.8240457,0.4874786,-1.0687556,-0.574646,-1.0682487,0.53325653,-4.4135947,6.984621,-5.2825785,0,1683900248.8914175
-0.8240457,0.4874786,-1.0687556,-0.574646,-1.0682487,0.53325653,-4.454191,7.037463,-5.1773243,0,1683900248.9016385
-0.78767896,0.47772723,-0.92915756,-0.574646,-1.0682487,0.53325653,-4.454191,7.037463,-5.1773243,0,1683900248.9579003
-0.7354491,0.4950462,-0.9079259,-0.574646,-1.0682487,0.53325653,-4.454191,7.037463,-5.1773243,0,1683900248.968128
-0.7354491,0.4950462,-0.9079259,-0.8462143,-1.200428,0.90602875,-4.454191,7.037463,-5.1773243,0,1683900248.978389
-0.7354491,0.4950462,-0.9079259,-0.8462143,-1.200428,0.90602875,-4.4799643,7.1561522,-4.988966,0,1683900248.9988716
-0.7354491,0.4950462,-0.9079259,-0.8462143,-1.200428,0.90602875,-4.479751,7.1931696,-4.9356403,0,1683900249.003965
-0.7354491,0.4950462,-0.9079259,-0.76423645,-1.1546326,0.7536888,-4.479751,7.1931696,-4.9356403,0,1683900249.0090883
-0.7354491,0.4950462,-0.9079259,-0.89307785,-1.274929,1.0339355,-4.479751,7.1931696,-4.9356403,0,1683900249.034624
-0.7354491,0.4950462,-0.9079259,-0.89307785,-1.274929,1.0339355,-4.472616,7.2729845,-4.823876,0,1683900249.0397196
-0.7354491,0.4950462,-0.9079259,-1.7857552,-2.0610619,1.8881607,-4.472616,7.2729845,-4.823876,0,1683900249.0499325
-0.7354491,0.4950462,-0.9079259,-1.7857552,-2.0610619,1.8881607,-3.015468,9.291142,-0.8671755,0,1683900249.0652833
-0.10480851,0.67468107,-0.0012435679,-1.7857552,-2.0610619,1.8881607,-3.015468,9.291142,-0.8671755,0,1683900249.0806627
-0.10480851,0.67468107,-0.0012435679,-1.7857552,-2.0610619,1.8881607,-2.7604983,9.394106,-0.54846114,0,1683900249.0857995
-0.10480851,0.67468107,-0.0012435679,-1.4853477,-2.2497177,1.9585228,-2.7604983,9.394106,-0.54846114,0,1683900249.0960577
0.00013648917,0.75813663,0.02804094,-1.4853477,-2.2497177,1.9585228,-2.7604983,9.394106,-0.54846114,0,1683900249.1063197
0.00013648917,0.75813663,0.02804094,-1.4204597,-2.2602654,1.9649315,-2.7604983,9.394106,-0.54846114,0,1683900249.1165638
0.08409249,0.8049979,-0.004670962,-1.4204597,-2.2602654,1.9649315,-2.7604983,9.394106,-0.54846114,0,1683900249.1268215
0.08409249,0.8049979,-0.004670962,-1.4204597,-2.2602654,1.9649315,-2.6705492,9.425277,-0.45023432,0,1683900249.1370745
0.08409249,0.8049979,-0.004670962,-1.4204597,-2.2602654,1.9649315,-2.48694,9.482489,-0.26062474,0,1683900249.1575866
0.08409249,0.8049979,-0.004670962,-1.414051,-2.1782875,1.9467735,-2.48694,9.482489,-0.26062474,0,1683900249.167808
0.10875153,0.80963856,-0.026630552,-1.414051,-2.1782875,1.9467735,-2.48694,9.482489,-0.26062474,0,1683900249.183161
0.10875153,0.80963856,-0.026630552,-1.6973686,-1.8746758,1.9127274,-2.48694,9.482489,-0.26062474,0,1683900249.1933973
0.1141201,0.7691316,-0.082272634,-1.6973686,-1.8746758,1.9127274,-2.48694,9.482489,-0.26062474,0,1683900249.2087314
0.1141201,0.7691316,-0.082272634,-1.6973686,-1.8746758,1.9127274,-2.2064047,9.555164,0.031645272,0,1683900249.2240927
0.07409845,0.71250373,-0.033470176,-1.6973686,-1.8746758,1.9127274,-2.2064047,9.555164,0.031645272,0,1683900249.2343543
0.07409845,0.71250373,-0.033470176,-1.6973686,-1.8746758,1.9127274,-2.1107144,9.575809,0.13844472,0,1683900249.244556
0.07409845,0.71250373,-0.033470176,-1.8529129,-1.7554474,1.919136,-2.1107144,9.575809,0.13844472,0,1683900249.2496836
0.06433189,0.69030154,0.01998808,-1.8529129,-1.7554474,1.919136,-2.1107144,9.575809,0.13844472,0,1683900249.2752733
0.06433189,0.69030154,0.01998808,-2.1991158,-1.4719963,1.9777489,-2.1107144,9.575809,0.13844472,0,1683900249.2804022
0.06433189,0.69030154,0.01998808,-2.1991158,-1.4719963,1.9777489,-1.8116262,9.625006,0.49765697,0,1683900249.285532
0.0931311,0.6934711,0.23987211,-2.1991158,-1.4719963,1.9777489,-1.8116262,9.625006,0.49765697,0,1683900249.3060162
0.0931311,0.6934711,0.23987211,-2.5720215,-1.107769,2.1162033,-1.8116262,9.625006,0.49765697,0,1683900249.3111584
0.0931311,0.6934711,0.23987211,-2.5720215,-1.107769,2.1162033,-1.598106,9.645337,0.7641492,0,1683900249.3162856
0.0931311,0.6934711,0.23987211,0.16675949,0.727787,-0.5661011,-1.598106,9.645337,0.7641492,0,1683900249.32654
0.0931311,0.6934711,0.23987211,0.16675949,0.727787,-0.5661011,0.6149857,9.472409,2.462849,0,1683900249.3367748
0.5590293,1.0607786,0.76069957,0.16675949,0.727787,-0.5661011,0.6149857,9.472409,2.462849,0,1683900249.352167
0.5348707,1.0468568,0.78851306,0.16675949,0.727787,-0.5661011,0.6149857,9.472409,2.462849,0,1683900249.3624225
0.47069046,1.0175722,0.8119437,0.16675949,0.727787,-0.5661011,0.6149857,9.472409,2.462849,0,1683900249.3982515
0.47069046,1.0175722,0.8119437,0.16675949,0.727787,-0.5661011,0.46098018,9.491235,2.4237092,0,1683900249.4187639
0.47069046,1.0175722,0.8119437,0.5396652,0.84594727,-0.80696106,0.46098018,9.491235,2.4237092,0,1683900249.429026
0.47069046,1.0175722,0.8119437,0.5396652,0.84594727,-0.80696106,0.36539796,9.508316,2.372507,0,1683900249.4392464
0.47069046,1.0175722,0.8119437,0.760231,0.93753815,-0.9006882,0.36539796,9.508316,2.372507,0,1683900249.4494944
0.42699876,0.97755057,0.76069957,0.760231,0.93753815,-0.9006882,0.36539796,9.508316,2.372507,0,1683900249.4546247
0.41162097,0.96388644,0.7314151,0.760231,0.93753815,-0.9006882,0.36539796,9.508316,2.372507,0,1683900249.4751363
0.41162097,0.96388644,0.7314151,0.8571625,0.9918785,-0.93473434,0.36539796,9.508316,2.372507,0,1683900249.4802372
0.41162097,0.96388644,0.7314151,0.8571625,0.9918785,-0.93473434,0.31379673,9.518448,2.339032,0,1683900249.4853733
0.37842378,0.95827526,0.60937864,0.8571625,0.9918785,-0.93473434,0.31379673,9.518448,2.339032,0,1683900249.4956312
0.37842378,0.95827526,0.60937864,0.8571625,0.9918785,-0.93473434,0.14784278,9.552798,2.211919,0,1683900249.5058773
0.37842378,0.95827526,0.60937864,1.0904121,1.1709213,-1.0167122,0.14784278,9.552798,2.211919,0,1683900249.5212607
0.37842378,0.95827526,0.60937864,1.0904121,1.1709213,-1.0167122,0.08918563,9.564911,2.162154,0,1683900249.5366516
0.37842378,0.95827526,0.60937864,1.1458206,1.2263298,-1.0476875,0.08918563,9.564911,2.162154,0,1683900249.5520651
0.37721056,0.9538773,0.56154674,1.1458206,1.2263298,-1.0476875,0.08918563,9.564911,2.162154,0,1683900249.5571966
0.37721056,0.9538773,0.56154674,1.1458206,1.2263298,-1.0476875,-0.10137432,9.60053,1.9974812,0,1683900249.5828347
0.3686724,0.9248354,0.41779333,1.1458206,1.2263298,-1.0476875,-0.10137432,9.60053,1.9974812,0,1683900249.5879629
0.3686724,0.9248354,0.41779333,1.2288666,1.3828087,-1.1840057,-0.10137432,9.60053,1.9974812,0,1683900249.5930946
-0.21048145,0.53361195,-0.0805741,1.2288666,1.3828087,-1.1840057,-0.10137432,9.60053,1.9974812,0,1683900249.6084197
-0.28906888,0.48479435,-0.31827757,1.2288666,1.3828087,-1.1840057,-0.10137432,9.60053,1.9974812,0,1683900249.639145
-0.28906888,0.48479435,-0.31827757,2.3154068,2.8912544,-2.210865,-0.10137432,9.60053,1.9974812,0,1683900249.6442366
-0.28906888,0.48479435,-0.31827757,2.3154068,2.8912544,-2.210865,-3.5380452,8.969444,-1.789328,0,1683900249.6493726
-0.28906888,0.48479435,-0.31827757,2.3154068,2.8912544,-2.210865,-3.6797054,8.844753,-2.097737,0,1683900249.6647725
-0.28906888,0.48479435,-0.31827757,2.1067238,2.8199577,-2.2045898,-3.6797054,8.844753,-2.097737,0,1683900249.675032
-0.28906888,0.48479435,-0.31827757,2.4272919,2.7410507,-2.1842957,-3.6797054,8.844753,-2.097737,0,1683900249.6904192
-0.31298482,0.44354427,-0.4471385,2.4272919,2.7410507,-2.1842957,-3.6797054,8.844753,-2.097737,0,1683900249.6955426
-0.31298482,0.44354427,-0.4471385,2.4272919,2.7410507,-2.1842957,-3.74713,8.77634,-2.2594864,0,1683900249.7006755
-0.36008874,0.38351938,-0.7102441,2.4272919,2.7410507,-2.1842957,-3.74713,8.77634,-2.2594864,0,1683900249.716064
-0.36008874,0.38351938,-0.7102441,2.5849724,1.9315529,-2.0266151,-3.74713,8.77634,-2.2594864,0,1683900249.7212052
-0.36008874,0.38351938,-0.7102441,2.5849724,1.9315529,-2.0266151,-3.9395049,8.553512,-2.7364435,0,1683900249.7314632
-0.31225687,0.4884644,-0.6021144,2.5849724,1.9315529,-2.0266151,-3.9395049,8.553512,-2.7364435,0,1683900249.7827065
-0.31225687,0.4884644,-0.6021144,2.0672035,1.4946938,-1.8188667,-3.9395049,8.553512,-2.7364435,0,1683900249.7980638
-0.31225687,0.4884644,-0.6021144,2.0672035,1.4946938,-1.8188667,-4.1660542,8.252063,-3.2738101,0,1683900249.8031785
-0.30737358,0.54483443,-0.48741797,2.0672035,1.4946938,-1.8188667,-4.1660542,8.252063,-3.2738101,0,1683900249.8134475
-0.30737358,0.54483443,-0.48741797,2.0672035,1.4946938,-1.8188667,-4.253353,8.112638,-3.5020678,0,1683900249.8288383
-0.30737358,0.54483443,-0.48741797,1.7156601,1.9176674,-1.8274117,-4.253353,8.112638,-3.5020678,0,1683900249.8441684
-0.32957584,0.54166484,-0.46350202,1.7156601,1.9176674,-1.8274117,-4.253353,8.112638,-3.5020678,0,1683900249.8595808
-0.32957584,0.54166484,-0.46350202,1.7156601,1.9176674,-1.8274117,-4.2889504,8.04406,-3.6150222,0,1683900249.8749213
-0.32957584,0.54166484,-0.46350202,1.5793419,2.1892357,-1.8455696,-4.2889504,8.04406,-3.6150222,0,1683900249.8800187
-0.32957584,0.54166484,-0.46350202,1.5793419,2.1892357,-1.8455696,-4.4391356,6.158329,-6.2080145,0,1683900249.8851085
-0.32957584,0.54166484,-0.46350202,-1.057167,-0.9085655,0.84955215,-4.4391356,6.158329,-6.2080145,0,1683900249.8953362
-0.76888895,0.39401388,-1.2908539,-1.057167,-0.9085655,0.84955215,-4.4391356,6.158329,-6.2080145,0,1683900249.900436
-0.76888895,0.39401388,-1.2908539,-1.2244606,-1.1247253,1.0136414,-4.4391356,6.158329,-6.2080145,0,1683900249.926056
-0.6575896,0.4311086,-1.1646771,-1.2244606,-1.1247253,1.0136414,-4.4391356,6.158329,-6.2080145,0,1683900249.9465373
-0.6575896,0.4311086,-1.1646771,-1.2244606,-1.1247253,1.0136414,-4.4494214,6.3149004,-6.0411153,0,1683900249.9516737
-0.6031608,0.44574326,-1.0965843,-1.2244606,-1.1247253,1.0136414,-4.4494214,6.3149004,-6.0411153,0,1683900249.9568095
-0.6031608,0.44574326,-1.0965843,-1.3075066,-1.2269974,1.0743904,-4.4494214,6.3149004,-6.0411153,0,1683900249.9722025
-0.6031608,0.44574326,-1.0965843,-1.3075066,-1.2269974,1.0743904,-4.4547772,6.429919,-5.9145155,0,1683900249.9773376
-0.57924485,0.4552672,-1.0636297,-1.3075066,-1.2269974,1.0743904,-4.4547772,6.429919,-5.9145155,0,1683900249.9926813
-0.57924485,0.4552672,-1.0636297,-1.3075066,-1.2269974,1.0743904,-4.457362,6.489255,-5.8473825,0,1683900250.00804
-0.57924485,0.4552672,-1.0636297,-1.3404846,-1.2759972,1.093483,-4.457362,6.489255,-5.8473825,0,1683900250.01825
-0.57924485,0.4552672,-1.0636297,-1.3404846,-1.2759972,1.093483,-4.4649897,6.6726723,-5.631137,0,1683900250.0489438
-0.57924485,0.4552672,-1.0636297,-1.432209,-1.4741325,1.1638451,-4.4649897,6.6726723,-5.631137,0,1683900250.0591855
-0.57924485,0.4552672,-1.0636297,-1.4097786,-1.4240646,1.1456871,-4.4649897,6.6726723,-5.631137,0,1683900250.064281
-0.51433665,0.4613637,-0.9508745,-1.4097786,-1.4240646,1.1456871,-4.4649897,6.6726723,-5.631137,0,1683900250.0745518
-0.5311703,0.46234944,-0.9869986,-1.4097786,-1.4240646,1.1456871,-4.4649897,6.6726723,-5.631137,0,1683900250.084801
-0.5311703,0.46234944,-0.9869986,-1.4097786,-1.4240646,1.1456871,-4.4695945,6.7979307,-5.4755144,0,1683900250.0899277
-0.5311703,0.46234944,-0.9869986,-1.5003014,-1.6553116,1.2394142,-4.4695945,6.7979307,-5.4755144,0,1683900250.1001494
-0.5021285,0.4542966,-0.8918202,-1.5003014,-1.6553116,1.2394142,-4.4695945,6.7979307,-5.4755144,0,1683900250.1104095
-0.5021285,0.4542966,-0.8918202,-1.5003014,-1.6553116,1.2394142,-4.473729,6.9259343,-5.309197,0,1683900250.115504
-0.5021285,0.4542966,-0.8918202,-1.5311432,-1.7627907,1.3119125,-4.473729,6.9259343,-5.309197,0,1683900250.136029
-0.4972452,0.44453004,-0.8190866,-1.5311432,-1.7627907,1.3119125,-4.473729,6.9259343,-5.309197,0,1683900250.1411602
-0.1250544,0.70640725,0.09222118,-1.5311432,-1.7627907,1.3119125,-4.473729,6.9259343,-5.309197,0,1683900250.16681
-0.1250544,0.70640725,0.09222118,-1.8199348,-1.8939018,1.8083191,-4.473729,6.9259343,-5.309197,0,1683900250.1822035
-0.1250544,0.70640725,0.09222118,-1.8199348,-1.8939018,1.8083191,-2.830832,9.385232,-0.27235955,0,1683900250.1872926
-0.1250544,0.70640725,0.09222118,-1.8199348,-1.8939018,1.8083191,-2.5669308,9.464591,0.052477382,0,1683900250.2026796
-0.007431077,0.7454583,0.06879054,-1.8199348,-1.8939018,1.8083191,-2.5669308,9.464591,0.052477382,0,1683900250.2129438
-0.007431077,0.7454583,0.06879054,-1.7230034,-1.8235397,1.8626595,-2.5669308,9.464591,0.052477382,0,1683900250.2180727
-0.007431077,0.7454583,0.06879054,-1.742096,-1.7362213,1.8391609,-2.5669308,9.464591,0.052477382,0,1683900250.2231362
-0.007431077,0.7454583,0.06879054,-1.742096,-1.7362213,1.8391609,-2.3840413,9.508881,0.2606451,0,1683900250.2282696
0.045299236,0.76277727,0.033166867,-1.742096,-1.7362213,1.8391609,-2.3840413,9.508881,0.2606451,0,1683900250.2590222
0.045299236,0.76277727,0.033166867,-1.742096,-1.7362213,1.8391609,-2.2920952,9.528034,0.36505115,0,1683900250.2641087
0.06554513,0.76546156,0.009250932,-1.742096,-1.7362213,1.8391609,-2.2920952,9.528034,0.36505115,0,1683900250.269206
0.06554513,0.76546156,0.009250932,-1.7805481,-1.691494,1.8136597,-2.2920952,9.528034,0.36505115,0,1683900250.2743397
0.06554513,0.76546156,0.009250932,-1.7805481,-1.691494,1.8136597,-2.019279,9.571776,0.6884692,0,1683900250.3102288
0.06554513,0.76546156,0.009250932,-1.9712067,-1.5913582,1.7368889,-2.019279,9.571776,0.6884692,0,1683900250.3153253
0.08165085,0.76229197,0.040233973,-1.9712067,-1.5913582,1.7368889,-2.019279,9.571776,0.6884692,0,1683900250.3255823
0.09141741,0.7495985,0.119807154,-1.9712067,-1.5913582,1.7368889,-2.019279,9.571776,0.6884692,0,1683900250.3358285
0.09141741,0.7495985,0.119807154,-2.0403671,-1.5594482,1.7284775,-2.019279,9.571776,0.6884692,0,1683900250.3512104
0.09141741,0.7495985,0.119807154,-2.0403671,-1.5594482,1.7284775,-1.9278798,9.581783,0.8019248,0,1683900250.3614764
0.09141741,0.7495985,0.119807154,-2.2065926,-1.4719963,1.7646599,-1.9278798,9.581783,0.8019248,0,1683900250.387138
0.09141741,0.7495985,0.119807154,-2.2065926,-1.4719963,1.7646599,-1.6470077,9.598026,1.1556956,0,1683900250.3922663
0.08677678,0.759365,0.22182523,-2.2065926,-1.4719963,1.7646599,-1.6470077,9.598026,1.1556956,0,1683900250.3973532
0.08677678,0.759365,0.22182523,-2.2065926,-1.4719963,1.7646599,-1.4505118,9.5975685,1.3975247,0,1683900250.417881
0.08677678,0.759365,0.22182523,-2.2491837,-1.4124489,1.8083191,-1.4505118,9.5975685,1.3975247,0,1683900250.4230137
0.13438116,0.7954892,0.33944854,-2.2491837,-1.4124489,1.8083191,-1.4505118,9.5975685,1.3975247,0,1683900250.4281476
0.13438116,0.7954892,0.33944854,-2.2491837,-1.4124489,1.8083191,0.24411458,9.119766,3.5973136,0,1683900250.4332736
0.13438116,0.7954892,0.33944854,-2.2491837,-1.4124489,1.8083191,0.16515975,9.139094,3.5524745,0,1683900250.4486604
0.37769583,0.89359456,0.9720455,-2.2491837,-1.4124489,1.8083191,0.16515975,9.139094,3.5524745,0,1683900250.4589272
0.37769583,0.89359456,0.9720455,0.7080269,0.7074928,-0.7227135,0.16515975,9.139094,3.5524745,0,1683900250.4640527
0.37769583,0.89359456,0.9720455,0.7080269,0.7074928,-0.7227135,0.12068662,9.151388,3.5224855,0,1683900250.4896803
0.36354646,0.8894392,0.94861484,0.7080269,0.7074928,-0.7227135,0.12068662,9.151388,3.5224855,0,1683900250.4948123
0.36354646,0.8894392,0.94861484,0.8070946,0.7468796,-0.7759857,0.12068662,9.151388,3.5224855,0,1683900250.5050733
0.36354646,0.8894392,0.94861484,1.0574341,0.9120369,-0.9176445,0.12068662,9.151388,3.5224855,0,1683900250.5102057
0.36354646,0.8894392,0.94861484,1.0574341,0.9120369,-0.9176445,-0.031961948,9.195952,3.4064367,0,1683900250.5306845
0.28934187,0.8442916,0.85710645,1.0574341,0.9120369,-0.9176445,-0.031961948,9.195952,3.4064367,0,1683900250.5358157
0.28934187,0.8442916,0.85710645,1.1233902,0.9706497,-0.94221115,-0.031961948,9.195952,3.4064367,0,1683900250.5563195
0.2688533,0.8291565,0.82903516,1.1233902,0.9706497,-0.94221115,-0.031961948,9.195952,3.4064367,0,1683900250.5614464
0.2688533,0.8291565,0.82903516,1.1233902,0.9706497,-0.94221115,-0.14595652,9.22974,3.3107378,0,1683900250.5665784
0.2688533,0.8291565,0.82903516,1.1233902,0.9706497,-0.94221115,-0.26342884,9.265367,3.2021835,0,1683900250.587069
0.2688533,0.8291565,0.82903516,1.29282,1.1272621,-0.9591675,-0.26342884,9.265367,3.2021835,0,1683900250.597292
0.25517407,0.8264722,0.75654423,1.29282,1.1272621,-0.9591675,-0.26342884,9.265367,3.2021835,0,1683900250.6126344
0.2742219,0.8235453,0.71872157,1.29282,1.1272621,-0.9591675,-0.26342884,9.265367,3.2021835,0,1683900250.6280227
0.2742219,0.8235453,0.71872157,1.29282,1.1272621,-0.9591675,-0.3842841,9.302303,3.0805612,0,1683900250.633155
0.2742219,0.8235453,0.71872157,1.4004326,1.2199211,-0.98480225,-0.3842841,9.302303,3.0805612,0,1683900250.6434064
0.2742219,0.8235453,0.71872157,1.4004326,1.2199211,-0.98480225,-0.446319,9.320793,3.015624,0,1683900250.6536632
0.2798331,0.8194051,0.69821787,1.4004326,1.2199211,-0.98480225,-0.446319,9.320793,3.015624,0,1683900250.6638963
0.2798331,0.8194051,0.69821787,1.4494324,1.269989,-1.0092354,-0.446319,9.320793,3.015624,0,1683900250.6843348
0.2725082,0.81232285,0.6550115,1.4494324,1.269989,-1.0092354,-0.446319,9.320793,3.015624,0,1683900250.7048435
-0.40963432,0.5245733,-0.53305084,1.4494324,1.269989,-1.0092354,-0.446319,9.320793,3.015624,0,1683900250.709976
-0.40963432,0.5245733,-0.53305084,2.5785637,1.4446259,-1.9658661,-0.446319,9.320793,3.015624,0,1683900250.7202504
-0.40963432,0.5245733,-0.53305084,2.5785637,1.4446259,-1.9658661,-4.052238,8.656914,-2.1926217,0,1683900250.7305133
-0.47284395,0.49211925,-0.7517216,2.5785637,1.4446259,-1.9658661,-4.052238,8.656914,-2.1926217,0,1683900250.756114
-0.47284395,0.49211925,-0.7517216,2.3399734,1.0845375,-1.7368889,-4.052238,8.656914,-2.1926217,0,1683900250.7612476
-0.47284395,0.49211925,-0.7517216,2.3399734,1.0845375,-1.7368889,-4.310223,8.3716345,-2.740091,0,1683900250.771507
-0.4857801,0.48699334,-0.7134137,2.3399734,1.0845375,-1.7368889,-4.310223,8.3716345,-2.740091,0,1683900250.7970805
-0.4857801,0.48699334,-0.7134137,1.9638634,1.0803986,-1.5610504,-4.310223,8.3716345,-2.740091,0,1683900250.8022149
-0.4857801,0.48699334,-0.7134137,1.9638634,1.0803986,-1.5610504,-4.4162474,8.236856,-2.970078,0,1683900250.807301
-0.4857801,0.48699334,-0.7134137,1.9638634,1.0803986,-1.5610504,-4.458736,8.176325,-3.072095,0,1683900250.8124406
-0.4857801,0.48699334,-0.7134137,1.7125893,1.2103081,-1.4546394,-4.458736,8.176325,-3.072095,0,1683900250.8380573
-0.48211005,0.4752856,-0.69462365,1.7125893,1.2103081,-1.4546394,-4.458736,8.176325,-3.072095,0,1683900250.8431911
-0.48211005,0.4752856,-0.69462365,1.7125893,1.2103081,-1.4546394,-4.530786,8.033087,-3.3334477,0,1683900250.8637104
-0.48211005,0.4752856,-0.69462365,0.6643677,2.3182106,-1.0966873,-4.530786,8.033087,-3.3334477,0,1683900250.86884
-0.42354104,0.5543583,-0.44812426,0.6643677,2.3182106,-1.0966873,-4.530786,8.033087,-3.3334477,0,1683900250.8841896
-0.42354104,0.5543583,-0.44812426,0.8582306,1.974144,-1.1499596,-4.530786,8.033087,-3.3334477,0,1683900250.8944454
-0.4425737,0.5890114,-0.3744201,0.8582306,1.974144,-1.1499596,-4.530786,8.033087,-3.3334477,0,1683900250.9046648
-0.4425737,0.5890114,-0.3744201,0.8582306,1.974144,-1.1499596,-4.53619,7.99629,-3.4136052,0,1683900250.9097936
-0.503099,0.568265,-0.42834848,0.8582306,1.974144,-1.1499596,-4.53619,7.99629,-3.4136052,0,1683900250.9200544
-0.503099,0.568265,-0.42834848,0.8582306,1.974144,-1.1499596,-4.515051,7.8927355,-3.6727946,0,1683900250.9405594
-0.503099,0.568265,-0.42834848,0.57050705,2.9626846,-1.024189,-4.515051,7.8927355,-3.6727946,0,1683900250.9610748
-0.503099,0.568265,-0.42834848,0.57050705,2.9626846,-1.024189,-4.486593,7.815357,-3.8679538,0,1683900250.9662013
-0.5404516,0.5419075,-0.5542825,0.57050705,2.9626846,-1.024189,-4.486593,7.815357,-3.8679538,0,1683900250.976428
-0.5404516,0.5419075,-0.5542825,0.8443451,2.8614807,-0.98480225,-4.486593,7.815357,-3.8679538,0,1683900250.981571
-0.9619301,0.3371434,-1.3772515,0.8443451,2.8614807,-0.98480225,-4.486593,7.815357,-3.8679538,0,1683900250.9918516
-0.9619301,0.3371434,-1.3772515,-0.85689545,-1.18227,0.9103012,-4.486593,7.815357,-3.8679538,0,1683900250.9970021
-0.9619301,0.3371434,-1.3772515,-0.85689545,-1.18227,0.9103012,-4.697636,6.4819694,-5.66451,0,1683900251.0175474
-0.86162573,0.3537344,-1.2710781,-0.85689545,-1.18227,0.9103012,-4.697636,6.4819694,-5.66451,0,1683900251.0433087
-0.86162573,0.3537344,-1.2710781,-0.85689545,-1.18227,0.9103012,-4.690275,6.63796,-5.487183,0,1683900251.0536094
-0.86162573,0.3537344,-1.2710781,-0.85689545,-1.18227,0.9103012,-4.663525,6.7724705,-5.343741,0,1683900251.0587676
-0.86162573,0.3537344,-1.2710781,-1.3267326,-1.1268616,1.2374115,-4.663525,6.7724705,-5.343741,0,1683900251.0690737
-0.79181916,0.36350098,-1.1795545,-1.3267326,-1.1268616,1.2374115,-4.663525,6.7724705,-5.343741,0,1683900251.0844796
-0.79181916,0.36350098,-1.1795545,-1.5940285,-1.1354065,1.4302063,-4.663525,6.7724705,-5.343741,0,1683900251.089636
-0.79181916,0.36350098,-1.1795545,-1.7027092,-1.1535645,1.5185928,-4.663525,6.7724705,-5.343741,0,1683900251.1102788
-0.74570096,0.37716505,-1.1280677,-1.7027092,-1.1535645,1.5185928,-4.663525,6.7724705,-5.343741,0,1683900251.1205502
-0.74570096,0.37716505,-1.1280677,-1.7027092,-1.1535645,1.5185928,-4.644509,6.8467603,-5.2650537,0,1683900251.125699
-0.61219937,0.42085674,-0.9911388,-1.7027092,-1.1535645,1.5185928,-4.644509,6.8467603,-5.2650537,0,1683900251.1308644
-0.61219937,0.42085674,-0.9911388,-1.7027092,-1.1535645,1.5185928,-4.5693846,7.0905457,-5.001527,0,1683900251.1514754
-0.61219937,0.42085674,-0.9911388,-1.9434357,-1.251564,1.7113876,-4.5693846,7.0905457,-5.001527,0,1683900251.1617525
-0.61219937,0.42085674,-0.9911388,-1.9935036,-1.3037682,1.74757,-4.5693846,7.0905457,-5.001527,0,1683900251.1668878
-0.5558142,0.4342782,-0.95111716,-1.9935036,-1.3037682,1.74757,-4.5693846,7.0905457,-5.001527,0,1683900251.1823368
-0.5558142,0.4342782,-0.95111716,-1.9935036,-1.3037682,1.74757,-4.5403085,7.175193,-4.906384,0,1683900251.1926794
-0.5558142,0.4342782,-0.95111716,-2.0840263,-1.5019035,1.8093872,-4.5403085,7.175193,-4.906384,0,1683900251.2029922
-0.5558142,0.4342782,-0.95111716,-2.0840263,-1.5019035,1.8093872,-4.447593,7.4324856,-4.598636,0,1683900251.218384
-0.5558142,0.4342782,-0.95111716,-2.1075249,-1.6328812,1.8211365,-4.447593,7.4324856,-4.598636,0,1683900251.2440395
-0.5558142,0.4342782,-0.95111716,-2.1075249,-1.6328812,1.8211365,-4.3498425,7.684992,-4.2649937,0,1683900251.249174
-0.38204834,0.4745425,-0.7339174,-2.1075249,-1.6328812,1.8211365,-4.3498425,7.684992,-4.2649937,0,1683900251.2593582
-0.38204834,0.4745425,-0.7339174,-2.6497269,-1.1993599,2.0736122,-4.3498425,7.684992,-4.2649937,0,1683900251.2748122
0.08970371,0.7271536,0.17105125,-2.6497269,-1.1993599,2.0736122,-4.3498425,7.684992,-4.2649937,0,1683900251.285128
0.08970371,0.7271536,0.17105125,-2.6497269,-1.1993599,2.0736122,-1.8623319,9.597317,0.77046025,0,1683900251.2953815
0.09874233,0.7186003,0.17496394,-2.6497269,-1.1993599,2.0736122,-1.8623319,9.597317,0.77046025,0,1683900251.3005457
0.09874233,0.7186003,0.17496394,-2.6497269,-1.1993599,2.0736122,-1.6482902,9.610112,1.048463,0,1683900251.3108382
0.09874233,0.7186003,0.17496394,-2.6710892,-1.1364746,2.0607948,-1.6482902,9.610112,1.048463,0,1683900251.3263104
0.09874233,0.7186003,0.17496394,-2.744522,-1.0001564,2.029953,-1.6482902,9.610112,1.048463,0,1683900251.3571618
0.11948868,0.6905442,0.18739963,-2.744522,-1.0001564,2.029953,-1.6482902,9.610112,1.048463,0,1683900251.362293
0.11948868,0.6905442,0.18739963,-2.744522,-1.0001564,2.029953,-1.4353023,9.609709,1.3280777,0,1683900251.3674173
0.11948868,0.6905442,0.18739963,-2.7892494,-0.9490204,2.0128632,-1.4353023,9.609709,1.3280777,0,1683900251.3725147
0.11948868,0.6905442,0.18739963,-2.7892494,-0.9490204,2.0128632,-1.3292283,9.604317,1.4699049,0,1683900251.3879035
0.123386204,0.67882127,0.19375394,-2.7892494,-0.9490204,2.0128632,-1.3292283,9.604317,1.4699049,0,1683900251.4032507
0.123386204,0.67882127,0.19375394,-2.7892494,-0.9490204,2.0128632,-1.0134076,9.567164,1.9007258,0,1683900251.4134755
0.123386204,0.67882127,0.19375394,-2.8745651,-0.94688416,1.960659,-1.0134076,9.567164,1.9007258,0,1683900251.4236996
0.17391752,0.65466267,0.29137403,-2.8745651,-0.94688416,1.960659,-1.0134076,9.567164,1.9007258,0,1683900251.4288356
0.23809776,0.70297986,0.4966234,-2.8745651,-0.94688416,1.960659,-1.0134076,9.567164,1.9007258,0,1683900251.4442418
0.23809776,0.70297986,0.4966234,-2.8745651,-0.94688416,1.960659,-0.80207485,9.526335,2.185409,0,1683900251.4596424
0.23809776,0.70297986,0.4966234,-2.7317047,-1.1428833,1.8924332,-0.80207485,9.526335,2.185409,0,1683900251.4750261
0.23809776,0.70297986,0.4966234,-2.7317047,-1.1428833,1.8924332,-0.589074,9.475668,2.4566443,0,1683900251.5006769
0.2747072,0.7188429,0.5654443,-2.7317047,-1.1428833,1.8924332,-0.589074,9.475668,2.4566443,0,1683900251.5058086
0.2747072,0.7188429,0.5654443,-2.396183,-1.2792015,1.7849541,-0.589074,9.475668,2.4566443,0,1683900251.5263202
0.2747072,0.7188429,0.5654443,-2.396183,-1.2792015,1.7849541,-0.3765154,9.418317,2.706277,0,1683900251.5365698
0.36207542,0.7749855,0.7382395,-2.396183,-1.2792015,1.7849541,-0.3765154,9.418317,2.706277,0,1683900251.5467918
0.36207542,0.7749855,0.7382395,-2.396183,-1.2792015,1.7849541,0.9591852,8.99704,3.782015,0,1683900251.5570512
0.36207542,0.7749855,0.7382395,0.7793236,0.5679703,-0.9028244,0.9591852,8.99704,3.782015,0,1683900251.5672762
0.41991648,0.8740614,0.85904765,0.7793236,0.5679703,-0.9028244,0.9591852,8.99704,3.782015,0,1683900251.5826685
0.41991648,0.8740614,0.85904765,0.7793236,0.5679703,-0.9028244,0.8519196,9.037935,3.7094953,0,1683900251.5929213
0.41991648,0.8740614,0.85904765,1.0264587,0.7074928,-1.0103035,0.8519196,9.037935,3.7094953,0,1683900251.6031923
0.41991648,0.8740614,0.85904765,1.2224579,0.8683777,-1.0988235,0.8519196,9.037935,3.7094953,0,1683900251.6185842
0.40161178,0.8645527,0.76923776,1.2224579,0.8683777,-1.0988235,0.8519196,9.037935,3.7094953,0,1683900251.633972
0.40161178,0.8645527,0.76923776,1.2224579,0.8683777,-1.0988235,0.67408645,9.106938,3.574868,0,1683900251.6442382
0.40161178,0.8645527,0.76923776,1.2224579,0.8683777,-1.0988235,0.40604106,9.2048025,3.3581438,0,1683900251.700484
0.40161178,0.8645527,0.76923776,1.3514328,1.0303307,-1.1904144,0.40604106,9.2048025,3.3581438,0,1683900251.7056203
0.37721056,0.84063673,0.6767436,1.3514328,1.0303307,-1.1904144,0.40604106,9.2048025,3.3581438,0,1683900251.7107117
0.37721056,0.84063673,0.6767436,1.3908195,1.1326027,-1.2436867,0.40604106,9.2048025,3.3581438,0,1683900251.7209628
0.35182357,0.79573184,0.5913165,1.3908195,1.1326027,-1.2436867,0.40604106,9.2048025,3.3581438,0,1683900251.736316
0.35182357,0.79573184,0.5913165,1.4057732,1.2443542,-1.3075066,0.40604106,9.2048025,3.3581438,0,1683900251.741396
0.35182357,0.79573184,0.5913165,1.4057732,1.2443542,-1.3075066,0.1836816,9.274902,3.1800683,0,1683900251.7566328
0.35182357,0.79573184,0.5913165,1.4057732,1.2443542,-1.3075066,0.024798298,9.317694,3.0578372,0,1683900251.7871194
0.30594805,0.76400566,0.5691143,1.4057732,1.2443542,-1.3075066,0.024798298,9.317694,3.0578372,0,1683900251.7921996
0.30594805,0.76400566,0.5691143,1.4079094,1.3637161,-1.3586426,0.024798298,9.317694,3.0578372,0,1683900251.797281
0.30594805,0.76400566,0.5691143,1.4089775,1.4266014,-1.3735962,0.024798298,9.317694,3.0578372,0,1683900251.812511
0.30594805,0.76400566,0.5691143,2.608471,2.1712112,-1.8541145,0.024798298,9.317694,3.0578372,0,1683900251.8328464
-0.16117853,0.57704586,-0.27629957,2.608471,2.1712112,-1.8541145,0.024798298,9.317694,3.0578372,0,1683900251.8430307
-0.16117853,0.57704586,-0.27629957,2.608471,2.1712112,-1.8541145,-3.5886297,8.977232,-1.6436023,0,1683900251.8481083
-0.16117853,0.57704586,-0.27629957,2.608471,2.1712112,-1.8541145,-3.8563073,8.719918,-2.2939754,0,1683900251.8582754
-0.16117853,0.57704586,-0.27629957,2.8725624,1.6981697,-1.992569,-3.8563073,8.719918,-2.2939754,0,1683900251.8633535
-0.2234176,0.51799154,-0.52255636,2.8725624,1.6981697,-1.992569,-3.8563073,8.719918,-2.2939754,0,1683900251.873515
-0.2619682,0.51262295,-0.5484286,2.8725624,1.6981697,-1.992569,-3.8563073,8.719918,-2.2939754,0,1683900251.8938296
-0.2619682,0.51262295,-0.5484286,2.86829,1.4691925,-2.0479774,-3.8563073,8.719918,-2.2939754,0,1683900251.8989148
-0.2619682,0.51262295,-0.5484286,2.86829,1.4691925,-2.0479774,-3.9939156,8.567703,-2.610264,0,1683900251.9243143
-0.41207594,0.47015968,-0.6211622,2.86829,1.4691925,-2.0479774,-3.9939156,8.567703,-2.610264,0,1683900251.959877
-0.41207594,0.47015968,-0.6211622,2.8843117,1.2785339,-2.137432,-3.9939156,8.567703,-2.610264,0,1683900251.9751062
-0.2619682,0.51262295,-0.5484286,2.8843117,1.2785339,-2.137432,-3.9939156,8.567703,-2.610264,0,1683900251.9852657
-0.2619682,0.51262295,-0.5484286,2.8843117,1.2785339,-2.137432,-4.2725024,8.218161,-3.2214808,0,1683900251.9954278
-0.2619682,0.51262295,-0.5484286,2.869358,1.2635803,-2.144909,-4.2725024,8.218161,-3.2214808,0,1683900252.0005136
-0.43867618,0.46380535,-0.6394669,2.869358,1.2635803,-2.144909,-4.2725024,8.218161,-3.2214808,0,1683900252.010667
-0.43867618,0.46380535,-0.6394669,2.869358,1.2635803,-2.144909,-4.406495,8.023681,-3.5176334,0,1683900252.0309963
-0.43867618,0.46380535,-0.6394669,2.8289032,1.269989,-2.1310234,-4.406495,8.023681,-3.5176334,0,1683900252.0462358
-0.55679995,0.41036224,-0.78443354,2.8289032,1.269989,-2.1310234,-4.406495,8.023681,-3.5176334,0,1683900252.05132
-0.55679995,0.41036224,-0.78443354,2.8289032,1.269989,-2.1310234,-4.5327225,7.8175817,-3.809229,0,1683900252.0614774
-0.55679995,0.41036224,-0.78443354,2.7086067,1.2252617,-2.0405006,-4.5327225,7.8175817,-3.809229,0,1683900252.0868754
-0.55679995,0.41036224,-0.78443354,2.7086067,1.2252617,-2.0405006,-4.6473665,7.6055245,-4.0900335,0,1683900252.0970345
-0.55679995,0.41036224,-0.78443354,-0.26996613,-0.31095505,0.1890564,-4.6473665,7.6055245,-4.0900335,0,1683900252.1021125
-0.55679995,0.41036224,-0.78443354,-0.26996613,-0.31095505,0.1890564,-4.52304,6.2023997,-6.102683,0,1683900252.1122644
-0.8647953,0.4726013,-1.2915817,-0.26996613,-0.31095505,0.1890564,-4.52304,6.2023997,-6.102683,0,1683900252.1275032
-0.8325839,0.4564804,-1.2503318,-0.26996613,-0.31095505,0.1890564,-4.52304,6.2023997,-6.102683,0,1683900252.1325839
-0.8325839,0.4564804,-1.2503318,-0.26996613,-0.31095505,0.1890564,-4.5146074,6.277773,-6.0314403,0,1683900252.1528852
-0.8325839,0.4564804,-1.2503318,-0.79294205,-0.3364563,0.5300522,-4.5146074,6.277773,-6.0314403,0,1683900252.1630447
-0.8325839,0.4564804,-1.2503318,-0.79294205,-0.3364563,0.5300522,-4.499843,6.391161,-5.9224033,0,1683900252.2188938
-0.8325839,0.4564804,-1.2503318,-0.9878731,-0.5932045,0.7313919,-4.499843,6.391161,-5.9224033,0,1683900252.2290542
-0.7481426,0.48259535,-1.1790692,-0.9878731,-0.5932045,0.7313919,-4.499843,6.391161,-5.9224033,0,1683900252.2341378
-0.7481426,0.48259535,-1.1790692,-1.0220528,-0.91911316,0.8358002,-4.499843,6.391161,-5.9224033,0,1683900252.239218
-0.68004966,0.5116372,-1.1124474,-1.0220528,-0.91911316,0.8358002,-4.499843,6.391161,-5.9224033,0,1683900252.2493684
-0.68004966,0.5116372,-1.1124474,-1.0220528,-0.91911316,0.8358002,-4.4961467,6.5212693,-5.781704,0,1683900252.264634
-0.68004966,0.5116372,-1.1124474,-1.0167122,-1.0267258,0.8527565,-4.4961467,6.5212693,-5.781704,0,1683900252.2902398
-0.65954596,0.5155499,-1.0907152,-1.0167122,-1.0267258,0.8527565,-4.4961467,6.5212693,-5.781704,0,1683900252.3004553
-0.65954596,0.5155499,-1.0907152,-0.9985542,-1.3260651,0.90602875,-4.4961467,6.5212693,-5.781704,0,1683900252.3106735
-0.63490206,0.5277581,-1.048995,-0.9985542,-1.3260651,0.90602875,-4.4961467,6.5212693,-5.781704,0,1683900252.3311596
-0.63490206,0.5277581,-1.048995,-0.9985542,-1.3260651,0.90602875,-4.5166035,6.6980996,-5.5593295,0,1683900252.3363507
-0.63490206,0.5277581,-1.048995,-2.7402496,-1.673336,2.0768166,-2.9172752,9.344087,-0.58986765,0,1683900252.3415701
-0.057461936,0.6405133,-0.11595513,-2.7402496,-1.673336,2.0768166,-2.9172752,9.344087,-0.58986765,0,1683900252.3415785
-0.08406216,0.60584503,-0.07446242,-2.7402496,-1.673336,2.0768166,-2.9172752,9.344087,-0.58986765,0,1683900252.3518155
-0.08406216,0.60584503,-0.07446242,-2.8925896,-1.5753365,2.0458412,-2.9172752,9.344087,-0.58986765,0,1683900252.3620646
-0.08406216,0.60584503,-0.07446242,-2.8925896,-1.5753365,2.0458412,-2.6341867,9.4453945,-0.12637952,0,1683900252.3774369
-0.07088337,0.57607526,0.07026159,-2.8925896,-1.5753365,2.0458412,-2.6341867,9.4453945,-0.12637952,0,1683900252.438913
-0.07088337,0.57607526,0.07026159,-2.8925896,-1.5753365,2.0458412,-2.230688,9.5356045,0.5163934,0,1683900252.4440386
-0.07088337,0.57607526,0.07026159,-3.025837,-1.5466309,2.103386,-2.230688,9.5356045,0.5163934,0,1683900252.4542298
-0.07088337,0.57607526,0.07026159,-3.0183601,-1.5412903,2.1566582,-2.230688,9.5356045,0.5163934,0,1683900252.4593258
-0.026221085,0.60584503,0.14225204,-3.0183601,-1.5412903,2.1566582,-2.230688,9.5356045,0.5163934,0,1683900252.4644582
-0.026221085,0.60584503,0.14225204,-3.0183601,-1.5412903,2.1566582,-2.0139432,9.560883,0.8390093,0,1683900252.4747012
-0.026221085,0.60584503,0.14225204,-2.999134,-1.5412903,2.1780205,-2.0139432,9.560883,0.8390093,0,1683900252.500308
0.0074614077,0.62342185,0.16691108,-2.999134,-1.5412903,2.1780205,-2.0139432,9.560883,0.8390093,0,1683900252.510573
0.0074614077,0.62342185,0.16691108,-2.999134,-1.5412903,2.1780205,-1.9016995,9.568591,0.9979958,0,1683900252.5157056
0.5431662,0.7871785,1.1094598,-2.999134,-1.5412903,2.1780205,-1.9016995,9.568591,0.9979958,0,1683900252.5413618
0.5431662,0.7871785,1.1094598,0.009212494,-0.55274963,0.015487671,-1.9016995,9.568591,0.9979958,0,1683900252.5464888
0.5431662,0.7871785,1.1094598,0.009212494,-0.55274963,0.015487671,1.6191288,8.189982,5.145192,0,1683900252.5567393
0.5653836,0.80011463,1.1104304,0.009212494,-0.55274963,0.015487671,1.6191288,8.189982,5.145192,0,1683900252.5670013
0.5653836,0.80011463,1.1104304,0.009212494,-0.55274963,0.015487671,1.6495951,8.182393,5.147588,0,1683900252.5874605
0.5653836,0.80011463,1.1104304,0.01455307,-0.43445587,0.0315094,1.6495951,8.182393,5.147588,0,1683900252.5977178
0.62003994,0.8342824,1.1131146,0.01455307,-0.43445587,0.0315094,1.6495951,8.182393,5.147588,0,1683900252.6182404
0.62003994,0.8342824,1.1131146,0.0315094,-0.07757187,-0.010147095,1.6495951,8.182393,5.147588,0,1683900252.6233568
0.62003994,0.8342824,1.1131146,0.0315094,-0.07757187,-0.010147095,1.6664236,8.175863,5.1525407,0,1683900252.6284902
0.64371324,0.83623874,1.1116436,0.0315094,-0.07757187,-0.010147095,1.6664236,8.175863,5.1525407,0,1683900252.648952
0.64371324,0.83623874,1.1116436,0.0315094,-0.07757187,-0.010147095,1.6656355,8.172064,5.15882,0,1683900252.6591938
0.64371324,0.83623874,1.1116436,0.0676918,0.14072418,-0.097465515,1.6656355,8.172064,5.15882,0,1683900252.6642923
0.64371324,0.83623874,1.1116436,0.0676918,0.14072418,-0.097465515,1.6588311,8.172003,5.1611066,0,1683900252.684798
0.64371324,0.83623874,1.1116436,0.102939606,0.2196312,-0.152874,1.6588311,8.172003,5.1611066,0,1683900252.6899183
0.6485965,0.83843774,1.1153136,0.102939606,0.2196312,-0.152874,1.6588311,8.172003,5.1611066,0,1683900252.7001321
0.6564067,0.844049,1.1907314,0.102939606,0.2196312,-0.152874,1.6588311,8.172003,5.1611066,0,1683900252.7154493
0.6564067,0.844049,1.1907314,0.35007477,0.30160904,-0.3743744,1.6588311,8.172003,5.1611066,0,1683900252.7462583
0.6564067,0.844049,1.1907314,0.35007477,0.30160904,-0.3743744,1.6161186,8.185954,5.1525435,0,1683900252.7513454
0.59319705,0.8040273,1.2129337,0.35007477,0.30160904,-0.3743744,1.6161186,8.185954,5.1525435,0,1683900252.7564704
0.59319705,0.8040273,1.2129337,0.9241867,0.40815353,-0.68653107,1.6161186,8.185954,5.1525435,0,1683900252.771855
0.59319705,0.8040273,1.2129337,0.9241867,0.40815353,-0.68653107,1.5042381,8.257217,5.072083,0,1683900252.7821162
0.5583013,0.77864033,1.1726694,0.9241867,0.40815353,-0.68653107,1.5042381,8.257217,5.072083,0,1683900252.8128405
0.5583013,0.77864033,1.1726694,2.5988579,2.0742798,-1.5334129,1.5042381,8.257217,5.072083,0,1683900252.8179657
0.08800518,0.6129273,0.21302925,2.5988579,2.0742798,-1.5334129,1.5042381,8.257217,5.072083,0,1683900252.8230908
0.08800518,0.6129273,0.21302925,2.5988579,2.0742798,-1.5334129,-1.277053,9.543227,1.8618149,0,1683900252.8333163
0.061647605,0.5802306,-0.0024719704,2.5988579,2.0742798,-1.5334129,-1.277053,9.543227,1.8618149,0,1683900252.8948417
0.061647605,0.5802306,-0.0024719704,2.5988579,2.0742798,-1.5334129,-1.8163506,9.5854645,0.9950524,0,1683900252.9152951
0.058963317,0.5741189,-0.022733029,2.5988579,2.0742798,-1.5334129,-1.8163506,9.5854645,0.9950524,0,1683900252.9307008
0.058963317,0.5741189,-0.022733029,2.7554703,1.8973732,-1.7262077,-1.8163506,9.5854645,0.9950524,0,1683900252.9460912
0.058963317,0.5741189,-0.022733029,2.7554703,1.8973732,-1.7262077,-2.1738083,9.554574,0.39378488,0,1683900252.9614263
-0.07526619,0.53141296,-0.031513833,2.7554703,1.8973732,-1.7262077,-2.1738083,9.554574,0.39378488,0,1683900252.971674
-0.07526619,0.53141296,-0.031513833,2.8096771,1.7886925,-1.8391609,-2.1738083,9.554574,0.39378488,0,1683900252.9768095
-0.01229919,0.55825585,0.009493579,2.8096771,1.7886925,-1.8391609,-2.1738083,9.554574,0.39378488,0,1683900253.0127134
-0.01229919,0.55825585,0.009493579,2.8096771,1.7886925,-1.8391609,-2.3515239,9.5201435,0.08707462,0,1683900253.0178435
-0.09675565,0.5226322,-0.08959755,2.8096771,1.7886925,-1.8391609,-2.3515239,9.5201435,0.08707462,0,1683900253.0434856
-0.09675565,0.5226322,-0.08959755,2.8096771,1.7886925,-1.8391609,-2.521616,9.474161,-0.22826926,0,1683900253.0485785
-0.09675565,0.5226322,-0.08959755,2.8757668,1.7248726,-1.8081856,-2.521616,9.474161,-0.22826926,0,1683900253.0537043
-0.0947993,0.53995115,-0.11718353,2.8757668,1.7248726,-1.8081856,-2.521616,9.474161,-0.22826926,0,1683900253.0742202
-0.0947993,0.53995115,-0.11718353,2.9151535,1.6545105,-1.7720032,-2.521616,9.474161,-0.22826926,0,1683900253.079344
-0.0947993,0.53995115,-0.11718353,2.9151535,1.6545105,-1.7720032,-2.681678,9.416951,-0.54773605,0,1683900253.084477
-0.5907251,0.4835811,-1.2866985,2.9151535,1.6545105,-1.7720032,-2.681678,9.416951,-0.54773605,0,1683900253.1101432
-0.5907251,0.4835811,-1.2866985,1.3812065,1.4946938,-0.7014847,-2.681678,9.416951,-0.54773605,0,1683900253.1254828
-0.5907251,0.4835811,-1.2866985,1.3812065,1.4946938,-0.7014847,-3.8294659,6.704061,-6.0465817,0,1683900253.130597
-0.59829265,0.5177489,-1.2925524,1.3812065,1.4946938,-0.7014847,-3.8294659,6.704061,-6.0465817,0,1683900253.1357276
-0.59829265,0.5177489,-1.2925524,1.3812065,1.4946938,-0.7014847,-3.8011477,6.6503806,-6.123243,0,1683900253.145989
-0.59829265,0.5177489,-1.2925524,1.1830711,1.6673279,-0.64928055,-3.8011477,6.6503806,-6.123243,0,1683900253.1664667
-0.6844325,0.5253165,-1.4136031,1.1830711,1.6673279,-0.64928055,-3.8011477,6.6503806,-6.123243,0,1683900253.176693
-0.6844325,0.5253165,-1.4136031,1.1830711,1.6673279,-0.64928055,-3.6883373,6.5153217,-6.3338084,0,1683900253.1971934
-0.6844325,0.5253165,-1.4136031,1.1830711,1.6673279,-0.64928055,-3.6097524,6.4357376,-6.4592075,0,1683900253.2125804
-0.6844325,0.5253165,-1.4136031,0.7803917,1.6769409,-0.41482925,-3.6097524,6.4357376,-6.4592075,0,1683900253.217708
-0.72836685,0.5333693,-1.529543,0.7803917,1.6769409,-0.41482925,-3.6097524,6.4357376,-6.4592075,0,1683900253.2331061
-0.72836685,0.5333693,-1.529543,0.7803917,1.6769409,-0.41482925,-3.573414,6.3978987,-6.516747,0,1683900253.238233
-0.72836685,0.5333693,-1.529543,0.7538223,1.5415573,-0.37117004,-3.573414,6.3978987,-6.516747,0,1683900253.2433288
-0.7352065,0.53629625,-1.5939659,0.7538223,1.5415573,-0.37117004,-3.573414,6.3978987,-6.516747,0,1683900253.253549
-0.7352065,0.53629625,-1.5939659,0.7538223,1.5415573,-0.37117004,-3.4919145,6.2902446,-6.6640635,0,1683900253.289397
-0.7352065,0.53629625,-1.5939659,0.6738472,0.95249176,-0.26676178,-3.4919145,6.2902446,-6.6640635,0,1683900253.2995968
-0.7713306,0.5509309,-1.7528545,0.6738472,0.95249176,-0.26676178,-3.4919145,6.2902446,-6.6640635,0,1683900253.3047483
-0.7774271,0.54287803,-1.7160025,0.6738472,0.95249176,-0.26676178,-3.4919145,6.2902446,-6.6640635,0,1683900253.3715343
-0.7774271,0.54287803,-1.7160025,-1.7805481,-1.3996315,1.0669136,-3.4919145,6.2902446,-6.6640635,0,1683900253.3766453
-0.7774271,0.54287803,-1.7160025,-1.7805481,-1.3996315,1.0669136,-3.4126663,7.2089314,-5.7057333,0,1683900253.3919592
-0.40596426,0.52969927,-0.97601885,-1.7805481,-1.3996315,1.0669136,-3.4126663,7.2089314,-5.7057333,0,1683900253.3970788
-0.37716505,0.530685,-0.9294002,-1.7805481,-1.3996315,1.0669136,-3.4126663,7.2089314,-5.7057333,0,1683900253.427728
-0.37716505,0.530685,-0.9294002,-1.7805481,-1.3996315,1.0669136,-3.4167504,7.2737474,-5.6203914,0,1683900253.432809
-0.37716505,0.530685,-0.9294002,-1.770935,-1.5072441,1.070118,-3.4167504,7.2737474,-5.6203914,0,1683900253.437897
-0.37716505,0.530685,-0.9294002,-1.7495728,-1.7788124,1.0902786,-3.4167504,7.2737474,-5.6203914,0,1683900253.458233
-0.35617605,0.5455623,-0.8988873,-1.7495728,-1.7788124,1.0902786,-3.4167504,7.2737474,-5.6203914,0,1683900253.463341
-0.35617605,0.5455623,-0.8988873,-1.7495728,-1.7788124,1.0902786,-3.4364092,7.464308,-5.352158,0,1683900253.4735048
-0.32006708,0.5477613,-0.8466726,-1.7495728,-1.7788124,1.0902786,-3.4364092,7.464308,-5.352158,0,1683900253.4988956
-0.32006708,0.5477613,-0.8466726,-1.7836189,-1.9119263,1.1105728,-3.4364092,7.464308,-5.352158,0,1683900253.5039847
-0.32006708,0.5477613,-0.8466726,-1.7836189,-1.9119263,1.1105728,-3.4515784,7.589987,-5.1622753,0,1683900253.5090692
-0.30370355,0.5531299,-0.8137181,-1.7836189,-1.9119263,1.1105728,-3.4515784,7.589987,-5.1622753,0,1683900253.5192208
-0.30370355,0.5531299,-0.8137181,-1.8071175,-1.946106,1.1169815,-3.4515784,7.589987,-5.1622753,0,1683900253.53954
-0.30370355,0.5531299,-0.8137181,-1.8732071,-1.988697,1.1276627,-3.4515784,7.589987,-5.1622753,0,1683900253.564943
-0.30370355,0.5531299,-0.8137181,-1.8732071,-1.988697,1.1276627,-3.4715905,7.8408237,-4.758143,0,1683900253.5700254
-0.2856415,0.549475,-0.7624588,-1.8732071,-1.988697,1.1276627,-3.4715905,7.8408237,-4.758143,0,1683900253.5751097
-0.27808908,0.5487471,-0.74342614,-1.8732071,-1.988697,1.1276627,-3.4715905,7.8408237,-4.758143,0,1683900253.5852659
-0.27808908,0.5487471,-0.74342614,-1.8732071,-1.988697,1.1276627,-3.473956,7.9031167,-4.6521773,0,1683900253.6005256
-0.27808908,0.5487471,-0.74342614,-1.8944359,-2.0238113,1.1371422,-3.473956,7.9031167,-4.6521773,0,1683900253.6056166
-0.26172554,0.5580132,-0.6521452,-1.8944359,-2.0238113,1.1371422,-3.473956,7.9031167,-4.6521773,0,1683900253.6208532
-0.26172554,0.5580132,-0.6521452,-1.8944359,-2.0238113,1.1371422,-3.4766605,8.085595,-4.3250856,0,1683900253.6310055
0.035775326,0.6531916,0.21864048,-1.8944359,-2.0238113,1.1371422,-3.4766605,8.085595,-4.3250856,0,1683900253.671694
0.035775326,0.6531916,0.21864048,-2.7552032,-1.7649269,1.9041824,-3.4766605,8.085595,-4.3250856,0,1683900253.6818485
0.035775326,0.6531916,0.21864048,-2.7552032,-1.7649269,1.9041824,-2.0434005,9.581604,0.43330163,0,1683900253.686929
0.035775326,0.6531916,0.21864048,-2.7552032,-1.7649269,1.9041824,-1.842092,9.603594,0.7403199,0,1683900253.7123513
0.06628824,0.6361153,0.26647234,-2.7552032,-1.7649269,1.9041824,-1.842092,9.603594,0.7403199,0,1683900253.7174375
0.06628824,0.6361153,0.26647234,-2.8414536,-1.5902901,1.9745445,-1.842092,9.603594,0.7403199,0,1683900253.7225158
0.06628824,0.6361153,0.26647234,-2.8745651,-1.5104485,1.9968414,-1.842092,9.603594,0.7403199,0,1683900253.742833
0.06628824,0.6361153,0.26647234,-2.8745651,-1.5104485,1.9968414,-1.7372779,9.609949,0.8950636,0,1683900253.7529643
0.10191191,0.6387996,0.30114058,-2.8745651,-1.5104485,1.9968414,-1.7372779,9.609949,0.8950636,0,1683900253.758055
0.262499,0.70200926,0.44025338,-2.8745651,-1.5104485,1.9968414,-1.7372779,9.609949,0.8950636,0,1683900253.7732754
0.262499,0.70200926,0.44025338,-2.8745651,-1.5104485,1.9968414,-1.3111625,9.602468,1.4979548,0,1683900253.7783508
0.262499,0.70200926,0.44025338,-2.8180885,-1.4561081,1.941433,-1.3111625,9.602468,1.4979548,0,1683900253.7935886
0.3459697,0.7664473,0.56691533,-2.8180885,-1.4561081,1.941433,-1.3111625,9.602468,1.4979548,0,1683900253.8189952
0.3459697,0.7664473,0.56691533,-2.7306366,-1.5177917,1.886158,-1.3111625,9.602468,1.4979548,0,1683900253.824074
0.3459697,0.7664473,0.56691533,-2.7306366,-1.5177917,1.886158,-1.0021976,9.568607,1.8994039,0,1683900253.8393648
0.3918604,0.7984161,0.6818695,-2.7306366,-1.5177917,1.886158,-1.0021976,9.568607,1.8994039,0,1683900253.8495355
0.3918604,0.7984161,0.6818695,-2.3248863,-1.7490387,1.645298,-1.0021976,9.568607,1.8994039,0,1683900253.8597035
0.3918604,0.7984161,0.6818695,-2.0371628,-1.784153,1.4706612,-1.0021976,9.568607,1.8994039,0,1683900253.8901832
0.3918604,0.7984161,0.6818695,-2.0371628,-1.784153,1.4706612,-0.81023276,9.538179,2.130033,0,1683900253.895273
0.3979569,0.8103665,0.7555737,-2.0371628,-1.784153,1.4706612,-0.81023276,9.538179,2.130033,0,1683900253.9003596
0.3979569,0.8103665,0.7555737,-1.913662,-1.7533112,1.3874817,-0.81023276,9.538179,2.130033,0,1683900253.9257667
0.3979569,0.8103665,0.7555737,-1.913662,-1.7533112,1.3874817,-0.7198861,9.521557,2.2343042,0,1683900253.9308465
0.3979569,0.8103665,0.7555737,0.9817314,1.7270088,-0.93473434,-0.7198861,9.521557,2.2343042,0,1683900253.9410152
0.3869771,0.8669943,0.73971057,0.9817314,1.7270088,-0.93473434,-0.7198861,9.521557,2.2343042,0,1683900253.9511733
0.3869771,0.8669943,0.73971057,0.9817314,1.7270088,-0.93473434,-0.0031836964,9.336219,3.0008984,0,1683900253.9613452
0.3869771,0.8669943,0.73971057,0.9817314,1.7270088,-0.93473434,-0.13930744,9.363891,2.9100747,0,1683900253.9918184
0.3664734,0.8469759,0.7006595,0.9817314,1.7270088,-0.93473434,-0.13930744,9.363891,2.9100747,0,1683900253.9969041
0.3664734,0.8469759,0.7006595,1.0914803,1.8824196,-0.99121094,-0.13930744,9.363891,2.9100747,0,1683900254.0019941
0.35963377,0.83452505,0.66600645,1.0914803,1.8824196,-0.99121094,-0.13930744,9.363891,2.9100747,0,1683900254.012156
0.35963377,0.83452505,0.66600645,1.2065697,2.0199394,-1.0603714,-0.13930744,9.363891,2.9100747,0,1683900254.0324664
0.35963377,0.83452505,0.66600645,1.2065697,2.0199394,-1.0603714,-0.28410342,9.392617,2.8050697,0,1683900254.0375526
0.35694948,0.8093959,0.64184785,1.2065697,2.0199394,-1.0603714,-0.28410342,9.392617,2.8050697,0,1683900254.0528057
0.35694948,0.8093959,0.64184785,1.2065697,2.0199394,-1.0603714,-0.43779016,9.421853,2.6846616,0,1683900254.0680513
0.35694948,0.8093959,0.64184785,1.3236618,2.1562576,-1.1339378,-0.43779016,9.421853,2.6846616,0,1683900254.0731363
0.35694948,0.8093959,0.64184785,1.3801384,2.242508,-1.1669159,-0.43779016,9.421853,2.6846616,0,1683900254.0782175
0.3537799,0.7971877,0.6330519,1.3801384,2.242508,-1.1669159,-0.43779016,9.421853,2.6846616,0,1683900254.1036468
0.3537799,0.7971877,0.6330519,1.3801384,2.242508,-1.1669159,-0.5171939,9.436218,2.6192887,0,1683900254.1087234
0.3537799,0.7971877,0.6330519,1.5442276,2.5418472,-1.2734604,-0.5171939,9.436218,2.6192887,0,1683900254.1239555
0.3537799,0.7971877,0.6330519,1.5442276,2.5418472,-1.2734604,-0.7699661,9.477565,2.3986022,0,1683900254.1290374
0.31033087,0.7591224,0.592545,1.5442276,2.5418472,-1.2734604,-0.7699661,9.477565,2.3986022,0,1683900254.1392062
0.31033087,0.7591224,0.592545,1.6603851,2.7453232,-1.3384819,-0.7699661,9.477565,2.3986022,0,1683900254.154447
0.26518327,0.736177,0.55617815,1.6603851,2.7453232,-1.3384819,-0.7699661,9.477565,2.3986022,0,1683900254.1646159
0.26518327,0.736177,0.55617815,1.6603851,2.7453232,-1.3384819,-0.9489316,9.5024605,2.2300577,0,1683900254.174788
0.21222548,0.69932497,0.49028423,1.6603851,2.7453232,-1.3384819,-0.9489316,9.5024605,2.2300577,0,1683900254.1951237
0.21222548,0.69932497,0.49028423,1.6603851,2.7453232,-1.3384819,-1.1344329,9.52456,2.0411296,0,1683900254.2103717
0.21222548,0.69932497,0.49028423,2.1865654,1.7280769,-0.99334717,-1.1344329,9.52456,2.0411296,0,1683900254.2154515
0.21222548,0.69932497,0.49028423,2.1865654,1.7280769,-0.99334717,-3.2592676,8.222598,-4.2351446,0,1683900254.2307086
-0.3012619,0.5531299,-0.67289156,2.1865654,1.7280769,-0.99334717,-3.2592676,8.222598,-4.2351446,0,1683900254.2459648
-0.3012619,0.5531299,-0.67289156,2.5509262,1.4424896,-1.0806656,-3.2592676,8.222598,-4.2351446,0,1683900254.2510555
-0.38765955,0.54434913,-0.8669185,2.5509262,1.4424896,-1.0806656,-3.2592676,8.222598,-4.2351446,0,1683900254.276461
-0.38765955,0.54434913,-0.8669185,2.5509262,1.4424896,-1.0806656,-3.2866714,8.001156,-4.6205726,0,1683900254.2815437
-0.38765955,0.54434913,-0.8669185,2.5509262,1.4424896,-1.0806656,-3.3172753,7.8277063,-4.8880563,0,1683900254.2917078
-0.38765955,0.54434913,-0.8669185,2.767086,1.1783981,-1.1157799,-3.3172753,7.8277063,-4.8880563,0,1683900254.2967877
-0.4625921,0.5275003,-1.0616734,2.767086,1.1783981,-1.1157799,-3.3172753,7.8277063,-4.8880563,0,1683900254.3018708
-0.5089681,0.50285643,-1.1802976,2.767086,1.1783981,-1.1157799,-3.3172753,7.8277063,-4.8880563,0,1683900254.3222034
-0.5089681,0.50285643,-1.1802976,2.8256989,1.0440826,-1.1083031,-3.3172753,7.8277063,-4.8880563,0,1683900254.3374865
-0.5089681,0.50285643,-1.1802976,2.8256989,1.0440826,-1.1083031,-3.3358452,7.734513,-5.021936,0,1683900254.3476534
-0.5089681,0.50285643,-1.1802976,2.3911095,0.6850624,-0.82178116,-3.3358452,7.734513,-5.021936,0,1683900254.3832195
-0.58412814,0.5253165,-1.528072,2.3911095,0.6850624,-0.82178116,-3.3358452,7.734513,-5.021936,0,1683900254.393377
-0.58412814,0.5253165,-1.528072,1.8063164,0.7629013,-0.6098938,-3.3358452,7.734513,-5.021936,0,1683900254.3984587
-0.58412814,0.5253165,-1.528072,1.8063164,0.7629013,-0.6098938,-3.4033031,7.36462,-5.5091085,0,1683900254.4086256
-0.59389466,0.4906482,-1.5336832,1.8063164,0.7629013,-0.6098938,-3.4033031,7.36462,-5.5091085,0,1683900254.4137068
-0.59389466,0.4906482,-1.5336832,1.4663887,0.8981514,-0.49480438,-3.4033031,7.36462,-5.5091085,0,1683900254.4391189
-0.55411565,0.5463055,-1.5065978,1.4663887,0.8981514,-0.49480438,-3.4033031,7.36462,-5.5091085,0,1683900254.444196
-0.55411565,0.5463055,-1.5065978,1.4663887,0.8981514,-0.49480438,-3.4053366,7.1614423,-5.7695594,0,1683900254.4492805
-0.55411565,0.5463055,-1.5065978,0.77825546,1.2710571,-0.31576157,-3.4053366,7.1614423,-5.7695594,0,1683900254.4696093
-0.5133509,0.62170815,-1.3935999,0.77825546,1.2710571,-0.31576157,-3.4053366,7.1614423,-5.7695594,0,1683900254.474686
-0.5133509,0.62170815,-1.3935999,0.77825546,1.2710571,-0.31576157,-3.3628287,7.082967,-5.8901057,0,1683900254.479765
-0.33128953,0.4752856,-0.99626476,0.77825546,1.2710571,-0.31576157,-3.3628287,7.082967,-5.8901057,0,1683900254.4949903
-0.33128953,0.4752856,-0.99626476,0.77825546,1.2710571,-0.31576157,-3.4745066,7.712241,-4.9618073,0,1683900254.5051541
-0.33128953,0.4752856,-0.99626476,-2.1426392,-1.8832207,1.144619,-3.4745066,7.712241,-4.9618073,0,1683900254.5102346
-0.33128953,0.4752856,-0.99626476,-2.4186134,-1.9951057,1.1862755,-3.4745066,7.712241,-4.9618073,0,1683900254.5356534
-0.33128953,0.4752856,-0.99626476,-2.4186134,-1.9951057,1.1862755,-3.4627194,8.15566,-4.2029977,0,1683900254.5508945
-0.33128953,0.4752856,-0.99626476,-2.6625443,-2.0770836,1.265049,-3.4627194,8.15566,-4.2029977,0,1683900254.5712125
-0.33128953,0.4752856,-0.99626476,-2.6625443,-2.0770836,1.265049,-3.4770465,7.929133,-4.6053634,0,1683900254.5762932
-0.3012619,0.47161555,-0.9196336,-2.6625443,-2.0770836,1.265049,-3.4770465,7.929133,-4.6053634,0,1683900254.5813751
-0.28539884,0.48870704,-0.7910154,-2.6625443,-2.0770836,1.265049,-3.4770465,7.929133,-4.6053634,0,1683900254.5915415
-0.28539884,0.48870704,-0.7910154,-2.6625443,-2.0770836,1.265049,-3.4533708,8.231307,-4.0608125,0,1683900254.5966196
-0.28539884,0.48870704,-0.7910154,-2.7147484,-2.122879,1.2926865,-3.4533708,8.231307,-4.0608125,0,1683900254.6067903
-0.27100682,0.5021285,-0.75733286,-2.7147484,-2.122879,1.2926865,-3.4533708,8.231307,-4.0608125,0,1683900254.6220186
-0.27100682,0.5021285,-0.75733286,-2.795658,-2.3338318,1.3480949,-3.4533708,8.231307,-4.0608125,0,1683900254.6372502
-0.19754532,0.5272576,-0.65532994,-2.795658,-2.3338318,1.3480949,-3.4533708,8.231307,-4.0608125,0,1683900254.64744
-0.19754532,0.5272576,-0.65532994,-2.795658,-2.3338318,1.3480949,-3.4291947,8.380656,-3.7650535,0,1683900254.6525261
-0.19754532,0.5272576,-0.65532994,-2.795658,-2.3338318,1.3480949,-3.4146192,8.453732,-3.6118112,0,1683900254.693199
-0.113104016,0.5658234,-0.5235269,-2.795658,-2.3338318,1.3480949,-3.4146192,8.453732,-3.6118112,0,1683900254.708441
-0.113104016,0.5658234,-0.5235269,-2.8925896,-2.446785,1.3683891,-3.4146192,8.453732,-3.6118112,0,1683900254.7135193
-0.113104016,0.5658234,-0.5235269,-2.8925896,-2.446785,1.3683891,-3.3344944,8.729149,-2.9754834,0,1683900254.7236907
-0.113104016,0.5658234,-0.5235269,-2.928772,-2.4594688,1.3705254,-3.3344944,8.729149,-2.9754834,0,1683900254.744009
-0.0947993,0.5680224,-0.48887384,-2.928772,-2.4594688,1.3705254,-3.3344944,8.729149,-2.9754834,0,1683900254.7592661
-0.0947993,0.5680224,-0.48887384,-2.928772,-2.4594688,1.3705254,-3.279869,8.856087,-2.6424541,0,1683900254.7643428
0.47507328,0.7801114,0.89882666,-2.928772,-2.4594688,1.3705254,-3.279869,8.856087,-2.6424541,0,1683900254.779585
0.47507328,0.7801114,0.89882666,-2.169342,-1.6095161,0.8602333,-3.279869,8.856087,-2.6424541,0,1683900254.7948263
0.47507328,0.7801114,0.89882666,-2.169342,-1.6095161,0.8602333,-0.6565701,9.1826315,3.3791385,0,1683900254.799905
0.47507328,0.7801114,0.89882666,-2.169342,-1.6095161,0.8602333,-0.45560068,9.084904,3.6643338,0,1683900254.820207
0.52754575,0.8240306,1.1233665,-2.169342,-1.6095161,0.8602333,-0.45560068,9.084904,3.6643338,0,1683900254.8252861
0.52754575,0.8240306,1.1233665,-1.6015053,-1.7873573,0.5373955,-0.45560068,9.084904,3.6643338,0,1683900254.830371
0.52754575,0.8240306,1.1233665,-1.3873482,-1.7959023,0.4384613,-0.45560068,9.084904,3.6643338,0,1683900254.8558278
0.5292595,0.8250163,1.1777953,-1.3873482,-1.7959023,0.4384613,-0.45560068,9.084904,3.6643338,0,1683900254.8659947
0.5292595,0.8250163,1.1777953,-1.3873482,-1.7959023,0.4384613,-0.39567405,9.056961,3.7396898,0,1683900254.871069
0.5292595,0.8250163,1.1777953,-1.3873482,-1.7959023,0.4384613,-0.24229635,8.990905,3.9083648,0,1683900254.881221
0.5292595,0.8250163,1.1777953,-0.97839355,-1.7159271,0.25194168,-0.24229635,8.990905,3.9083648,0,1683900254.891372
0.54560786,0.846248,1.2488152,-0.97839355,-1.7159271,0.25194168,-0.24229635,8.990905,3.9083648,0,1683900254.901549
0.54560786,0.846248,1.2488152,-0.78653336,-1.6467667,0.152874,-0.24229635,8.990905,3.9083648,0,1683900254.9320316
0.5509764,0.8596694,1.2722458,-0.78653336,-1.6467667,0.152874,-0.24229635,8.990905,3.9083648,0,1683900254.9371202
0.5197356,0.8523445,1.259067,-0.78653336,-1.6467667,0.152874,-0.24229635,8.990905,3.9083648,0,1683900254.9625225
0.5197356,0.8523445,1.259067,-0.26676178,-1.445427,-0.11762619,-0.24229635,8.990905,3.9083648,0,1683900254.9675996
0.5197356,0.8523445,1.259067,-0.26676178,-1.445427,-0.11762619,-0.13722496,8.953507,3.9982824,0,1683900254.9726846
0.5197356,0.8523445,1.259067,0.124168396,-1.2610435,-0.30200958,-0.13722496,8.953507,3.9982824,0,1683900254.9879146
0.5197356,0.8523445,1.259067,0.124168396,-1.2610435,-0.30200958,-0.07276052,8.941948,4.02575,0,1683900254.9929965
0.46140918,0.8281859,1.2092788,0.124168396,-1.2610435,-0.30200958,-0.07276052,8.941948,4.02575,0,1683900255.0031323
0.46140918,0.8281859,1.2092788,0.22216797,-1.1897469,-0.33712387,-0.07276052,8.941948,4.02575,0,1683900255.0234425
0.4504294,0.8218467,1.190231,0.22216797,-1.1897469,-0.33712387,-0.07276052,8.941948,4.02575,0,1683900255.0285187
-0.5199479,0.43647718,-1.2952367,0.22216797,-1.1897469,-0.33712387,-0.07276052,8.941948,4.02575,0,1683900255.0488365
-0.5199479,0.43647718,-1.2952367,2.2717476,2.3905754,-1.6282082,-0.07276052,8.941948,4.02575,0,1683900255.0539265
-0.5199479,0.43647718,-1.2952367,2.2717476,2.3905754,-1.6282082,-3.3392212,7.812272,-4.897796,0,1683900255.0691683
-0.5199479,0.43647718,-1.2952367,1.6805458,2.4087334,-1.2691879,-3.3392212,7.812272,-4.897796,0,1683900255.0894887
-0.62245125,0.44648638,-1.3921288,1.6805458,2.4087334,-1.2691879,-3.3392212,7.812272,-4.897796,0,1683900255.1148999
-0.65417737,0.4784552,-1.4314225,1.6805458,2.4087334,-1.2691879,-3.3392212,7.812272,-4.897796,0,1683900255.125059
-0.6661278,0.49528885,-1.4751142,1.6805458,2.4087334,-1.2691879,-3.3392212,7.812272,-4.897796,0,1683900255.1301417
-0.6661278,0.49528885,-1.4751142,1.4685249,2.3011208,-1.065712,-3.3392212,7.812272,-4.897796,0,1683900255.1453776
-0.6661278,0.49528885,-1.4751142,1.4685249,2.3011208,-1.065712,-3.259624,7.3846755,-5.5688252,0,1683900255.160635
-0.6834619,0.5226322,-1.5959222,1.4685249,2.3011208,-1.065712,-3.259624,7.3846755,-5.5688252,0,1683900255.1809487
-0.6834619,0.5226322,-1.5959222,1.3833427,1.8015099,-0.9176445,-3.259624,7.3846755,-5.5688252,0,1683900255.1911113
-0.6834619,0.5226322,-1.5959222,1.3833427,1.8015099,-0.9176445,-3.202195,7.1950426,-5.8436036,0,1683900255.1961899
-0.6834619,0.5226322,-1.5959222,1.1937523,1.1112404,-0.76530457,-3.202195,7.1950426,-5.8436036,0,1683900255.2571783
-0.6834619,0.5226322,-1.5959222,1.1937523,1.1112404,-0.76530457,-3.1657176,6.9610124,-6.139456,0,1683900255.2622583
-0.67956436,0.5697361,-1.6064168,1.1937523,1.1112404,-0.76530457,-3.1657176,6.9610124,-6.139456,0,1683900255.2673378
-0.72251296,0.5692356,-1.6420405,1.1937523,1.1112404,-0.76530457,-3.1657176,6.9610124,-6.139456,0,1683900255.2775116
-0.72251296,0.5692356,-1.6420405,1.0403442,0.9535599,-0.7098961,-3.1657176,6.9610124,-6.139456,0,1683900255.2876673
-0.72251296,0.5692356,-1.6420405,1.0403442,0.9535599,-0.7098961,-3.1589065,6.8564944,-6.2594085,0,1683900255.2979045
-0.72251296,0.5692356,-1.6420405,1.0403442,0.9535599,-0.7098961,-3.1565275,6.8088713,-6.3123684,0,1683900255.3285356
-0.72251296,0.5692356,-1.6420405,0.9444809,0.88640213,-0.6737137,-3.1565275,6.8088713,-6.3123684,0,1683900255.3336596
-0.74253136,0.5675371,-1.6552345,0.9444809,0.88640213,-0.6737137,-3.1565275,6.8088713,-6.3123684,0,1683900255.3387835
-0.74253136,0.5675371,-1.6552345,0.9444809,0.88640213,-0.6737137,-3.1508322,6.686799,-6.444328,0,1683900255.3438907
-0.74253136,0.5675371,-1.6552345,0.64834595,0.70856094,-0.52244186,-3.1508322,6.686799,-6.444328,0,1683900255.3541236
-0.85016066,0.5343399,-1.7196573,0.64834595,0.70856094,-0.52244186,-3.1508322,6.686799,-6.444328,0,1683900255.3796234
-0.95876056,0.48211005,-1.9422408,0.64834595,0.70856094,-0.52244186,-3.1508322,6.686799,-6.444328,0,1683900255.415384
-0.95876056,0.48211005,-1.9422408,0.2456665,0.16422272,-0.14966965,-3.1508322,6.686799,-6.444328,0,1683900255.4205048
-0.95876056,0.48211005,-1.9422408,0.2456665,0.16422272,-0.14966965,-3.1549487,6.5769672,-6.554402,0,1683900255.4358222
-0.95876056,0.48211005,-1.9422408,-0.077171326,-0.21923065,0.09119034,-3.1549487,6.5769672,-6.554402,0,1683900255.4460623
-0.9380142,0.46673226,-1.9646857,-0.077171326,-0.21923065,0.09119034,-3.1549487,6.5769672,-6.554402,0,1683900255.461409
-0.9380142,0.46673226,-1.9646857,-0.077171326,-0.21923065,0.09119034,-3.1689873,6.5570507,-6.5675707,0,1683900255.4767363
-0.9380142,0.46673226,-1.9646857,-0.27744293,-0.3790474,0.20935059,-3.1689873,6.5570507,-6.5675707,0,1683900255.486926
-0.9177531,0.4630774,-1.9315037,-0.27744293,-0.3790474,0.20935059,-3.1689873,6.5570507,-6.5675707,0,1683900255.4970782
-0.9177531,0.4630774,-1.9315037,-0.27744293,-0.3790474,0.20935059,-3.178242,6.559648,-6.5605016,0,1683900255.5123274
-0.9177531,0.4630774,-1.9315037,-0.27744293,-0.3790474,0.20935059,-3.1962469,6.625143,-6.4855123,0,1683900255.517444
-0.8008577,0.47332925,-1.7369914,-0.27744293,-0.3790474,0.20935059,-3.1962469,6.625143,-6.4855123,0,1683900255.5327463
-0.8008577,0.47332925,-1.7369914,-0.9762573,-0.5442047,0.5311203,-3.1962469,6.625143,-6.4855123,0,1683900255.5378685
-0.8008577,0.47332925,-1.7369914,-0.9762573,-0.5442047,0.5311203,-3.195698,6.6659584,-6.4438267,0,1683900255.5583162
-0.8008577,0.47332925,-1.7369914,-4.775009,-0.99588394,1.543026,-3.195698,6.6659584,-6.4438267,0,1683900255.604107
-0.8008577,0.47332925,-1.7369914,-4.775009,-0.99588394,1.543026,-1.5903953,9.676089,0.11976398,0,1683900255.6091914
0.001607539,0.4027947,-0.009311594,-4.775009,-0.99588394,1.543026,-1.5903953,9.676089,0.11976398,0,1683900255.6193538
0.0074614077,0.38327673,0.04683095,-4.775009,-0.99588394,1.543026,-1.5903953,9.676089,0.11976398,0,1683900255.6396751
0.0074614077,0.38327673,0.04683095,-4.753647,-0.96918106,1.4993668,-1.5903953,9.676089,0.11976398,0,1683900255.6447632
0.0074614077,0.38327673,0.04683095,-4.753647,-0.96918106,1.4993668,-1.4394765,9.682194,0.5944869,0,1683900255.6549296
0.0074614077,0.38327673,0.04683095,-4.754715,-0.9554291,1.4749336,-1.4394765,9.682194,0.5944869,0,1683900255.6803303
0.0074614077,0.38327673,0.04683095,-4.754715,-0.9554291,1.4749336,-1.3637186,9.675639,0.8322606,0,1683900255.6904926
0.020397548,0.382291,0.09222118,-4.754715,-0.9554291,1.4749336,-1.3637186,9.675639,0.8322606,0,1683900255.6955826
0.024310237,0.3686269,0.26453117,-4.754715,-0.9554291,1.4749336,-1.3637186,9.675639,0.8322606,0,1683900255.7006602
0.024310237,0.3686269,0.26453117,-4.754715,-0.9554291,1.4749336,-1.141063,9.617446,1.540483,0,1683900255.7159042
0.024310237,0.3686269,0.26453117,-4.736557,-0.87545395,1.3747978,-1.141063,9.617446,1.540483,0,1683900255.7260733
0.024310237,0.3686269,0.26453117,-4.704647,-0.70936203,1.3022995,-1.141063,9.617446,1.540483,0,1683900255.7362084
-0.008886961,0.3459242,0.33627898,-4.704647,-0.70936203,1.3022995,-1.141063,9.617446,1.540483,0,1683900255.7463562
-0.008886961,0.3459242,0.33627898,-4.704647,-0.70936203,1.3022995,-1.0001292,9.546901,2.0066936,0,1683900255.7565272
-0.008886961,0.3459242,0.33627898,-4.6726036,-0.6368637,1.2693214,-1.0001292,9.546901,2.0066936,0,1683900255.776848
-0.024750035,0.34788054,0.39266416,-4.6726036,-0.6368637,1.2693214,-1.0001292,9.546901,2.0066936,0,1683900255.787013
-0.024750035,0.34788054,0.39266416,-4.6726036,-0.6368637,1.2693214,-0.9330792,9.502918,2.2347937,0,1683900255.7971723
-0.024750035,0.34788054,0.39266416,-4.6726036,-0.6368637,1.2693214,-0.7427806,9.341539,2.8903828,0,1683900255.8124251
-0.083576865,0.31030053,0.39876068,-4.6726036,-0.6368637,1.2693214,-0.7427806,9.341539,2.8903828,0,1683900255.822593
-0.083576865,0.31030053,0.39876068,-4.415989,-0.59000015,1.1809349,-0.7427806,9.341539,2.8903828,0,1683900255.827676
-0.083576865,0.31030053,0.39876068,-4.313717,-0.713501,1.1798668,-0.7427806,9.341539,2.8903828,0,1683900255.8429751
-0.083576865,0.31030053,0.39876068,-4.313717,-0.713501,1.1798668,-0.6779435,9.280378,3.096022,0,1683900255.8531446
-0.06527215,0.3083442,0.4021729,-4.313717,-0.713501,1.1798668,-0.6779435,9.280378,3.096022,0,1683900255.8633199
-0.16898875,0.24513453,1.6329564,-4.313717,-0.713501,1.1798668,-0.6779435,9.280378,3.096022,0,1683900255.8785632
-0.16898875,0.24513453,1.6329564,-4.313717,-0.713501,1.1798668,-0.94184756,6.0739956,7.6413274,0,1683900255.883651
-0.16898875,0.24513453,1.6329564,-0.6459427,4.5051765,2.0064545,-0.94184756,6.0739956,7.6413274,0,1683900255.888737
-0.16898875,0.24513453,1.6329564,-0.6459427,4.5051765,2.0064545,-0.72731847,6.121831,7.6265707,0,1683900255.9040759
-0.16898875,0.24513453,1.6329564,-0.64914703,4.0226555,1.8647957,-0.72731847,6.121831,7.6265707,0,1683900255.9092
-0.12164217,0.18606506,1.4945714,-0.64914703,4.0226555,1.8647957,-0.72731847,6.121831,7.6265707,0,1683900255.924551
-0.12164217,0.18606506,1.4945714,-0.6619644,4.723606,2.0842934,-0.72731847,6.121831,7.6265707,0,1683900255.92968
-0.10919133,0.18021119,1.4128145,-0.6619644,4.723606,2.0842934,-0.72731847,6.121831,7.6265707,0,1683900255.9399376
-0.10919133,0.18021119,1.4128145,-0.6619644,4.723606,2.0842934,-1.0581836,6.0521936,7.643402,0,1683900255.9552438
-0.081863165,0.21853432,1.2034098,-0.6619644,4.723606,2.0842934,-1.0581836,6.0521936,7.643402,0,1683900255.9808652
-0.081863165,0.21853432,1.2034098,-0.6801224,4.9855614,2.2908401,-1.0581836,6.0521936,7.643402,0,1683900255.9911346
-0.081863165,0.21853432,1.2034098,-0.6801224,4.9855614,2.2908401,-1.4204618,5.998156,7.6272407,0,1683900255.99626
-0.08747439,0.21682061,1.150452,-0.6801224,4.9855614,2.2908401,-1.4204618,5.998156,7.6272407,0,1683900256.0269442
-0.08747439,0.21682061,1.150452,-0.45742035,4.55204,2.3856354,-1.4204618,5.998156,7.6272407,0,1683900256.0525653
-0.08747439,0.21682061,1.150452,-0.65662384,4.9333572,2.3323631,-1.4204618,5.998156,7.6272407,0,1683900256.0628295
-0.14872769,0.19607426,1.0977368,-0.65662384,4.9333572,2.3323631,-1.4204618,5.998156,7.6272407,0,1683900256.0730844
-0.14872769,0.19607426,1.0977368,-0.65662384,4.9333572,2.3323631,-1.8548739,5.9693646,7.556223,0,1683900256.0782187
-0.28222924,0.15995014,0.9491153,-0.65662384,4.9333572,2.3323631,-1.8548739,5.9693646,7.556223,0,1683900256.1088984
-0.28222924,0.15995014,0.9491153,-0.13885498,4.22493,2.502861,-1.8548739,5.9693646,7.556223,0,1683900256.124279
-0.28222924,0.15995014,0.9491153,-0.13885498,4.22493,2.502861,-2.1237085,6.0011587,7.459648,0,1683900256.129409
-0.34959424,0.18388124,0.7721647,-0.13885498,4.22493,2.502861,-2.1237085,6.0011587,7.459648,0,1683900256.1396608
-0.34959424,0.18388124,0.7721647,-0.44994354,0.6691742,0.6663704,-2.1237085,6.0011587,7.459648,0,1683900256.1601698
-0.34959424,0.18388124,0.7721647,-0.44994354,0.6691742,0.6663704,-2.7814267,6.8504057,6.4425144,0,1683900256.1704419
-0.34959424,0.18388124,0.7721647,-0.3966713,0.90990067,0.57691574,-2.7814267,6.8504057,6.4425144,0,1683900256.1755724
-0.060146224,0.79645973,0.8114584,-0.3966713,0.90990067,0.57691574,-2.7814267,6.8504057,6.4425144,0,1683900256.190977
-0.060146224,0.79645973,0.8114584,-0.3966713,0.90990067,0.57691574,-2.788469,6.836512,6.4542174,0,1683900256.201232
-0.060146224,0.79645973,0.8114584,-0.32644272,1.1304665,0.53432465,-2.788469,6.836512,6.4542174,0,1683900256.2114902
-0.060146224,0.79645973,0.8114584,-0.32644272,1.1304665,0.53432465,-2.8150957,6.8297963,6.449769,0,1683900256.221748
-0.09748359,0.7835236,0.8051192,-0.32644272,1.1304665,0.53432465,-2.8150957,6.8297963,6.449769,0,1683900256.2319987
-0.11066238,0.7959745,0.76703876,-0.32644272,1.1304665,0.53432465,-2.8150957,6.8297963,6.449769,0,1683900256.2422163
-0.11066238,0.7959745,0.76703876,-0.2901268,1.2156487,0.509758,-2.8150957,6.8297963,6.449769,0,1683900256.2473092
-0.11066238,0.7959745,0.76703876,-0.2901268,1.2156487,0.509758,-2.834385,6.8280954,6.443117,0,1683900256.2678046
-0.11066238,0.7959745,0.76703876,-0.16662598,1.2028313,0.42030334,-2.834385,6.8280954,6.443117,0,1683900256.2934504
-0.11066238,0.7959745,0.76703876,-0.16662598,1.2028313,0.42030334,-2.9008265,6.8305182,6.4108973,0,1683900256.298583
-0.14385958,0.82745796,0.62451375,-0.16662598,1.2028313,0.42030334,-2.9008265,6.8305182,6.4108973,0,1683900256.3037086
-0.14385958,0.82745796,0.62451375,-0.10694504,1.0014915,0.3542137,-2.9008265,6.8305182,6.4108973,0,1683900256.3293052
-0.14385958,0.82745796,0.62451375,-0.10694504,1.0014915,0.3542137,-2.9392707,6.8372455,6.386168,0,1683900256.339528
-0.14483017,0.8428357,0.5525233,-0.10694504,1.0014915,0.3542137,-2.9392707,6.8372455,6.386168,0,1683900256.3446672
-0.14483017,0.8428357,0.5525233,-0.091991425,0.77358246,0.273304,-2.9392707,6.8372455,6.386168,0,1683900256.3600428
-0.13970424,0.8530724,0.5283495,-0.091991425,0.77358246,0.273304,-2.9392707,6.8372455,6.386168,0,1683900256.3651752
-0.13970424,0.8530724,0.5283495,-0.091991425,0.77358246,0.273304,-2.967999,6.8442316,6.365364,0,1683900256.3805654
-0.13385037,0.8501455,0.54958117,-0.091991425,0.77358246,0.273304,-2.967999,6.8442316,6.365364,0,1683900256.4061882
-0.13385037,0.8501455,0.54958117,-0.091991425,0.77358246,0.273304,-2.991288,6.846633,6.3518653,0,1683900256.4112768
-0.13385037,0.8501455,0.54958117,-0.1325798,0.6116295,0.17637253,-2.991288,6.846633,6.3518653,0,1683900256.4164033
-0.13385037,0.8501455,0.54958117,-0.09519577,-0.32043457,-0.13471603,-2.991288,6.846633,6.3518653,0,1683900256.4215348
