acc_x,acc_y,acc_z,gyr_x,gyr_y,gyr_z,grav_x,grav_y,grav_z,label,timestamp
-0.8622454,0.09811548,0.6182678,-0.9691377,-0.37812558,-2.5841126,-5.4813614,5.052784,6.3765316,0,1683969590.3312325
-0.99103343,0.023720896,0.7315061,-0.9691377,-0.37812558,-2.5841126,-5.581672,4.859063,6.4397635,0,1683969590.3988793
-0.99103343,0.023720896,0.7315061,-0.95737857,-0.36728272,-2.368172,-5.710143,4.584143,6.528094,0,1683969590.4040565
-1.0941492,-0.02414775,0.80370545,-0.95737857,-0.36728272,-2.368172,-5.710143,4.584143,6.528094,0,1683969590.4040668
-1.1496402,-0.02853825,0.84163445,-0.95737857,-0.36728272,-2.368172,-5.710143,4.584143,6.528094,0,1683969590.4091864
-1.1496402,-0.02853825,0.84163445,-0.95737857,-0.36728272,-2.368172,-5.782811,4.418833,6.577927,0,1683969590.4296975
-1.1496402,-0.02853825,0.84163445,-0.8764389,-0.18493946,-1.7402023,-5.782811,4.418833,6.577927,0,1683969590.4348016
-1.1496402,-0.02853825,0.84163445,-0.8764389,-0.18493946,-1.7402023,-5.845607,4.2699666,6.6206007,0,1683969590.4501696
-1.1496402,-0.02853825,0.84163445,-0.8072584,-0.106901415,-1.3865114,-5.845607,4.2699666,6.6206007,0,1683969590.4552696
-1.1769589,-0.024452647,0.8981622,-0.8072584,-0.106901415,-1.3865114,-5.845607,4.2699666,6.6206007,0,1683969590.4706655
-1.1769589,-0.024452647,0.8981622,-0.8072584,-0.106901415,-1.3865114,-5.8984165,4.13881,6.6569543,0,1683969590.4809363
-1.18263,-0.020489,0.92663944,-0.8072584,-0.106901415,-1.3865114,-5.8984165,4.13881,6.6569543,0,1683969590.4860783
-1.18263,-0.020489,0.92663944,-0.7115053,-0.075594574,-1.1226176,-5.8984165,4.13881,6.6569543,0,1683969590.5014293
-1.18263,-0.020489,0.92663944,-0.52198434,-0.13698652,-0.8576548,-5.8984165,4.13881,6.6569543,0,1683969590.521993
-1.1551284,-0.0037807084,0.96694666,-0.52198434,-0.13698652,-0.8576548,-5.8984165,4.13881,6.6569543,0,1683969590.527133
-1.1551284,-0.0037807084,0.96694666,-0.52198434,-0.13698652,-0.8576548,-5.94076,4.027311,6.687619,0,1683969590.537399
-1.1551284,-0.0037807084,0.96694666,-0.52198434,-0.13698652,-0.8576548,-5.981388,3.8984096,6.7276673,0,1683969590.5528054
-1.1585432,0.0012195833,1.0196936,-0.52198434,-0.13698652,-0.8576548,-5.981388,3.8984096,6.7276673,0,1683969590.5681689
-1.1585432,0.0012195833,1.0196936,-0.31444287,-0.21930063,-0.6939429,-5.981388,3.8984096,6.7276673,0,1683969590.5784435
-1.1585432,0.0012195833,1.0196936,-0.31444287,-0.21930063,-0.6939429,-5.994141,3.8395188,6.750147,0,1683969590.593852
-1.1694585,-0.0015854583,1.0409753,-0.31444287,-0.21930063,-0.6939429,-5.994141,3.8395188,6.750147,0,1683969590.5989974
-1.1694585,-0.0015854583,1.0409753,-0.09101892,-0.28328875,-0.53985214,-5.994141,3.8395188,6.750147,0,1683969590.6041543
-1.2212907,-0.027806502,1.0514028,-0.09101892,-0.28328875,-0.53985214,-5.994141,3.8395188,6.750147,0,1683969590.6195734
-1.2212907,-0.027806502,1.0514028,0.18234327,-0.37614027,-0.3378085,-5.994141,3.8395188,6.750147,0,1683969590.6247227
-1.2212907,-0.027806502,1.0514028,0.18234327,-0.37614027,-0.3378085,-5.9973454,3.802306,6.7683396,0,1683969590.634913
-1.2212907,-0.027806502,1.0514028,0.34681875,-0.42088616,-0.17928895,-5.9973454,3.802306,6.7683396,0,1683969590.665669
-1.243914,-0.06360127,1.0803679,0.34681875,-0.42088616,-0.17928895,-5.9973454,3.802306,6.7683396,0,1683969590.6708076
-1.243914,-0.06360127,1.0803679,0.34681875,-0.42088616,-0.17928895,-5.9901586,3.7874699,6.7830067,0,1683969590.68108
-1.243914,-0.06360127,1.0803679,0.59635717,-0.37583485,0.15867224,-5.9901586,3.7874699,6.7830067,0,1683969590.7015998
-1.2625736,-0.13177599,1.1056132,0.59635717,-0.37583485,0.15867224,-5.9901586,3.7874699,6.7830067,0,1683969590.7066839
-1.2625736,-0.13177599,1.1056132,0.59635717,-0.37583485,0.15867224,-5.9732065,3.7975276,6.7923265,0,1683969590.7220988
-1.2625736,-0.13177599,1.1056132,0.79717916,-0.24007004,0.54702985,-5.9732065,3.7975276,6.7923265,0,1683969590.7477438
-1.2625736,-0.13177599,1.1056132,0.79717916,-0.24007004,0.54702985,-5.93695,3.862161,6.7876687,0,1683969590.7528772
-1.2775136,-0.15994836,1.0881733,0.79717916,-0.24007004,0.54702985,-5.93695,3.862161,6.7876687,0,1683969590.7580135
-1.2462922,-0.15622863,1.0331701,0.79717916,-0.24007004,0.54702985,-5.93695,3.862161,6.7876687,0,1683969590.7836902
-1.2462922,-0.15622863,1.0331701,0.79717916,-0.24007004,0.54702985,-5.9077053,3.937901,6.7696424,0,1683969590.7888265
-1.2462922,-0.15622863,1.0331701,0.93370754,-0.12721269,0.86819226,-5.9077053,3.937901,6.7696424,0,1683969590.793965
-1.1813494,-0.12409261,0.91432166,0.93370754,-0.12721269,0.86819226,-5.9077053,3.937901,6.7696424,0,1683969590.8093836
-1.1813494,-0.12409261,0.91432166,1.0813842,-0.114689946,1.2556335,-5.9077053,3.937901,6.7696424,0,1683969590.8196623
-1.1813494,-0.12409261,0.91432166,1.0813842,-0.114689946,1.2556335,-5.872547,4.038507,6.740902,0,1683969590.8248026
-1.1813494,-0.12409261,0.91432166,1.207986,-0.2883284,1.4877623,-5.872547,4.038507,6.740902,0,1683969590.8453052
-1.083112,-0.02207446,0.82602376,1.207986,-0.2883284,1.4877623,-5.872547,4.038507,6.740902,0,1683969590.8504398
-1.083112,-0.02207446,0.82602376,1.207986,-0.2883284,1.4877623,-5.82419,4.1620617,6.7076197,0,1683969590.8658473
-0.99243593,0.07634591,0.9386523,1.207986,-0.2883284,1.4877623,-5.82419,4.1620617,6.7076197,0,1683969590.8812509
-0.99243593,0.07634591,0.9386523,1.3663528,-0.3391829,1.6462818,-5.82419,4.1620617,6.7076197,0,1683969590.8863919
-0.99243593,0.07634591,0.9386523,1.3663528,-0.3391829,1.6462818,-5.7552333,4.3050675,6.676811,0,1683969590.8915296
-0.94218916,0.08494398,0.8832222,1.3663528,-0.3391829,1.6462818,-5.7552333,4.3050675,6.676811,0,1683969590.906949
-0.94218916,0.08494398,0.8832222,1.3663528,-0.3391829,1.6462818,-5.634923,4.5436726,6.621088,0,1683969590.9326277
-0.94218916,0.08494398,0.8832222,1.4382823,-0.19593503,1.7472273,-5.634923,4.5436726,6.621088,0,1683969590.9377663
-0.94218916,0.08494398,0.8832222,1.5435038,-0.17959438,1.9173533,-5.634923,4.5436726,6.621088,0,1683969590.958302
-0.94218916,0.08494398,0.8832222,1.5435038,-0.17959438,1.9173533,-5.5553827,4.712206,6.5703077,0,1683969590.9634407
-0.96816623,0.052076213,0.7882167,1.5435038,-0.17959438,1.9173533,-5.5553827,4.712206,6.5703077,0,1683969590.9685857
-0.96816623,0.052076213,0.7882167,1.5435038,-0.17959438,1.9173533,-5.512877,4.800374,6.5422254,0,1683969590.9891305
-0.97676426,0.039392542,0.7707767,1.5435038,-0.17959438,1.9173533,-5.512877,4.800374,6.5422254,0,1683969591.0044465
-0.97676426,0.039392542,0.7707767,1.6204728,-0.1881465,2.0983222,-5.512877,4.800374,6.5422254,0,1683969591.0095778
-0.96651983,0.021769563,0.7176638,1.6204728,-0.1881465,2.0983222,-5.512877,4.800374,6.5422254,0,1683969591.0147336
-0.96651983,0.021769563,0.7176638,1.6907222,-0.23060162,2.3941336,-5.512877,4.800374,6.5422254,0,1683969591.035205
-0.96651983,0.021769563,0.7176638,1.6907222,-0.23060162,2.3941336,-5.3642955,5.0859284,6.449324,0,1683969591.0454714
-0.96651983,0.021769563,0.7176638,1.6907222,-0.23060162,2.3941336,-5.241531,5.2948413,6.38178,0,1683969591.0506105
-0.9246272,0.021220751,0.6708928,1.6907222,-0.23060162,2.3941336,-5.241531,5.2948413,6.38178,0,1683969591.0608969
-0.9246272,0.021220751,0.6708928,1.7395915,-0.28389964,2.7765353,-5.241531,5.2948413,6.38178,0,1683969591.071173
-0.9246272,0.021220751,0.6708928,1.7744108,-0.28695396,3.174514,-5.241531,5.2948413,6.38178,0,1683969591.0865645
-0.9246272,0.021220751,0.6708928,1.7744108,-0.28695396,3.174514,-5.0175433,5.629655,6.2743406,0,1683969591.101979
-0.8608429,0.013049542,0.63741523,1.7744108,-0.28695396,3.174514,-5.0175433,5.629655,6.2743406,0,1683969591.1173847
-0.8608429,0.013049542,0.63741523,1.7744108,-0.28695396,3.174514,-4.839928,5.865927,6.1969438,0,1683969591.1327899
-0.8608429,0.013049542,0.63741523,1.7806722,-0.28206703,3.477045,-4.839928,5.865927,6.1969438,0,1683969591.1430604
-0.7540074,0.037807085,0.5904613,1.7806722,-0.28206703,3.477045,-4.839928,5.865927,6.1969438,0,1683969591.1533356
-0.7540074,0.037807085,0.5904613,1.7806722,-0.28206703,3.477045,-4.6408424,6.107655,6.1151657,0,1683969591.163613
-0.7540074,0.037807085,0.5904613,1.7898352,-0.32253686,3.745673,-4.6408424,6.107655,6.1151657,0,1683969591.168744
-0.6246096,0.11720196,0.5188717,1.7898352,-0.32253686,3.745673,-4.6408424,6.107655,6.1151657,0,1683969591.1790226
-0.6246096,0.11720196,0.5188717,1.7898352,-0.32253686,3.745673,-4.418398,6.3516974,6.030739,0,1683969591.1995125
-0.5030171,0.18183987,0.50679785,1.7898352,-0.32253686,3.745673,-4.418398,6.3516974,6.030739,0,1683969591.2148876
-0.5030171,0.18183987,0.50679785,1.8422168,-0.46654832,3.8820486,-4.418398,6.3516974,6.030739,0,1683969591.2251298
-0.38307112,0.24946578,0.5160667,1.8422168,-0.46654832,3.8820486,-4.418398,6.3516974,6.030739,0,1683969591.2404604
-0.38307112,0.24946578,0.5160667,2.0329595,-0.69806623,3.9477167,-4.418398,6.3516974,6.030739,0,1683969591.245596
-0.38307112,0.24946578,0.5160667,2.0329595,-0.69806623,3.9477167,-4.170715,6.595697,5.94458,0,1683969591.255879
-0.38307112,0.24946578,0.5160667,2.2568417,-0.8717047,3.9692497,-4.170715,6.595697,5.94458,0,1683969591.2815192
-0.38307112,0.24946578,0.5160667,2.2568417,-0.8717047,3.9692497,-3.7550278,6.963171,5.800873,0,1683969591.2866566
-0.30989614,0.26568624,0.5193596,2.2568417,-0.8717047,3.9692497,-3.7550278,6.963171,5.800873,0,1683969591.2917933
-0.24312395,0.28526056,0.53515315,2.2568417,-0.8717047,3.9692497,-3.7550278,6.963171,5.800873,0,1683969591.3174522
-0.24312395,0.28526056,0.53515315,2.4741569,-0.9399689,3.9794817,-3.7550278,6.963171,5.800873,0,1683969591.3277261
-0.24312395,0.28526056,0.53515315,2.4741569,-0.9399689,3.9794817,-3.4543455,7.2082267,5.687273,0,1683969591.3328667
-0.22873287,0.30788383,0.5003341,2.4741569,-0.9399689,3.9794817,-3.4543455,7.2082267,5.687273,0,1683969591.338008
-0.22873287,0.30788383,0.5003341,2.4741569,-0.9399689,3.9794817,-3.1428802,7.45038,5.554301,0,1683969591.3636866
-0.22873287,0.30788383,0.5003341,2.621681,-0.8454375,4.0091085,-3.1428802,7.45038,5.554301,0,1683969591.368785
-0.22873287,0.30788383,0.5003341,2.621681,-0.8454375,4.0091085,-2.8271568,7.6837187,5.4040504,0,1683969591.3841777
-0.22873287,0.30788383,0.5003341,2.6230555,-0.7286095,4.0549235,-2.8271568,7.6837187,5.4040504,0,1683969591.3893135
-0.22464725,0.29965162,0.48484537,2.6230555,-0.7286095,4.0549235,-2.8271568,7.6837187,5.4040504,0,1683969591.3995843
-0.22464725,0.29965162,0.48484537,2.550057,-0.4166101,4.2287145,-2.8271568,7.6837187,5.4040504,0,1683969591.4149623
-0.19970676,0.23629428,0.49002862,2.550057,-0.4166101,4.2287145,-2.8271568,7.6837187,5.4040504,0,1683969591.4252326
-0.19970676,0.23629428,0.49002862,2.550057,-0.4166101,4.2287145,-2.508503,7.9020724,5.2441187,0,1683969591.430365
-0.07091877,0.23794071,0.4481359,2.550057,-0.4166101,4.2287145,-2.508503,7.9020724,5.2441187,0,1683969591.461175
-0.07091877,0.23794071,0.4481359,2.550057,-0.4166101,4.2287145,-2.017297,8.199057,4.994206,0,1683969591.4713695
-0.07091877,0.23794071,0.4481359,2.4268148,-0.010231993,4.485889,-2.017297,8.199057,4.994206,0,1683969591.4765086
-0.07091877,0.23794071,0.4481359,2.4268148,-0.010231993,4.485889,-1.6755785,8.375987,4.8240423,0,1683969591.4867833
-0.07091877,0.23794071,0.4481359,2.248595,0.34116822,4.607604,-1.6755785,8.375987,4.8240423,0,1683969591.4919207
0.06183288,0.32075045,0.37947336,2.248595,0.34116822,4.607604,-1.6755785,8.375987,4.8240423,0,1683969591.5021865
0.06183288,0.32075045,0.37947336,1.9135354,0.74097955,4.5365906,-1.6755785,8.375987,4.8240423,0,1683969591.5175529
0.26166162,0.48783335,0.28093103,1.9135354,0.74097955,4.5365906,-1.6755785,8.375987,4.8240423,0,1683969591.5380957
0.26166162,0.48783335,0.28093103,1.9135354,0.74097955,4.5365906,-1.3302144,8.531146,4.6568437,0,1683969591.5483346
0.26166162,0.48783335,0.28093103,1.9135354,0.74097955,4.5365906,-0.9953438,8.659039,4.5018287,0,1683969591.5586083
0.26166162,0.48783335,0.28093103,1.5818355,1.0062478,4.289496,-0.9953438,8.659039,4.5018287,0,1683969591.5740209
0.34758124,0.6150359,0.20117027,1.5818355,1.0062478,4.289496,-0.9953438,8.659039,4.5018287,0,1683969591.5791628
0.34758124,0.6150359,0.20117027,1.1499538,1.2197452,3.879758,-0.9953438,8.659039,4.5018287,0,1683969591.599711
0.34758124,0.6150359,0.20117027,1.1499538,1.2197452,3.879758,-0.5409201,8.795179,4.311419,0,1683969591.6048436
0.38965687,0.70790714,0.17403455,1.1499538,1.2197452,3.879758,-0.5409201,8.795179,4.311419,0,1683969591.6099784
0.4106947,0.7222373,0.22690348,1.1499538,1.2197452,3.879758,-0.5409201,8.795179,4.311419,0,1683969591.6356566
0.4106947,0.7222373,0.22690348,0.83169305,1.4172074,3.5392005,-0.5409201,8.795179,4.311419,0,1683969591.6459255
0.4106947,0.7222373,0.22690348,0.83169305,1.4172074,3.5392005,-0.27552256,8.8516655,4.2199783,0,1683969591.6561933
0.4106947,0.7222373,0.22690348,0.83169305,1.4172074,3.5392005,-0.043367922,8.885747,4.1566477,0,1683969591.6767075
0.4106947,0.7222373,0.22690348,0.51893,1.7069103,3.2065845,-0.043367922,8.885747,4.1566477,0,1683969591.681852
0.35428897,0.65644073,0.26501545,0.51893,1.7069103,3.2065845,-0.043367922,8.885747,4.1566477,0,1683969591.6869938
0.27708933,0.56728923,0.28660208,0.51893,1.7069103,3.2065845,-0.043367922,8.885747,4.1566477,0,1683969591.7075746
0.27708933,0.56728923,0.28660208,0.43295074,1.7919732,3.154508,-0.043367922,8.885747,4.1566477,0,1683969591.7126985
0.27708933,0.56728923,0.28660208,0.43295074,1.7919732,3.154508,0.061660938,8.896144,4.1341166,0,1683969591.7178376
0.1604362,0.46203914,0.3012371,0.43295074,1.7919732,3.154508,0.061660938,8.896144,4.1341166,0,1683969591.7486365
0.1604362,0.46203914,0.3012371,0.31658092,1.9176587,3.2129984,0.061660938,8.896144,4.1341166,0,1683969591.7537742
0.1604362,0.46203914,0.3012371,0.31658092,1.9176587,3.2129984,0.35583466,8.907621,4.094361,0,1683969591.7589204
0.1604362,0.46203914,0.3012371,0.31764993,1.8805487,3.4327571,0.35583466,8.907621,4.094361,0,1683969591.7794178
0.14000817,0.4133168,0.24842913,0.31764993,1.8805487,3.4327571,0.35583466,8.907621,4.094361,0,1683969591.7948205
1.3987402,1.407765,0.24196534,0.31764993,1.8805487,3.4327571,0.35583466,8.907621,4.094361,0,1683969591.8102298
1.3987402,1.407765,0.24196534,0.29626966,-0.082619525,0.072540246,0.35583466,8.907621,4.094361,0,1683969591.8153331
1.3987402,1.407765,0.24196534,0.19074267,0.019394971,-0.29810223,0.35583466,8.907621,4.094361,0,1683969591.835882
1.3984963,1.4250832,0.21050009,0.19074267,0.019394971,-0.29810223,0.35583466,8.907621,4.094361,0,1683969591.8410256
1.3984963,1.4250832,0.21050009,0.19074267,0.019394971,-0.29810223,4.414253,8.029166,3.504707,0,1683969591.8512592
1.3984963,1.4250832,0.21050009,0.020005837,0.10338894,-0.7643451,4.414253,8.029166,3.504707,0,1683969591.8563962
1.337761,1.4068503,0.1806203,0.020005837,0.10338894,-0.7643451,4.414253,8.029166,3.504707,0,1683969591.871825
1.337761,1.4068503,0.1806203,0.020005837,0.10338894,-0.7643451,4.3889875,8.049505,3.4897535,0,1683969591.882099
1.337761,1.4068503,0.1806203,-0.117438845,0.1611157,-1.097114,4.3889875,8.049505,3.4897535,0,1683969591.8974884
1.267513,1.3529449,0.1832424,-0.117438845,0.1611157,-1.097114,4.3889875,8.049505,3.4897535,0,1683969591.9077246
1.267513,1.3529449,0.1832424,-0.117438845,0.1611157,-1.097114,4.3345747,8.080007,3.4872732,0,1683969591.9128692
1.1847032,1.2776965,0.1718393,-0.117438845,0.1611157,-1.097114,4.3345747,8.080007,3.4872732,0,1683969591.9384885
1.1847032,1.2776965,0.1718393,-0.22586742,0.18860464,-1.3712398,4.3345747,8.080007,3.4872732,0,1683969591.9436264
1.1847032,1.2776965,0.1718393,-0.22586742,0.18860464,-1.3712398,4.254418,8.118486,3.4966,0,1683969591.9539003
1.1847032,1.2776965,0.1718393,-0.32895094,0.15851954,-1.637577,4.254418,8.118486,3.4966,0,1683969591.9641788
1.0807338,1.1951916,0.18452296,-0.32895094,0.15851954,-1.637577,4.254418,8.118486,3.4966,0,1683969591.98471
1.0807338,1.1951916,0.18452296,-0.32895094,0.15851954,-1.637577,4.095979,8.186858,3.526249,0,1683969591.989848
1.0807338,1.1951916,0.18452296,-0.32895094,0.15851954,-1.637577,3.972528,8.236718,3.551285,0,1683969592.0104082
1.0284746,1.1564089,0.1925722,-0.32895094,0.15851954,-1.637577,3.972528,8.236718,3.551285,0,1683969592.0155482
1.0284746,1.1564089,0.1925722,-0.3724751,0.09117164,-1.8095356,3.972528,8.236718,3.551285,0,1683969592.025842
0.9759716,1.1195775,0.22769623,-0.3724751,0.09117164,-1.8095356,3.972528,8.236718,3.551285,0,1683969592.0361204
0.9759716,1.1195775,0.22769623,-0.3724751,0.09117164,-1.8095356,3.8378205,8.289677,3.5761068,0,1683969592.041262
0.9759716,1.1195775,0.22769623,-0.3820962,-0.058337633,-2.0405953,3.8378205,8.289677,3.5761068,0,1683969592.0566745
0.9259077,1.0760994,0.27062553,-0.3820962,-0.058337633,-2.0405953,3.8378205,8.289677,3.5761068,0,1683969592.0772226
-0.074272625,0.35325232,0.36117962,-0.3820962,-0.058337633,-2.0405953,3.8378205,8.289677,3.5761068,0,1683969592.0977712
-0.074272625,0.35325232,0.36117962,-0.3820962,-0.058337633,-2.0405953,-2.071359,8.579634,4.2819943,0,1683969592.1080425
-0.074272625,0.35325232,0.36117962,-0.816116,0.082619525,-3.9968913,-2.071359,8.579634,4.2819943,0,1683969592.113184
-0.11616532,0.3255068,0.35520366,-0.816116,0.082619525,-3.9968913,-2.071359,8.579634,4.2819943,0,1683969592.1389153
-0.11616532,0.3255068,0.35520366,-0.8226828,0.08155051,-3.9504654,-2.071359,8.579634,4.2819943,0,1683969592.1491966
-0.11616532,0.3255068,0.35520366,-0.8226828,0.08155051,-3.9504654,-2.3823473,8.463169,4.351472,0,1683969592.1594574
-0.17757133,0.31074983,0.34178823,-0.8226828,0.08155051,-3.9504654,-2.3823473,8.463169,4.351472,0,1683969592.1697176
-0.17757133,0.31074983,0.34178823,-0.83016586,0.0571159,-3.9040399,-2.3823473,8.463169,4.351472,0,1683969592.1799893
-0.17757133,0.31074983,0.34178823,-0.83016586,0.0571159,-3.9040399,-2.6876197,8.335113,4.4202633,0,1683969592.1851277
-0.24580702,0.28251648,0.33471465,-0.83016586,0.0571159,-3.9040399,-2.6876197,8.335113,4.4202633,0,1683969592.210788
-0.24580702,0.28251648,0.33471465,-0.83016586,0.0571159,-3.9040399,-3.1323535,8.122938,4.521322,0,1683969592.215917
-0.24580702,0.28251648,0.33471465,-0.82436264,-0.011148291,-3.823253,-3.1323535,8.122938,4.521322,0,1683969592.2210631
-0.2716012,0.28239453,0.32099435,-0.82436264,-0.011148291,-3.823253,-3.1323535,8.122938,4.521322,0,1683969592.2466893
-0.2716012,0.28239453,0.32099435,-0.8025242,-0.073303826,-3.7374263,-3.1323535,8.122938,4.521322,0,1683969592.256943
-0.2716012,0.28239453,0.32099435,-0.8025242,-0.073303826,-3.7374263,-3.41579,7.9699693,4.587816,0,1683969592.262046
-0.2716012,0.28239453,0.32099435,-0.7903069,-0.1600467,-3.6709948,-3.41579,7.9699693,4.587816,0,1683969592.2825885
-0.2716012,0.28239453,0.32099435,-0.7903069,-0.1600467,-3.6709948,-3.6853411,7.810884,4.65236,0,1683969592.2979498
-0.30892047,0.29861498,0.28879735,-0.7903069,-0.1600467,-3.6709948,-3.6853411,7.810884,4.65236,0,1683969592.303083
-0.37557068,0.30166394,0.26074693,-0.7903069,-0.1600467,-3.6709948,-3.6853411,7.810884,4.65236,0,1683969592.3133512
-0.37557068,0.30166394,0.26074693,-0.8144361,-0.32330042,-3.5984545,-3.6853411,7.810884,4.65236,0,1683969592.3235838
-0.37557068,0.30166394,0.26074693,-0.8144361,-0.32330042,-3.5984545,-3.9420767,7.645525,4.7161527,0,1683969592.328687
-0.37557068,0.30166394,0.26074693,-0.8144361,-0.32330042,-3.5984545,-4.3000035,7.3832235,4.8201776,0,1683969592.3440707
-0.37557068,0.30166394,0.26074693,-0.84849185,-0.47311515,-3.5295794,-4.3000035,7.3832235,4.8201776,0,1683969592.3491726
-0.37557068,0.30166394,0.26074693,-0.84849185,-0.47311515,-3.5295794,-5.4645996,6.0916104,5.409857,0,1683969592.3542922
-0.37557068,0.30166394,0.26074693,-1.1201742,-0.73532903,-2.5868616,-5.4645996,6.0916104,5.409857,0,1683969592.3645267
-0.8743193,0.15025267,0.5919248,-1.1201742,-0.73532903,-2.5868616,-5.4645996,6.0916104,5.409857,0,1683969592.3901854
-0.8743193,0.15025267,0.5919248,-1.1201742,-0.73532903,-2.5868616,-5.588249,5.887907,5.5081882,0,1683969592.3952963
-0.92993236,0.13531277,0.64394003,-1.1201742,-0.73532903,-2.5868616,-5.588249,5.887907,5.5081882,0,1683969592.41071
-0.92993236,0.13531277,0.64394003,-1.1201742,-0.73532903,-2.5868616,-5.6944737,5.690283,5.606225,0,1683969592.4158463
-0.92993236,0.13531277,0.64394003,-1.0404562,-0.7819075,-2.4043655,-5.6944737,5.690283,5.606225,0,1683969592.4312096
-0.92993236,0.13531277,0.64394003,-1.0404562,-0.7819075,-2.4043655,-5.8225226,5.413047,5.747457,0,1683969592.446656
-0.92993236,0.13531277,0.64394003,-0.95371336,-0.8196284,-2.1853704,-5.8225226,5.413047,5.747457,0,1683969592.4569585
-0.96536124,0.13775194,0.67424667,-0.95371336,-0.8196284,-2.1853704,-5.8225226,5.413047,5.747457,0,1683969592.4620795
-0.96536124,0.13775194,0.67424667,-0.90576047,-0.8516989,-2.0373883,-5.8225226,5.413047,5.747457,0,1683969592.4722457
-0.9963386,0.14891112,0.69534546,-0.90576047,-0.8516989,-2.0373883,-5.8225226,5.413047,5.747457,0,1683969592.4876618
-0.9963386,0.14891112,0.69534546,-0.90576047,-0.8516989,-2.0373883,-5.889743,5.2405524,5.83812,0,1683969592.4927962
-0.9963386,0.14891112,0.69534546,-0.86849767,-0.91232723,-1.9063578,-5.889743,5.2405524,5.83812,0,1683969592.5184886
-1.042378,0.14598413,0.7163833,-0.86849767,-0.91232723,-1.9063578,-5.889743,5.2405524,5.83812,0,1683969592.5236316
-1.042378,0.14598413,0.7163833,-0.86849767,-0.91232723,-1.9063578,-5.9440684,5.0763984,5.9274235,0,1683969592.5338676
-1.042378,0.14598413,0.7163833,-0.86849767,-0.91232723,-1.9063578,-5.984861,4.920227,6.0173826,0,1683969592.544143
-1.042378,0.14598413,0.7163833,-0.81046546,-1.0068586,-1.7261524,-5.984861,4.920227,6.0173826,0,1683969592.554428
-1.0941492,0.119946025,0.7771795,-0.81046546,-1.0068586,-1.7261524,-5.984861,4.920227,6.0173826,0,1683969592.5595706
-1.0941492,0.119946025,0.7771795,-0.81046546,-1.0068586,-1.7261524,-6.011214,4.773248,6.108807,0,1683969592.5906472
-1.1165895,0.11043327,0.8322436,-0.81046546,-1.0068586,-1.7261524,-6.011214,4.773248,6.108807,0,1683969592.6009219
-1.1165895,0.11043327,0.8322436,-0.72082096,-1.094976,-1.5227343,-6.011214,4.773248,6.108807,0,1683969592.6111617
-1.1165895,0.11043327,0.8322436,-0.6579019,-1.127199,-1.4051428,-6.011214,4.773248,6.108807,0,1683969592.6163046
-1.1304928,0.115555525,0.91590714,-0.6579019,-1.127199,-1.4051428,-6.011214,4.773248,6.108807,0,1683969592.631665
-1.1304928,0.115555525,0.91590714,0.45005497,1.5456418,4.141514,-6.011214,4.773248,6.108807,0,1683969592.6368048
0.041221917,0.43008605,0.26092985,0.45005497,1.5456418,4.141514,-6.011214,4.773248,6.108807,0,1683969592.6470835
0.041221917,0.43008605,0.26092985,0.45005497,1.5456418,4.141514,-1.1656165,8.7404,4.2991676,0,1683969592.6675787
0.041221917,0.43008605,0.26092985,0.27152961,1.5703819,4.223217,-1.1656165,8.7404,4.2991676,0,1683969592.677808
0.113116354,0.44472107,0.24672171,0.27152961,1.5703819,4.223217,-1.1656165,8.7404,4.2991676,0,1683969592.688087
0.113116354,0.44472107,0.24672171,0.27152961,1.5703819,4.223217,-0.88919634,8.795635,4.252322,0,1683969592.6983576
0.113116354,0.44472107,0.24672171,0.27152961,1.5703819,4.223217,-0.45948008,8.849884,4.207677,0,1683969592.7137396
0.113116354,0.44472107,0.24672171,0.17272215,1.5289958,4.2021422,-0.45948008,8.849884,4.207677,0,1683969592.7188349
0.20092636,0.5102737,0.2403189,0.17272215,1.5289958,4.2021422,-0.45948008,8.849884,4.207677,0,1683969592.7239842
0.2953831,0.5850951,0.26099083,0.17272215,1.5289958,4.2021422,-0.45948008,8.849884,4.207677,0,1683969592.7546837
0.2953831,0.5850951,0.26099083,0.14492778,1.3944527,4.0927973,-0.45948008,8.849884,4.207677,0,1683969592.7648766
0.2953831,0.5850951,0.26099083,0.14492778,1.3944527,4.0927973,-0.1694757,8.868363,4.19041,0,1683969592.7751524
0.39002275,0.6640022,0.31123766,0.14492778,1.3944527,4.0927973,-0.1694757,8.868363,4.19041,0,1683969592.7905593
0.39002275,0.6640022,0.31123766,0.14492778,1.3944527,4.0927973,0.11656045,8.875628,4.176812,0,1683969592.8059692
0.39002275,0.6640022,0.31123766,0.23655757,1.12781,3.8434114,0.11656045,8.875628,4.176812,0,1683969592.8111184
0.39002275,0.6640022,0.31123766,0.37950003,0.9106474,3.5999815,0.11656045,8.875628,4.176812,0,1683969592.8265164
0.39002275,0.6640022,0.31123766,0.37950003,0.9106474,3.5999815,0.39475197,8.875846,4.159284,0,1683969592.8316538
0.43264723,0.70150435,0.34575188,0.37950003,0.9106474,3.5999815,0.39475197,8.875846,4.159284,0,1683969592.8367965
0.42392716,0.69857734,0.33941004,0.37950003,0.9106474,3.5999815,0.39475197,8.875846,4.159284,0,1683969592.8572643
0.42392716,0.69857734,0.33941004,0.37950003,0.9106474,3.5999815,0.6608392,8.872701,4.132141,0,1683969592.8725924
0.42392716,0.69857734,0.33941004,0.48716503,0.7622071,3.4220672,0.6608392,8.872701,4.132141,0,1683969592.877729
0.42392716,0.69857734,0.33941004,0.48716503,0.7622071,3.4220672,0.9166999,8.867139,4.0950713,0,1683969592.8931394
0.42392716,0.69857734,0.33941004,0.592692,0.5645922,3.2333097,0.9166999,8.867139,4.0950713,0,1683969592.903378
0.42392716,0.69857734,0.33941004,-0.010231993,0.16035213,-2.1138992,0.9166999,8.867139,4.0950713,0,1683969592.9187791
1.0868926,1.156165,0.3284948,-0.010231993,0.16035213,-2.1138992,0.9166999,8.867139,4.0950713,0,1683969592.9290574
1.0868926,1.156165,0.3284948,-0.010231993,0.16035213,-2.1138992,3.6720135,8.252583,3.8271809,0,1683969592.9341948
1.0868926,1.156165,0.3284948,-0.010231993,0.16035213,-2.1138992,3.4285965,8.353879,3.8332176,0,1683969592.9598224
1.0868926,1.156165,0.3284948,-0.09407325,0.18936823,-2.3866506,3.4285965,8.353879,3.8332176,0,1683969592.96494
1.0006073,1.0996983,0.31892106,-0.09407325,0.18936823,-2.3866506,3.4285965,8.353879,3.8332176,0,1683969592.975188
0.94218916,1.0748188,0.30367625,-0.09407325,0.18936823,-2.3866506,3.4285965,8.353879,3.8332176,0,1683969592.9803243
0.94218916,1.0748188,0.30367625,-0.12034045,0.1330159,-2.5975518,3.4285965,8.353879,3.8332176,0,1683969592.9854708
0.94218916,1.0748188,0.30367625,-0.12034045,0.1330159,-2.5975518,3.2439628,8.423065,3.8424976,0,1683969593.0060186
0.91590714,1.0689038,0.29818815,-0.12034045,0.1330159,-2.5975518,3.2439628,8.423065,3.8424976,0,1683969593.036794
0.91590714,1.0689038,0.29818815,-0.12034045,0.1330159,-2.5975518,3.0443351,8.493954,3.8497934,0,1683969593.041931
0.91590714,1.0689038,0.29818815,-0.10308351,0.0070249503,-2.8286116,3.0443351,8.493954,3.8497934,0,1683969593.0470717
0.8867591,1.0513418,0.28208962,-0.10308351,0.0070249503,-2.8286116,3.0443351,8.493954,3.8497934,0,1683969593.0522156
0.8867591,1.0513418,0.28208962,-0.031612277,-0.23441954,-3.1748195,3.0443351,8.493954,3.8497934,0,1683969593.0778973
0.8867591,1.0513418,0.28208962,-0.031612277,-0.23441954,-3.1748195,2.8296385,8.5674515,3.8507197,0,1683969593.0830295
0.8867591,1.0513418,0.28208962,-0.031612277,-0.23441954,-3.1748195,2.597853,8.644238,3.8424504,0,1683969593.1087143
0.875234,1.0253648,0.32325056,-0.031612277,-0.23441954,-3.1748195,2.597853,8.644238,3.8424504,0,1683969593.1138487
0.875234,1.0253648,0.32325056,0.061086524,-0.4868596,-3.5585954,2.597853,8.644238,3.8424504,0,1683969593.1189775
0.875234,1.0253648,0.32325056,0.061086524,-0.4868596,-3.5585954,2.214124,8.7623205,3.815167,0,1683969593.1241229
0.82620674,0.9320055,0.36099666,0.061086524,-0.4868596,-3.5585954,2.214124,8.7623205,3.815167,0,1683969593.1343713
0.82620674,0.9320055,0.36099666,0.10903945,-0.54290646,-3.84952,2.214124,8.7623205,3.815167,0,1683969593.144658
0.82620674,0.9320055,0.36099666,0.10903945,-0.54290646,-3.84952,2.0747283,8.800837,3.8048518,0,1683969593.1600668
0.7798626,0.87718534,0.3637407,0.10903945,-0.54290646,-3.84952,2.0747283,8.800837,3.8048518,0,1683969593.1702955
0.7798626,0.87718534,0.3637407,0.07269296,-0.47800204,-4.106236,2.0747283,8.800837,3.8048518,0,1683969593.185641
-0.523872,0.075126335,0.3403857,0.07269296,-0.47800204,-4.106236,2.0747283,8.800837,3.8048518,0,1683969593.1907792
-0.523872,0.075126335,0.3403857,-1.0877982,-0.8162687,-3.5414913,2.0747283,8.800837,3.8048518,0,1683969593.1959348
-0.5793021,0.07683375,0.3144086,-1.0877982,-0.8162687,-3.5414913,2.0747283,8.800837,3.8048518,0,1683969593.216384
-0.5793021,0.07683375,0.3144086,-1.2163854,-0.70341134,-3.323107,2.0747283,8.800837,3.8048518,0,1683969593.2215285
-0.5793021,0.07683375,0.3144086,-1.2163854,-0.70341134,-3.323107,-5.30488,6.4229293,5.180768,0,1683969593.2317662
-0.6360737,0.046283185,0.33642206,-1.2163854,-0.70341134,-3.323107,-5.30488,6.4229293,5.180768,0,1683969593.236908
-0.6360737,0.046283185,0.33642206,-1.2163854,-0.70341134,-3.323107,-5.471832,6.1924486,5.286658,0,1683969593.252282
-0.6360737,0.046283185,0.33642206,-1.3347405,-0.6409504,-3.121674,-5.471832,6.1924486,5.286658,0,1683969593.2676826
-0.6360737,0.046283185,0.33642206,-1.3483323,-0.6918049,-2.9116893,-5.471832,6.1924486,5.286658,0,1683969593.2882729
-0.6360737,0.046283185,0.33642206,-1.3483323,-0.6918049,-2.9116893,-5.549838,6.076007,5.340182,0,1683969593.2934108
-0.6588799,0.042502478,0.37410718,-1.3483323,-0.6918049,-2.9116893,-5.549838,6.076007,5.340182,0,1683969593.2985518
-0.6588799,0.042502478,0.37410718,-1.3483323,-0.6918049,-2.9116893,-5.8150463,5.6170588,5.556079,0,1683969593.3242035
-0.7086389,0.049332146,0.4265493,-1.3483323,-0.6918049,-2.9116893,-5.8150463,5.6170588,5.556079,0,1683969593.329341
-0.7086389,0.049332146,0.4265493,-1.2826643,-0.7852673,-2.7766879,-5.8150463,5.6170588,5.556079,0,1683969593.3396165
-0.7086389,0.049332146,0.4265493,-1.1675162,-0.95203346,-2.6543622,-5.8150463,5.6170588,5.556079,0,1683969593.344751
-0.7086389,0.049332146,0.4265493,-1.1675162,-0.95203346,-2.6543622,-5.9187665,5.3967896,5.663831,0,1683969593.3601124
-0.7537635,0.02853825,0.45008725,-1.1675162,-0.95203346,-2.6543622,-5.9187665,5.3967896,5.663831,0,1683969593.3652635
-0.8090716,0.024574606,0.4642954,-1.1675162,-0.95203346,-2.6543622,-5.9187665,5.3967896,5.663831,0,1683969593.3806782
-0.8090716,0.024574606,0.4642954,-1.1675162,-0.95203346,-2.6543622,-6.000328,5.1862273,5.773667,0,1683969593.3960712
-0.8090716,0.024574606,0.4642954,-1.039998,-1.1702651,-2.5050056,-6.000328,5.1862273,5.773667,0,1683969593.4063432
-0.8734656,0.042014647,0.5127738,-1.039998,-1.1702651,-2.5050056,-6.000328,5.1862273,5.773667,0,1683969593.416611
-0.8734656,0.042014647,0.5127738,-0.9210321,-1.4459181,-2.3102922,-6.000328,5.1862273,5.773667,0,1683969593.431988
-0.8734656,0.042014647,0.5127738,-0.9210321,-1.4459181,-2.3102922,-6.0567513,4.987991,5.8882775,0,1683969593.4422674
-0.8734656,0.042014647,0.5127738,-0.9210321,-1.4459181,-2.3102922,-6.088393,4.801762,6.009215,0,1683969593.4525435
-0.8734656,0.042014647,0.5127738,-0.86361074,-1.6253597,-2.1517727,-6.088393,4.801762,6.009215,0,1683969593.4576814
-1.1306148,-0.049027253,1.1279926,-0.86361074,-1.6253597,-2.1517727,-6.088393,4.801762,6.009215,0,1683969593.46282
-1.1306148,-0.049027253,1.1279926,-0.86361074,-1.6253597,-2.1517727,-5.6528664,3.694347,7.1156883,0,1683969593.4679947
-1.1306148,-0.049027253,1.1279926,-0.86361074,-1.6253597,-2.1517727,-5.626193,3.847071,7.055644,0,1683969593.4833148
-1.074087,-0.017866896,1.0255476,-0.86361074,-1.6253597,-2.1517727,-5.626193,3.847071,7.055644,0,1683969593.493565
-1.074087,-0.017866896,1.0255476,1.3752104,0.3303254,1.743104,-5.626193,3.847071,7.055644,0,1683969593.4986765
-1.074087,-0.017866896,1.0255476,1.5575536,0.24923302,1.9860756,-5.626193,3.847071,7.055644,0,1683969593.524312
-1.0078636,0.019147458,0.92413926,1.5575536,0.24923302,1.9860756,-5.626193,3.847071,7.055644,0,1683969593.529459
-1.0078636,0.019147458,0.92413926,1.5575536,0.24923302,1.9860756,-5.586852,4.020786,6.9897413,0,1683969593.5448341
-0.9614585,0.034514207,0.86529446,1.5575536,0.24923302,1.9860756,-5.586852,4.020786,6.9897413,0,1683969593.5551057
-0.9614585,0.034514207,0.86529446,1.6804903,0.17348573,2.1604776,-5.586852,4.020786,6.9897413,0,1683969593.5602374
-0.9614585,0.034514207,0.86529446,1.6804903,0.17348573,2.1604776,-5.53332,4.2113776,6.919739,0,1683969593.5860496
-0.9082847,0.04896627,0.8147426,1.826029,0.10934488,2.3921483,-5.53332,4.2113776,6.919739,0,1683969593.591275
-0.9082847,0.04896627,0.8147426,1.9077321,0.10094548,2.6036603,-5.334544,4.7486186,6.725279,0,1683969593.5964615
-0.8962718,0.046405144,0.7770575,1.9077321,0.10094548,2.6036603,-5.334544,4.7486186,6.725279,0,1683969593.5964735
-0.8962718,0.046405144,0.7770575,1.9077321,0.10094548,2.6036603,-5.2298236,4.9840345,6.6365995,0,1683969593.6234193
-0.8597453,0.035733793,0.73803085,1.9077321,0.10094548,2.6036603,-5.2298236,4.9840345,6.6365995,0,1683969593.6336148
-0.8597453,0.035733793,0.73803085,1.9631681,0.12461651,2.8747318,-5.2298236,4.9840345,6.6365995,0,1683969593.6387565
-0.8597453,0.035733793,0.73803085,1.9631681,0.12461651,2.8747318,-5.1712093,5.1063232,6.589397,0,1683969593.6592646
-0.8597453,0.035733793,0.73803085,1.9874501,0.1910481,3.1710014,-5.1712093,5.1063232,6.589397,0,1683969593.6644056
-0.8120596,0.046832,0.6976017,1.9874501,0.1910481,3.1710014,-5.1712093,5.1063232,6.589397,0,1683969593.669507
0.4927117,0.693699,0.2909316,1.9874501,0.1910481,3.1710014,-5.1712093,5.1063232,6.589397,0,1683969593.7054064
0.4927117,0.693699,0.2909316,-0.31490102,1.2586879,2.9770517,-5.1712093,5.1063232,6.589397,0,1683969593.710546
0.4927117,0.693699,0.2909316,-0.31490102,1.2586879,2.9770517,1.6142786,8.809372,4.0031457,0,1683969593.7156928
0.5332019,0.7315061,0.2886144,-0.31490102,1.2586879,2.9770517,1.6142786,8.809372,4.0031457,0,1683969593.7362418
0.5332019,0.7315061,0.2886144,-0.31490102,1.2586879,2.9770517,1.8150489,8.752589,4.041523,0,1683969593.7413793
0.5332019,0.7315061,0.2886144,-0.19593503,1.023352,2.8252518,1.8150489,8.752589,4.041523,0,1683969593.74652
0.5742408,0.79742455,0.27318668,-0.19593503,1.023352,2.8252518,1.8150489,8.752589,4.041523,0,1683969593.761927
0.5742408,0.79742455,0.27318668,-0.19593503,1.023352,2.8252518,2.0108333,8.697426,4.0678554,0,1683969593.7722132
0.5742408,0.79742455,0.27318668,-0.07376198,0.70188415,2.6395488,2.0108333,8.697426,4.0678554,0,1683969593.7773561
0.5742408,0.79742455,0.27318668,-0.048563786,0.37980548,2.4668267,2.0108333,8.697426,4.0678554,0,1683969593.792757
0.5742408,0.79742455,0.27318668,-0.048563786,0.37980548,2.4668267,2.2963371,8.616946,4.0879335,0,1683969593.8081214
0.5749116,0.8161452,0.24702659,-0.048563786,0.37980548,2.4668267,2.2963371,8.616946,4.0879335,0,1683969593.818393
0.5749116,0.8161452,0.24702659,-0.09285152,0.25045475,2.434298,2.2963371,8.616946,4.0879335,0,1683969593.828636
0.58844894,0.8094985,0.26403978,-0.09285152,0.25045475,2.434298,2.2963371,8.616946,4.0879335,0,1683969593.8389146
0.58844894,0.8094985,0.26403978,-0.09285152,0.25045475,2.434298,2.4844153,8.560525,4.0964866,0,1683969593.8440473
0.58844894,0.8094985,0.26403978,-0.09285152,0.25045475,2.434298,2.6725879,8.498439,4.1073027,0,1683969593.8697324
0.6295489,0.8479763,0.3029445,-0.09285152,0.25045475,2.434298,2.6725879,8.498439,4.1073027,0,1683969593.8800116
0.6295489,0.8479763,0.3029445,-0.16310102,0.14294247,2.3965771,2.6725879,8.498439,4.1073027,0,1683969593.8902805
0.6295489,0.8479763,0.3029445,-0.16310102,0.14294247,2.3965771,2.766312,8.465104,4.1140785,0,1683969593.9159527
0.6295489,0.8479763,0.3029445,-0.21991149,0.09437868,2.3367124,2.766312,8.465104,4.1140785,0,1683969593.9210823
0.6784542,0.8831613,0.3471544,-0.21991149,0.09437868,2.3367124,2.766312,8.465104,4.1140785,0,1683969593.9313178
0.7743745,0.9596901,0.42112213,-0.21991149,0.09437868,2.3367124,2.766312,8.465104,4.1140785,0,1683969593.946722
0.7743745,0.9596901,0.42112213,0.10048734,0.24251351,-0.8181013,2.766312,8.465104,4.1140785,0,1683969593.9723234
0.7743745,0.9596901,0.42112213,0.10048734,0.24251351,-0.8181013,4.3199387,7.9142694,3.8650486,0,1683969593.9774551
1.3325777,1.3533107,0.22239104,0.10048734,0.24251351,-0.8181013,4.3199387,7.9142694,3.8650486,0,1683969593.9825997
1.3325777,1.3533107,0.22239104,-0.050396383,0.2658791,-1.1400273,4.3199387,7.9142694,3.8650486,0,1683969594.0082867
1.25861,1.291112,0.21050009,-0.050396383,0.2658791,-1.1400273,4.3199387,7.9142694,3.8650486,0,1683969594.0134242
1.25861,1.291112,0.21050009,-0.050396383,0.2658791,-1.1400273,4.2516384,7.9511127,3.865163,0,1683969594.0185614
1.25861,1.291112,0.21050009,-0.050396383,0.2658791,-1.1400273,4.16062,7.994303,3.875107,0,1683969594.0339699
1.1512867,1.1877522,0.2154394,-0.050396383,0.2658791,-1.1400273,4.16062,7.994303,3.875107,0,1683969594.039111
1.1512867,1.1877522,0.2154394,-0.17119499,0.22174409,-1.4796684,4.16062,7.994303,3.875107,0,1683969594.0596495
1.1512867,1.1877522,0.2154394,-0.17119499,0.22174409,-1.4796684,4.0522676,8.042759,3.889637,0,1683969594.0801625
1.1512867,1.1877522,0.2154394,-0.20830505,0.13469578,-1.6904168,4.0522676,8.042759,3.889637,0,1683969594.0852633
1.0760384,1.1160408,0.23556253,-0.20830505,0.13469578,-1.6904168,4.0522676,8.042759,3.889637,0,1683969594.0955336
1.0760384,1.1160408,0.23556253,-0.20066923,-0.02076942,-1.9141463,4.0522676,8.042759,3.889637,0,1683969594.105816
1.0760384,1.1160408,0.23556253,-0.20066923,-0.02076942,-1.9141463,3.8660867,8.124418,3.9093874,0,1683969594.116089
0.9940214,1.0525004,0.24635585,-0.20066923,-0.02076942,-1.9141463,3.8660867,8.124418,3.9093874,0,1683969594.1212265
0.9940214,1.0525004,0.24635585,-0.20066923,-0.02076942,-1.9141463,3.7308912,8.184311,3.9158158,0,1683969594.1366336
0.93932307,1.0131688,0.24952675,-0.20066923,-0.02076942,-1.9141463,3.7308912,8.184311,3.9158158,0,1683969594.1469078
0.93932307,1.0131688,0.24952675,-0.16920967,-0.172264,-2.0790799,3.7308912,8.184311,3.9158158,0,1683969594.1571808
0.93932307,1.0131688,0.24952675,-0.16920967,-0.172264,-2.0790799,3.6605139,8.215769,3.9163625,0,1683969594.1777093
0.93932307,1.0131688,0.24952675,-0.14676037,-0.29153544,-2.1992676,3.6605139,8.215769,3.9163625,0,1683969594.182847
0.9090774,0.98932606,0.25184396,-0.14676037,-0.29153544,-2.1992676,3.6605139,8.215769,3.9163625,0,1683969594.1931727
0.87779516,0.9786547,0.25605154,-0.14676037,-0.29153544,-2.1992676,3.6605139,8.215769,3.9163625,0,1683969594.2240689
0.87779516,0.9786547,0.25605154,-0.11575896,-0.4775439,-2.417652,3.6605139,8.215769,3.9163625,0,1683969594.2292116
0.87779516,0.9786547,0.25605154,-0.11575896,-0.4775439,-2.417652,3.4375849,8.315448,3.9079988,0,1683969594.2394857
0.87779516,0.9786547,0.25605154,-0.11575896,-0.4775439,-2.417652,-1.4413735,8.397178,4.862713,0,1683969594.249774
-0.012805625,0.36404565,0.36392367,-0.11575896,-0.4775439,-2.417652,-1.4413735,8.397178,4.862713,0,1683969594.2549107
-0.012805625,0.36404565,0.36392367,-1.0384709,-0.80756384,-3.901138,-1.4413735,8.397178,4.862713,0,1683969594.2754478
-0.012805625,0.36404565,0.36392367,-0.9691377,-0.9505063,-3.8927388,-1.4413735,8.397178,4.862713,0,1683969594.2908678
-0.06774786,0.31520134,0.40148684,-0.9691377,-0.9505063,-3.8927388,-1.4413735,8.397178,4.862713,0,1683969594.2960117
-0.06774786,0.31520134,0.40148684,-0.9691377,-0.9505063,-3.8927388,-1.6968325,8.292291,4.9593124,0,1683969594.3062818
-0.15452121,0.24598998,0.45539245,-0.9691377,-0.9505063,-3.8927388,-1.6968325,8.292291,4.9593124,0,1683969594.3216467
-0.15452121,0.24598998,0.45539245,-0.8390234,-1.1491902,-3.7763689,-1.6968325,8.292291,4.9593124,0,1683969594.3267882
-0.15452121,0.24598998,0.45539245,-0.8390234,-1.1491902,-3.7763689,-1.941782,8.179827,5.0552964,0,1683969594.3370628
-0.15452121,0.24598998,0.45539245,-0.7498371,-1.2437216,-3.663206,-1.941782,8.179827,5.0552964,0,1683969594.357562
-0.15452121,0.24598998,0.45539245,-0.7498371,-1.2437216,-3.663206,-2.1692033,8.063405,5.1489973,0,1683969594.3627176
-0.19281614,0.2189152,0.4862479,-0.7498371,-1.2437216,-3.663206,-2.1692033,8.063405,5.1489973,0,1683969594.3831751
-0.25074634,0.18501079,0.5266771,-0.7498371,-1.2437216,-3.663206,-2.3757067,7.946908,5.238205,0,1683969594.3985643
-0.25074634,0.18501079,0.5266771,-0.5868888,-1.3483323,-3.4336736,-2.3757067,7.946908,5.238205,0,1683969594.40369
-0.3006273,0.18013246,0.5380192,-0.5868888,-1.3483323,-3.4336736,-2.3757067,7.946908,5.238205,0,1683969594.4293735
-0.3006273,0.18013246,0.5380192,-0.43692136,-1.3620768,-3.167947,-2.3757067,7.946908,5.238205,0,1683969594.4396422
-0.3006273,0.18013246,0.5380192,-0.43692136,-1.3620768,-3.167947,-2.561535,7.833373,5.320988,0,1683969594.444733
-0.3164819,0.23172083,0.500517,-0.43692136,-1.3620768,-3.167947,-2.561535,7.833373,5.320988,0,1683969594.4652781
-0.3164819,0.23172083,0.500517,-0.33108896,-1.3075571,-2.951701,-2.561535,7.833373,5.320988,0,1683969594.4704056
-0.3164819,0.23172083,0.500517,-0.33108896,-1.3075571,-2.951701,-2.8058336,7.6726046,5.4308887,0,1683969594.4755337
-0.3164819,0.23172083,0.500517,-0.32345316,-1.2702943,-2.8420506,-2.8058336,7.6726046,5.4308887,0,1683969594.4909492
-0.3164819,0.23172083,0.500517,-0.32345316,-1.2702943,-2.8420506,-2.95163,7.5715117,5.4951057,0,1683969594.5063612
-0.3164819,0.23172083,0.500517,0.65270954,0.57894754,0.55939984,-2.95163,7.5715117,5.4951057,0,1683969594.5114896
-0.8625504,0.19830425,1.3148328,0.65270954,0.57894754,0.55939984,-2.95163,7.5715117,5.4951057,0,1683969594.5269046
-0.8625504,0.19830425,1.3148328,0.7903069,0.7107417,0.72189003,-2.95163,7.5715117,5.4951057,0,1683969594.5320377
-0.8625504,0.19830425,1.3148328,0.7903069,0.7107417,0.72189003,-3.8242662,4.9710774,7.543175,0,1683969594.547433
-0.8625504,0.19830425,1.3148328,0.9245446,0.8032878,0.8856019,-3.8242662,4.9710774,7.543175,0,1683969594.562845
-0.8479763,0.18696213,1.2655616,0.9245446,0.8032878,0.8856019,-3.8242662,4.9710774,7.543175,0,1683969594.583337
-0.8479763,0.18696213,1.2655616,0.9245446,0.8032878,0.8856019,-3.8346767,5.00686,7.514168,0,1683969594.5884762
-0.8479763,0.15964346,1.2142782,0.9245446,0.8032878,0.8856019,-3.8346767,5.00686,7.514168,0,1683969594.5987532
-0.8479763,0.15964346,1.2142782,0.9245446,0.8032878,0.8856019,-3.8626432,5.1356797,7.412213,0,1683969594.6090846
-0.8479763,0.15964346,1.2142782,1.0697777,0.88499105,1.0641272,-3.8626432,5.1356797,7.412213,0,1683969594.619352
-0.8479763,0.15964346,1.2142782,1.0697777,0.88499105,1.0641272,-3.876507,5.241068,7.3307586,0,1683969594.639905
-0.8479763,0.15964346,1.2142782,1.2582297,0.9931142,1.3281738,-3.876507,5.241068,7.3307586,0,1683969594.6450453
-0.84096366,0.14391084,1.1431764,1.2582297,0.9931142,1.3281738,-3.876507,5.241068,7.3307586,0,1683969594.6501808
-0.84096366,0.14391084,1.1431764,1.2582297,0.9931142,1.3281738,-3.8843057,5.362528,7.2382026,0,1683969594.6758914
-0.8241334,0.11025034,1.0664037,1.2582297,0.9931142,1.3281738,-3.8843057,5.362528,7.2382026,0,1683969594.6809933
-0.8241334,0.11025034,1.0664037,1.3987287,1.0972667,1.6236799,-3.8843057,5.362528,7.2382026,0,1683969594.691193
-0.8241334,0.11025034,1.0664037,1.4694363,1.2302825,1.890628,-3.8809402,5.5705714,7.081183,0,1683969594.6963706
-0.80760807,0.08640748,1.0195717,1.4694363,1.2302825,1.890628,-3.8809402,5.5705714,7.081183,0,1683969594.706597
-0.7627884,0.088968605,0.9166998,1.4694363,1.2302825,1.890628,-3.8809402,5.5705714,7.081183,0,1683969594.7219923
-0.7627884,0.088968605,0.9166998,1.4694363,1.2302825,1.890628,-3.8687062,5.724049,6.9645166,0,1683969594.7425423
-0.7627884,0.088968605,0.9166998,1.5180001,1.5289958,2.5043948,-3.8687062,5.724049,6.9645166,0,1683969594.7528095
-0.7627884,0.088968605,0.9166998,1.5180001,1.5289958,2.5043948,-3.847126,5.88702,6.839497,0,1683969594.778492
0.34508112,0.5751555,0.16013129,1.5180001,1.5289958,2.5043948,-3.847126,5.88702,6.839497,0,1683969594.7990298
0.34508112,0.5751555,0.16013129,-0.29901853,1.9236146,2.8008173,-3.847126,5.88702,6.839497,0,1683969594.8144329
0.34508112,0.5751555,0.16013129,-0.29901853,1.9236146,2.8008173,1.4188149,8.795533,4.106298,0,1683969594.8195653
0.34508112,0.5751555,0.16013129,-0.43066,1.8461875,2.762638,1.4188149,8.795533,4.106298,0,1683969594.8246994
0.3509961,0.5630816,0.15726528,-0.43066,1.8461875,2.762638,1.4188149,8.795533,4.106298,0,1683969594.834972
0.3509961,0.5630816,0.15726528,-0.43066,1.8461875,2.762638,1.5793991,8.744798,4.1557364,0,1683969594.8452315
0.3509961,0.5630816,0.15726528,-0.43066,1.8461875,2.762638,1.7394055,8.686405,4.213897,0,1683969594.8708832
0.39099842,0.5864367,0.1589117,-0.43066,1.8461875,2.762638,1.7394055,8.686405,4.213897,0,1683969594.8760252
0.39099842,0.5864367,0.1589117,-0.4783075,1.6542231,2.7339275,1.7394055,8.686405,4.213897,0,1683969594.8811615
0.39099842,0.5864367,0.1589117,-0.4783075,1.6542231,2.7339275,1.9040184,8.623556,4.27143,0,1683969594.9068112
0.46210015,0.6485744,0.16592431,-0.4783075,1.6542231,2.7339275,1.9040184,8.623556,4.27143,0,1683969594.9119425
0.46210015,0.6485744,0.16592431,-0.4092797,1.2249376,2.6913195,1.9040184,8.623556,4.27143,0,1683969594.9273126
0.53558004,0.7315671,0.18403512,-0.4092797,1.2249376,2.6913195,1.9040184,8.623556,4.27143,0,1683969594.9478173
0.53558004,0.7315671,0.18403512,-0.24556783,0.77289724,2.6175575,1.9040184,8.623556,4.27143,0,1683969594.9529555
0.53558004,0.7315671,0.18403512,-0.24556783,0.77289724,2.6175575,2.0780058,8.559895,4.3181252,0,1683969594.9631433
0.58942467,0.799132,0.20739016,-0.24556783,0.77289724,2.6175575,2.0780058,8.559895,4.3181252,0,1683969594.9836495
0.58942467,0.799132,0.20739016,-0.24556783,0.77289724,2.6175575,2.2617662,8.499605,4.3447948,0,1683969594.9887896
0.58942467,0.799132,0.20739016,-0.06566802,0.30375275,2.5072963,2.2617662,8.499605,4.3447948,0,1683969594.9938874
0.6442449,0.8613307,0.237087,-0.06566802,0.30375275,2.5072963,2.2617662,8.499605,4.3447948,0,1683969595.0041895
0.6442449,0.8613307,0.237087,0.06047566,-0.0888809,2.3489296,2.2617662,8.499605,4.3447948,0,1683969595.0144317
0.6442449,0.8613307,0.237087,0.06047566,-0.0888809,2.3489296,2.4521642,8.444072,4.3497877,0,1683969595.02469
0.68583274,0.8979183,0.28178474,0.06047566,-0.0888809,2.3489296,2.4521642,8.444072,4.3497877,0,1683969595.0606537
0.6712587,0.8615746,0.27843088,0.06047566,-0.0888809,2.3489296,2.4521642,8.444072,4.3497877,0,1683969595.081197
0.6712587,0.8615746,0.27843088,0.06047566,-0.0888809,2.3489296,2.6180322,8.436766,4.2664976,0,1683969595.0863366
0.6712587,0.8615746,0.27843088,-0.08002335,-0.40469822,-2.65818,2.6180322,8.436766,4.2664976,0,1683969595.0914621
0.6419887,0.82565796,0.28123593,-0.08002335,-0.40469822,-2.65818,2.6180322,8.436766,4.2664976,0,1683969595.1119857
0.6419887,0.82565796,0.28123593,-0.12935072,-0.52732944,-2.8347201,2.6180322,8.436766,4.2664976,0,1683969595.11712
0.6419887,0.82565796,0.28123593,-0.12935072,-0.52732944,-2.8347201,2.3453083,8.521475,4.2567716,0,1683969595.1273472
0.6179629,0.8058397,0.29422447,-0.12935072,-0.52732944,-2.8347201,2.3453083,8.521475,4.2567716,0,1683969595.1376214
0.6179629,0.8058397,0.29422447,-0.15195273,-0.63621616,-3.0039299,2.3453083,8.521475,4.2567716,0,1683969595.1530273
0.6179629,0.8058397,0.29422447,-0.15195273,-0.63621616,-3.0039299,2.1527936,8.574161,4.2526894,0,1683969595.1581671
0.6179629,0.8058397,0.29422447,-0.18280143,-0.71944654,-3.2172744,2.1527936,8.574161,4.2526894,0,1683969595.1940389
0.5799119,0.781509,0.29459035,-0.18280143,-0.71944654,-3.2172744,2.1527936,8.574161,4.2526894,0,1683969595.1991992
0.5799119,0.781509,0.29459035,-0.18280143,-0.71944654,-3.2172744,2.0523312,8.599546,4.251101,0,1683969595.2043147
0.5497882,0.7431531,0.28532153,-0.18280143,-0.71944654,-3.2172744,2.0523312,8.599546,4.251101,0,1683969595.2300918
0.5497882,0.7431531,0.28532153,-0.22525656,-0.77091193,-3.3904548,2.0523312,8.599546,4.251101,0,1683969595.2403374
0.5366167,0.7319939,0.28623623,-0.22525656,-0.77091193,-3.3904548,2.0523312,8.599546,4.251101,0,1683969595.2454739
0.5366167,0.7319939,0.28623623,-0.28389964,-0.77946407,-3.5737145,2.0523312,8.599546,4.251101,0,1683969595.2659547
0.5366167,0.7319939,0.28623623,-0.28389964,-0.77946407,-3.5737145,1.6217229,8.690908,4.2513795,0,1683969595.276233
0.5366167,0.7319939,0.28623623,-0.3866777,-0.7344127,-3.7818668,1.6217229,8.690908,4.2513795,0,1683969595.2916613
0.46027076,0.68186903,0.25977126,-0.3866777,-0.7344127,-3.7818668,1.6217229,8.690908,4.2513795,0,1683969595.2968032
0.46027076,0.68186903,0.25977126,-0.3866777,-0.7344127,-3.7818668,1.262625,8.743356,4.265633,0,1683969595.301937
0.436184,0.6579652,0.2306232,-0.3866777,-0.7344127,-3.7818668,1.262625,8.743356,4.265633,0,1683969595.3224816
0.436184,0.6579652,0.2306232,-0.5019785,-0.6930266,-3.9596286,1.262625,8.743356,4.265633,0,1683969595.32758
0.436184,0.6579652,0.2306232,-0.5019785,-0.6930266,-3.9596286,0.8691106,8.775049,4.2987537,0,1683969595.3378575
0.436184,0.6579652,0.2306232,-0.5019785,-0.6930266,-3.9596286,-3.8839436,5.550128,7.0955744,0,1683969595.342991
-0.8212065,0.12549512,1.0058514,-0.5019785,-0.6930266,-3.9596286,-3.8839436,5.550128,7.0955744,0,1683969595.3635297
-0.8212065,0.12549512,1.0058514,-1.4430164,-1.5289958,-2.4019222,-3.8839436,5.550128,7.0955744,0,1683969595.3686633
-0.8212065,0.12549512,1.0058514,-1.4430164,-1.5289958,-2.4019222,-3.917564,5.349347,7.2300277,0,1683969595.378932
-0.8918203,0.090371124,1.0999422,-1.4430164,-1.5289958,-2.4019222,-3.917564,5.349347,7.2300277,0,1683969595.3942935
-0.8918203,0.090371124,1.0999422,-1.3066407,-1.4834863,-2.0231857,-3.917564,5.349347,7.2300277,0,1683969595.4045587
-0.8918203,0.090371124,1.0999422,-1.3066407,-1.4834863,-2.0231857,-3.9373386,5.0709724,7.415539,0,1683969595.4148395
-0.9031625,0.09061504,1.1749467,-1.3066407,-1.4834863,-2.0231857,-3.9344525,4.9064555,7.528804,0,1683969595.4251313
-0.9031625,0.09061504,1.1749467,-1.1928672,-1.4665347,-1.7017179,-3.9344525,4.9064555,7.528804,0,1683969595.4302843
-0.87962455,0.108055085,1.2742816,-1.1928672,-1.4665347,-1.7017179,-3.9344525,4.9064555,7.528804,0,1683969595.4661334
-0.87962455,0.108055085,1.2742816,-1.1928672,-1.4665347,-1.7017179,-3.9103653,4.7597566,7.6347804,0,1683969595.4712315
-0.87962455,0.108055085,1.2742816,-1.0774136,-1.4509577,-1.430341,-3.9103653,4.7597566,7.6347804,0,1683969595.476371
-0.87962455,0.108055085,1.2742816,-1.0774136,-1.4509577,-1.430341,-3.8725536,4.6306677,7.7328105,0,1683969595.4969153
-0.82486516,0.13305654,1.4270955,-1.0774136,-1.4509577,-1.430341,-3.8725536,4.6306677,7.7328105,0,1683969595.502052
-0.82486516,0.13305654,1.4270955,-0.87872964,-1.3932309,-1.1794281,-3.8725536,4.6306677,7.7328105,0,1683969595.5071893
-0.82486516,0.13305654,1.4270955,-0.87872964,-1.3932309,-1.1794281,-3.8264828,4.5197964,7.820843,0,1683969595.5276072
-0.7862044,0.14610608,1.528016,-0.87872964,-1.3932309,-1.1794281,-3.8264828,4.5197964,7.820843,0,1683969595.5430112
-0.7862044,0.14610608,1.528016,-0.6730208,-1.311375,-1.0603093,-3.8264828,4.5197964,7.820843,0,1683969595.5481522
-0.7783381,0.14683785,1.5783848,-0.6730208,-1.311375,-1.0603093,-3.8264828,4.5197964,7.820843,0,1683969595.563563
-0.7783381,0.14683785,1.5783848,-0.4961753,-1.2336423,-0.9963212,-3.8264828,4.5197964,7.820843,0,1683969595.5738297
-0.7783381,0.14683785,1.5783848,-0.4961753,-1.2336423,-0.9963212,-3.7789485,4.4279737,7.8961196,0,1683969595.5789692
-0.7783381,0.14683785,1.5783848,-0.20280726,-1.0528263,-0.8929323,-3.7789485,4.4279737,7.8961196,0,1683969595.5943377
-0.7783381,0.14683785,1.5783848,-0.20280726,-1.0528263,-0.8929323,-3.7343197,4.3561735,7.9570546,0,1683969595.599462
-0.6265609,0.13915445,0.9149315,-0.20280726,-1.0528263,-0.8929323,-3.7343197,4.3561735,7.9570546,0,1683969595.6148717
-0.6265609,0.13915445,0.9149315,-0.20280726,-1.0528263,-0.8929323,-3.6772852,5.669273,7.111472,0,1683969595.6200113
-0.6265609,0.13915445,0.9149315,1.8614591,0.8000808,2.526844,-3.6772852,5.669273,7.111472,0,1683969595.630279
-0.57643604,0.1367153,0.8629772,1.8614591,0.8000808,2.526844,-3.6772852,5.669273,7.111472,0,1683969595.6508098
-0.57643604,0.1367153,0.8629772,2.0493002,0.8552113,2.7594311,-3.6772852,5.669273,7.111472,0,1683969595.6559439
-0.57643604,0.1367153,0.8629772,2.0493002,0.8552113,2.7594311,-3.5995371,5.867146,6.98971,0,1683969595.6610765
-0.526982,0.13512984,0.8012053,2.0493002,0.8552113,2.7594311,-3.5995371,5.867146,6.98971,0,1683969595.681575
-0.526982,0.13512984,0.8012053,2.0493002,0.8552113,2.7594311,-3.5093067,6.076139,6.855757,0,1683969595.6867228
-0.526982,0.13512984,0.8012053,2.1760547,0.93431836,2.9367347,-3.5093067,6.076139,6.855757,0,1683969595.697015
-0.4929556,0.1358006,0.7074803,2.1760547,0.93431836,2.9367347,-3.5093067,6.076139,6.855757,0,1683969595.7226229
-0.4929556,0.1358006,0.7074803,2.1760547,0.93431836,2.9367347,-3.4082105,6.292778,6.70978,0,1683969595.727745
-0.4929556,0.1358006,0.7074803,2.2466097,1.0225884,3.0989194,-3.4082105,6.292778,6.70978,0,1683969595.732915
-0.46972254,0.14031307,0.6199752,2.2466097,1.0225884,3.0989194,-3.4082105,6.292778,6.70978,0,1683969595.738043
-0.46972254,0.14031307,0.6199752,2.257758,1.0760391,3.2097914,-3.4082105,6.292778,6.70978,0,1683969595.748323
-0.46972254,0.14031307,0.6199752,2.257758,1.0760391,3.2097914,-3.2966065,6.513042,6.553532,0,1683969595.7534573
-0.46972254,0.14031307,0.6199752,2.173764,1.1508701,3.388164,-3.2966065,6.513042,6.553532,0,1683969595.7739353
-0.46972254,0.14031307,0.6199752,2.173764,1.1508701,3.388164,-3.174227,6.730651,6.392085,0,1683969595.7842069
-0.4555144,0.13452004,0.5014317,2.173764,1.1508701,3.388164,-3.174227,6.730651,6.392085,0,1683969595.789341
-0.4555144,0.13452004,0.5014317,2.173764,1.1508701,3.388164,-2.9699724,7.041552,6.150766,0,1683969595.8098266
-0.43850118,0.13031249,0.40081608,2.173764,1.1508701,3.388164,-2.9699724,7.041552,6.150766,0,1683969595.8200972
-0.43850118,0.13031249,0.40081608,1.9694295,1.2641857,3.5767686,-2.9699724,7.041552,6.150766,0,1683969595.8303583
-0.43850118,0.13031249,0.40081608,1.6843082,1.3487904,3.7797287,-2.9699724,7.041552,6.150766,0,1683969595.840618
-0.43850118,0.13031249,0.40081608,1.6843082,1.3487904,3.7797287,-2.8193924,7.2331886,5.9973426,0,1683969595.8611643
-0.43850118,0.13031249,0.40081608,1.6843082,1.3487904,3.7797287,3.651112,8.310059,3.7213478,0,1683969595.8662996
-0.43850118,0.13031249,0.40081608,1.6843082,1.3487904,3.7797287,3.752113,8.253957,3.7456605,0,1683969595.8919687
1.100735,1.0756115,0.15494807,1.6843082,1.3487904,3.7797287,3.752113,8.253957,3.7456605,0,1683969595.8970983
1.100735,1.0756115,0.15494807,-0.07345655,1.1337659,1.6383406,3.752113,8.253957,3.7456605,0,1683969595.9073255
1.100735,1.0756115,0.15494807,-0.07345655,1.1337659,1.6383406,3.8435104,8.193458,3.7856038,0,1683969595.927854
1.100735,1.0756115,0.15494807,-0.12568553,1.0161743,1.510517,3.8435104,8.193458,3.7856038,0,1683969595.9329906
1.205924,1.1683608,0.16982698,-0.12568553,1.0161743,1.510517,3.8435104,8.193458,3.7856038,0,1683969595.9431982
1.2983074,1.2466581,0.19873111,-0.12568553,1.0161743,1.510517,3.8435104,8.193458,3.7856038,0,1683969595.9637299
1.2983074,1.2466581,0.19873111,-0.12568553,1.0161743,1.510517,3.9295506,8.135465,3.8221684,0,1683969595.9739819
1.2983074,1.2466581,0.19873111,0.0035124752,0.7475463,1.325883,3.9295506,8.135465,3.8221684,0,1683969595.9791284
1.2983074,1.2466581,0.19873111,0.0035124752,0.7475463,1.325883,4.047245,8.06993,3.8382509,0,1683969595.9945056
1.384532,1.3277603,0.20629252,0.0035124752,0.7475463,1.325883,4.047245,8.06993,3.8382509,0,1683969596.009898
1.384532,1.3277603,0.20629252,0.27076602,0.33826664,1.0024298,4.047245,8.06993,3.8382509,0,1683969596.0149946
1.4186803,1.3660553,0.20153615,0.27076602,0.33826664,1.0024298,4.047245,8.06993,3.8382509,0,1683969596.025265
1.4186803,1.3660553,0.20153615,0.27076602,0.33826664,1.0024298,4.0821443,8.056275,3.829967,0,1683969596.0355062
1.4186803,1.3660553,0.20153615,0.42332962,0.112704635,0.7725918,4.0821443,8.056275,3.829967,0,1683969596.040646
1.4186803,1.3660553,0.20153615,0.5726862,-0.15668693,0.3587306,4.0821443,8.056275,3.829967,0,1683969596.0560021
1.4291078,1.4013013,0.17921777,0.5726862,-0.15668693,0.3587306,4.0821443,8.056275,3.829967,0,1683969596.061099
1.4291078,1.4013013,0.17921777,0.5726862,-0.15668693,0.3587306,4.1658835,8.041643,3.7700813,0,1683969596.0662322
1.4245343,1.4011183,0.14384985,0.5726862,-0.15668693,0.3587306,4.1658835,8.041643,3.7700813,0,1683969596.096974
1.4245343,1.4011183,0.14384985,0.5503896,-0.22708915,-0.035124753,4.1658835,8.041643,3.7700813,0,1683969596.1021104
1.4245343,1.4011183,0.14384985,0.5503896,-0.22708915,-0.035124753,4.198901,8.050534,3.714061,0,1683969596.1123188
1.4245343,1.4011183,0.14384985,0.5503896,-0.22708915,-0.035124753,4.210337,8.069672,3.659176,0,1683969596.122584
1.4245343,1.4011183,0.14384985,-0.9622655,-0.6704246,-3.248734,4.210337,8.069672,3.659176,0,1683969596.1379821
1.4245343,1.4011183,0.14384985,-0.98822725,-0.73731434,-3.3315063,4.210337,8.069672,3.659176,0,1683969596.1431217
1.4245343,1.4011183,0.14384985,-0.98822725,-0.73731434,-3.3315063,1.1315389,8.7710085,4.245603,0,1683969596.1585257
0.3404467,0.65601385,0.28532153,-0.98822725,-0.73731434,-3.3315063,1.1315389,8.7710085,4.245603,0,1683969596.1739283
0.3404467,0.65601385,0.28532153,-1.0231993,-0.8179486,-3.4874296,1.1315389,8.7710085,4.245603,0,1683969596.179069
0.33038515,0.6500989,0.26684484,-1.0231993,-0.8179486,-3.4874296,1.1315389,8.7710085,4.245603,0,1683969596.1995637
0.33038515,0.6500989,0.26684484,-1.0231993,-0.8179486,-3.4874296,0.7888087,8.756352,4.3520327,0,1683969596.209801
0.26678386,0.6004009,0.23562351,-1.0231993,-0.8179486,-3.4874296,0.7888087,8.756352,4.3520327,0,1683969596.225166
0.26678386,0.6004009,0.23562351,-1.0231993,-0.8179486,-3.4874296,0.55283934,8.737017,4.4266267,0,1683969596.2303114
0.26678386,0.6004009,0.23562351,-1.0926852,-0.88422745,-3.6509888,0.55283934,8.737017,4.4266267,0,1683969596.23541
0.20787798,0.5397266,0.22239104,-1.0926852,-0.88422745,-3.6509888,0.55283934,8.737017,4.4266267,0,1683969596.2610407
0.20787798,0.5397266,0.22239104,-1.188591,-0.92347556,-3.7368155,0.55283934,8.737017,4.4266267,0,1683969596.276418
0.20787798,0.5397266,0.22239104,-1.188591,-0.92347556,-3.7368155,0.18621336,8.689122,4.549789,0,1683969596.281591
0.17379062,0.50185853,0.22178122,-1.188591,-0.92347556,-3.7368155,0.18621336,8.689122,4.549789,0,1683969596.3021488
0.17379062,0.50185853,0.22178122,-1.188591,-0.92347556,-3.7368155,-0.062655844,8.640874,4.6440816,0,1683969596.3072517
0.17379062,0.50185853,0.22178122,-1.303281,-0.9294315,-3.8008037,-0.062655844,8.640874,4.6440816,0,1683969596.3175228
0.17379062,0.50185853,0.22178122,-1.4265231,-0.9184359,-3.8673878,-0.062655844,8.640874,4.6440816,0,1683969596.3380108
0.14366692,0.474174,0.2110489,-1.4265231,-0.9184359,-3.8673878,-0.062655844,8.640874,4.6440816,0,1683969596.3432248
0.14366692,0.474174,0.2110489,-1.4265231,-0.9184359,-3.8673878,-0.31404227,8.577843,4.749537,0,1683969596.3534906
0.14366692,0.474174,0.2110489,-1.572978,-0.9224065,-3.9548943,-0.31404227,8.577843,4.749537,0,1683969596.3740277
0.14366692,0.474174,0.2110489,-1.572978,-0.9224065,-3.9548943,-0.5684213,8.499489,4.8653574,0,1683969596.3791711
0.117811754,0.45764863,0.2061096,-1.572978,-0.9224065,-3.9548943,-0.5684213,8.499489,4.8653574,0,1683969596.3894029
0.117811754,0.45764863,0.2061096,-1.6823229,-0.9579894,-4.0419426,-0.5684213,8.499489,4.8653574,0,1683969596.3996806
0.117811754,0.45764863,0.2061096,-1.6823229,-0.9579894,-4.0419426,-0.6958596,8.454477,4.926835,0,1683969596.4048185
-0.75047064,0.044453815,1.2539147,-1.6823229,-0.9579894,-4.0419426,-0.6958596,8.454477,4.926835,0,1683969596.4202213
-0.75047064,0.044453815,1.2539147,-1.6823229,-0.9579894,-4.0419426,-3.1909988,4.272262,8.234161,0,1683969596.4253633
-0.75047064,0.044453815,1.2539147,-0.9796751,-1.8944459,-1.3654366,-3.1909988,4.272262,8.234161,0,1683969596.4304993
-0.75047064,0.044453815,1.2539147,-0.86086184,-1.918575,-1.1878275,-3.1909988,4.272262,8.234161,0,1683969596.4612184
-0.75047064,0.044453815,1.2539147,-0.86086184,-1.918575,-1.1878275,-3.1059072,4.1513333,8.328018,0,1683969596.47147
-0.7189444,0.066894144,1.2772697,-0.86086184,-1.918575,-1.1878275,-3.1059072,4.1513333,8.328018,0,1683969596.4766095
-0.7189444,0.066894144,1.2772697,-0.86086184,-1.918575,-1.1878275,-2.957401,3.9948301,8.457614,0,1683969596.492018
-0.6991871,0.06921136,1.361177,-0.86086184,-1.918575,-1.1878275,-2.957401,3.9948301,8.457614,0,1683969596.4971569
-0.6991871,0.06921136,1.361177,-0.77518797,-1.9098701,-1.0250319,-2.957401,3.9948301,8.457614,0,1683969596.512529
-0.6991871,0.06921136,1.361177,-0.77518797,-1.9098701,-1.0250319,-2.904537,3.9471636,8.498216,0,1683969596.5278711
-0.6991871,0.06921136,1.361177,-0.712727,-1.8695531,-0.8932377,-2.904537,3.9471636,8.498216,0,1683969596.5330067
-0.6932722,0.048661377,1.4125824,-0.712727,-1.8695531,-0.8932377,-2.904537,3.9471636,8.498216,0,1683969596.5381403
-0.70607775,0.008293167,1.4895991,-0.712727,-1.8695531,-0.8932377,-2.904537,3.9471636,8.498216,0,1683969596.5586417
-0.70607775,0.008293167,1.4895991,-0.6372852,-1.8044959,-0.72219545,-2.904537,3.9471636,8.498216,0,1683969596.5792024
-0.70607775,0.008293167,1.4895991,-0.6372852,-1.8044959,-0.72219545,-2.7959497,3.858348,8.575076,0,1683969596.5843391
-0.7407749,-0.017440042,1.6153382,-0.6372852,-1.8044959,-0.72219545,-2.7959497,3.858348,8.575076,0,1683969596.6048732
-0.7407749,-0.017440042,1.6153382,-0.5196936,-1.6701056,-0.5001459,-2.7959497,3.858348,8.575076,0,1683969596.6100032
-0.7407749,-0.017440042,1.6153382,-0.5196936,-1.6701056,-0.5001459,-2.6286733,3.7450223,8.677614,0,1683969596.6151462
-0.7461411,-0.018903542,1.7276617,-0.5196936,-1.6701056,-0.5001459,-2.6286733,3.7450223,8.677614,0,1683969596.6254225
-0.7461411,-0.018903542,1.7276617,-0.2835942,-1.3833044,-0.19165897,-2.6286733,3.7450223,8.677614,0,1683969596.63569
-0.7461411,-0.018903542,1.7276617,-0.2835942,-1.3833044,-0.19165897,-2.520315,3.689236,8.7334795,0,1683969596.6459582
-0.7388236,0.0069516255,1.7765671,-0.2835942,-1.3833044,-0.19165897,-2.520315,3.689236,8.7334795,0,1683969596.6664782
-0.7388236,0.0069516255,1.7765671,0.009315695,-0.9611965,0.11911872,-2.520315,3.689236,8.7334795,0,1683969596.6870165
-0.7388236,0.0069516255,1.7765671,0.009315695,-0.9611965,0.11911872,-1.3880881,7.606124,6.0378966,0,1683969596.6973133
-0.7388236,0.0069516255,1.7765671,2.3649647,1.7467692,3.4144313,-1.3880881,7.606124,6.0378966,0,1683969596.7024431
-0.0512225,0.27855286,0.30824968,2.3649647,1.7467692,3.4144313,-1.3880881,7.606124,6.0378966,0,1683969596.7127006
-0.030062728,0.28263843,0.22848894,2.3649647,1.7467692,3.4144313,-1.3880881,7.606124,6.0378966,0,1683969596.7383695
-0.030062728,0.28263843,0.22848894,2.3649647,1.7467692,3.4144313,-1.1627125,7.8492236,5.768352,0,1683969596.748615
-0.030062728,0.28263843,0.22848894,2.1444426,1.7345519,3.5816557,-1.1627125,7.8492236,5.768352,0,1683969596.7537432
-0.006890646,0.3084936,0.14671588,2.1444426,1.7345519,3.5816557,-1.1627125,7.8492236,5.768352,0,1683969596.7691524
-0.006890646,0.3084936,0.14671588,1.9613355,1.6293303,3.7103956,-1.1627125,7.8492236,5.768352,0,1683969596.7845538
-0.006890646,0.3084936,0.14671588,1.9613355,1.6293303,3.7103956,-0.98834026,7.993469,5.600336,0,1683969596.7947898
0.007622396,0.31898203,0.102688916,1.9613355,1.6293303,3.7103956,-0.98834026,7.993469,5.600336,0,1683969596.8050623
0.007622396,0.31898203,0.102688916,1.8168659,1.5106697,3.7992764,-0.98834026,7.993469,5.600336,0,1683969596.8203852
0.007622396,0.31898203,0.102688916,1.8168659,1.5106697,3.7992764,-0.8921343,8.060393,5.519987,0,1683969596.825509
0.0570765,0.35044727,0.07817529,1.545031,1.3101532,3.9072468,-0.8921343,8.060393,5.519987,0,1683969596.8460736
0.0570765,0.35044727,0.07817529,1.545031,1.3101532,3.9072468,-0.5680599,8.234286,5.3018837,0,1683969596.8563683
0.0570765,0.35044727,0.07817529,1.545031,1.3101532,3.9072468,-0.32625273,8.325277,5.178748,0,1683969596.8820472
0.0570765,0.35044727,0.07817529,1.2606732,1.1187997,3.8931968,-0.32625273,8.325277,5.178748,0,1683969596.8923173
0.1419595,0.4136217,0.075126335,1.2606732,1.1187997,3.8931968,-0.32625273,8.325277,5.178748,0,1683969596.8974564
0.20110929,0.47295445,0.11598238,1.2606732,1.1187997,3.8931968,-0.32625273,8.325277,5.178748,0,1683969596.91795
0.20110929,0.47295445,0.11598238,1.0209086,0.96684694,3.8095083,-0.32625273,8.325277,5.178748,0,1683969596.9282184
0.20110929,0.47295445,0.11598238,1.0209086,0.96684694,3.8095083,0.054613873,8.421993,5.0302243,0,1683969596.9333506
0.23336728,0.47710103,0.16507061,1.0209086,0.96684694,3.8095083,0.054613873,8.421993,5.0302243,0,1683969596.9538493
0.23336728,0.47710103,0.16507061,1.0209086,0.96684694,3.8095083,0.31307542,8.462522,4.9521546,0,1683969596.9641235
0.23336728,0.47710103,0.16507061,0.54443365,0.13897185,1.5575536,0.31307542,8.462522,4.9521546,0,1683969596.9692605
0.23336728,0.47710103,0.16507061,0.54443365,0.13897185,1.5575536,4.745737,7.714288,3.768802,0,1683969596.9744003
1.4055088,1.2306206,0.3436786,0.54443365,0.13897185,1.5575536,4.745737,7.714288,3.768802,0,1683969596.9846756
1.4055088,1.2306206,0.3436786,0.54443365,0.13897185,1.5575536,4.844246,7.6659064,3.7420943,0,1683969597.000095
1.4441696,1.2620858,0.32447016,0.54443365,0.13897185,1.5575536,4.844246,7.6659064,3.7420943,0,1683969597.0052204
1.4441696,1.2620858,0.32447016,0.30650163,0.59437186,1.1027645,4.844246,7.6659064,3.7420943,0,1683969597.0154495
1.4441696,1.2620858,0.32447016,0.11285736,0.91904676,0.70478576,4.844246,7.6659064,3.7420943,0,1683969597.0462918
1.4475844,1.249768,0.26879618,0.11285736,0.91904676,0.70478576,4.844246,7.6659064,3.7420943,0,1683969597.0514202
1.4475844,1.249768,0.26879618,0.11285736,0.91904676,0.70478576,4.923476,7.60945,3.7538998,0,1683969597.056554
1.4524018,1.2583052,0.22379355,0.11285736,0.91904676,0.70478576,4.923476,7.60945,3.7538998,0,1683969597.0668
1.4524018,1.2583052,0.22379355,0.041233405,0.9763154,0.42348233,4.923476,7.60945,3.7538998,0,1683969597.0770407
1.4524018,1.2583052,0.22379355,0.041233405,0.9763154,0.42348233,4.9404974,7.5832167,3.7844982,0,1683969597.082177
1.4524018,1.2583052,0.22379355,0.08032878,0.8156578,0.08170322,4.9404974,7.5832167,3.7844982,0,1683969597.1078103
1.4524018,1.2583052,0.22379355,0.08032878,0.8156578,0.08170322,4.9381375,7.568365,3.8171678,0,1683969597.1180823
1.4483773,1.264403,0.17629078,0.08032878,0.8156578,0.08170322,4.9381375,7.568365,3.8171678,0,1683969597.1231856
1.4502066,1.2647079,0.13805683,0.08032878,0.8156578,0.08170322,4.9381375,7.568365,3.8171678,0,1683969597.1436892
1.4502066,1.2647079,0.13805683,0.18570304,0.52931476,-0.17379116,4.9381375,7.568365,3.8171678,0,1683969597.1488264
1.4502066,1.2647079,0.13805683,0.18570304,0.52931476,-0.17379116,4.922642,7.5675564,3.8387225,0,1683969597.1539617
1.4366692,1.2752573,0.12104365,0.18570304,0.52931476,-0.17379116,4.922642,7.5675564,3.8387225,0,1683969597.18986
1.4366692,1.2752573,0.12104365,0.18570304,0.52931476,-0.17379116,4.899731,7.5820584,3.8394198,0,1683969597.1949925
1.4366692,1.2752573,0.12104365,0.3098614,0.17211129,-0.4335616,4.899731,7.5820584,3.8394198,0,1683969597.2052565
1.4133142,1.2838553,0.10970152,0.3098614,0.17211129,-0.4335616,4.899731,7.5820584,3.8394198,0,1683969597.2206883
1.4133142,1.2838553,0.10970152,0.4251622,-0.2322815,-0.7799222,4.899731,7.5820584,3.8394198,0,1683969597.2309604
1.4133142,1.2838553,0.10970152,0.4251622,-0.2322815,-0.7799222,4.8538575,7.633433,3.7956395,0,1683969597.2361004
1.4133142,1.2838553,0.10970152,0.4251622,-0.2322815,-0.7799222,0.07389887,8.8127365,4.3088655,0,1683969597.2515013
0.15824094,0.4399037,0.33806852,0.4251622,-0.2322815,-0.7799222,0.07389887,8.8127365,4.3088655,0,1683969597.256663
0.15824094,0.4399037,0.33806852,-1.0800097,-0.32253686,-4.119675,0.07389887,8.8127365,4.3088655,0,1683969597.2617986
0.10024975,0.39880377,0.3886812,-1.0800097,-0.32253686,-4.119675,0.07389887,8.8127365,4.3088655,0,1683969597.2772524
0.10024975,0.39880377,0.3886812,-1.0800097,-0.32253686,-4.119675,-0.23768231,8.764516,4.4003277,0,1683969597.2824082
0.10024975,0.39880377,0.3886812,-1.0239629,-0.26068676,-4.130518,-0.23768231,8.764516,4.4003277,0,1683969597.2875295
0.10024975,0.39880377,0.3886812,-1.0239629,-0.26068676,-4.130518,-0.3944684,8.736302,4.4449444,0,1683969597.3132327
0.043417167,0.36343583,0.41752437,-1.0239629,-0.26068676,-4.130518,-0.3944684,8.736302,4.4449444,0,1683969597.318364
0.043417167,0.36343583,0.41752437,-0.9370673,-0.26251933,-4.116621,-0.3944684,8.736302,4.4449444,0,1683969597.3337579
0.043417167,0.36343583,0.41752437,-0.7264715,-0.3390302,-4.034612,-0.3944684,8.736302,4.4449444,0,1683969597.3491642
-0.06823569,0.32556778,0.45911217,-0.7264715,-0.3390302,-4.034612,-0.3944684,8.736302,4.4449444,0,1683969597.3542986
-0.06823569,0.32556778,0.45911217,-0.7264715,-0.3390302,-4.034612,-0.8600655,8.6396265,4.566537,0,1683969597.3594694
-0.06823569,0.32556778,0.45911217,-0.49541172,-0.4361578,-3.8913643,-0.8600655,8.6396265,4.566537,0,1683969597.3697457
-0.06823569,0.32556778,0.45911217,-0.49541172,-0.4361578,-3.8913643,-1.1615901,8.568885,4.6326046,0,1683969597.3748796
-0.19793838,0.26763758,0.4488067,-0.49541172,-0.4361578,-3.8913643,-1.1615901,8.568885,4.6326046,0,1683969597.400544
-0.30635932,0.23470882,0.4027674,-0.49541172,-0.4361578,-3.8913643,-1.1615901,8.568885,4.6326046,0,1683969597.426236
-0.30635932,0.23470882,0.4027674,-0.32604933,-0.58108556,-3.6480873,-1.1615901,8.568885,4.6326046,0,1683969597.4313436
-0.30635932,0.23470882,0.4027674,-0.32604933,-0.58108556,-3.6480873,-1.450635,8.495586,4.685807,0,1683969597.4364836
-0.30635932,0.23470882,0.4027674,-0.26832256,-0.7124216,-3.4275649,-1.450635,8.495586,4.685807,0,1683969597.4518864
-0.36105764,0.23336728,0.34532502,-0.26832256,-0.7124216,-3.4275649,-1.450635,8.495586,4.685807,0,1683969597.4570217
-0.36105764,0.23336728,0.34532502,-0.26832256,-0.7124216,-3.4275649,-1.8480339,8.382674,4.748857,0,1683969597.4673157
-0.40898728,0.25428313,0.29361472,-0.26832256,-0.7124216,-3.4275649,-2.083688,8.3047905,4.7879853,0,1683969597.4724953
-0.40898728,0.25428313,0.29361472,-0.31474832,-0.8750645,-3.1635184,-2.083688,8.3047905,4.7879853,0,1683969597.4776335
-0.40898728,0.25428313,0.29361472,0.124005646,0.1797471,0.6133087,-2.083688,8.3047905,4.7879853,0,1683969597.4929876
-0.40898728,0.25428313,0.29361472,0.124005646,0.1797471,0.6133087,-4.1307597,5.672868,6.855036,0,1683969597.4981241
-1.0139616,0.21793956,1.2533658,0.124005646,0.1797471,0.6133087,-4.1307597,5.672868,6.855036,0,1683969597.508339
-1.0139616,0.21793956,1.2533658,0.124005646,0.1797471,0.6133087,-4.1149716,5.701964,6.8403754,0,1683969597.5186062
-1.0139616,0.21793956,1.2533658,0.36025777,0.30283645,0.8604037,-4.1149716,5.701964,6.8403754,0,1683969597.5339894
-0.9457869,0.23440392,1.2164735,0.36025777,0.30283645,0.8604037,-4.1149716,5.701964,6.8403754,0,1683969597.5442665
-0.9457869,0.23440392,1.2164735,0.6385069,0.4005749,1.0957395,-4.1149716,5.701964,6.8403754,0,1683969597.559688
-0.87846595,0.26971084,1.1654338,0.6385069,0.4005749,1.0957395,-4.1149716,5.701964,6.8403754,0,1683969597.5750914
-0.87846595,0.26971084,1.1654338,0.6385069,0.4005749,1.0957395,-4.092944,5.754528,6.8095026,0,1683969597.5853667
-0.81096196,0.29379764,1.0858561,0.6385069,0.4005749,1.0957395,-4.092944,5.754528,6.8095026,0,1683969597.595645
-0.81096196,0.29379764,1.0858561,0.8565858,0.43951756,1.2310462,-4.092944,5.754528,6.8095026,0,1683969597.6059136
-0.81096196,0.29379764,1.0858561,0.8565858,0.43951756,1.2310462,-4.0651264,5.827304,6.7641253,0,1683969597.6110516
-0.81096196,0.29379764,1.0858561,0.8565858,0.43951756,1.2310462,-4.010925,5.9692845,6.672048,0,1683969597.6315885
-0.81096196,0.29379764,1.0858561,1.1114693,0.43493605,1.3947581,-4.010925,5.9692845,6.672048,0,1683969597.6418133
-0.7716304,0.2973954,1.0023146,1.1114693,0.43493605,1.3947581,-4.010925,5.9692845,6.672048,0,1683969597.657203
-0.7716304,0.2973954,1.0023146,1.1114693,0.43493605,1.3947581,-3.9643853,6.0832253,6.596524,0,1683969597.6726005
-0.7716304,0.2973954,1.0023146,1.2672399,0.43783766,1.5334245,-3.9643853,6.0832253,6.596524,0,1683969597.6777375
-0.7422384,0.2903828,0.9312738,1.2672399,0.43783766,1.5334245,-3.9643853,6.0832253,6.596524,0,1683969597.6828754
-0.7215665,0.28580934,0.86267227,1.2672399,0.43783766,1.5334245,-3.9643853,6.0832253,6.596524,0,1683969597.7085607
-0.7215665,0.28580934,0.86267227,1.2672399,0.43783766,1.5334245,-3.9094286,6.2091613,6.5114355,0,1683969597.7137113
-0.7215665,0.28580934,0.86267227,1.3744467,0.49098295,1.7252362,-3.9094286,6.2091613,6.5114355,0,1683969597.7239742
0.31038398,0.58546096,0.21995185,1.3800973,0.5580254,1.8897116,-3.8468208,6.342785,6.4192805,0,1683969597.7393892
0.31038398,0.58546096,0.21995185,0.1330159,1.3849843,3.5816557,0.6677667,8.813925,4.254988,0,1683969597.7446177
0.34721538,0.6188166,0.1876329,0.1330159,1.3849843,3.5816557,0.6677667,8.813925,4.254988,0,1683969597.7446299
0.3568501,0.6220485,0.1460451,0.1330159,1.3849843,3.5816557,1.0324512,8.781184,4.249818,0,1683969597.749788
0.36075276,0.6071086,0.15092343,-0.0852157,1.1812607,3.4289393,1.2679728,8.744928,4.2608204,0,1683969597.7549698
0.36075276,0.6071086,0.15092343,-0.09117164,0.9100365,3.4497087,1.2679728,8.744928,4.2608204,0,1683969597.7651849
0.36075276,0.6071086,0.15092343,-0.09117164,0.9100365,3.4497087,1.5069989,8.698543,4.2779007,0,1683969597.7805822
0.39612067,0.60198635,0.18360828,-0.09117164,0.9100365,3.4497087,1.5069989,8.698543,4.2779007,0,1683969597.7908585
0.39612067,0.60198635,0.18360828,-0.0013744468,0.63087106,3.4564283,1.5069989,8.698543,4.2779007,0,1683969597.8113341
0.39612067,0.60198635,0.18360828,-0.0013744468,0.63087106,3.4564283,1.7550275,8.644048,4.2937684,0,1683969597.8216026
0.47088113,0.62851226,0.22604977,-0.0013744468,0.63087106,3.4564283,1.7550275,8.644048,4.2937684,0,1683969597.8318243
0.47088113,0.62851226,0.22604977,-0.0013744468,0.63087106,3.4564283,2.012686,8.584785,4.2996154,0,1683969597.8369603
0.47088113,0.62851226,0.22604977,0.17486018,0.31047225,3.411377,2.012686,8.584785,4.2996154,0,1683969597.8471932
0.5655208,0.6947966,0.28312626,0.17486018,0.31047225,3.411377,2.012686,8.584785,4.2996154,0,1683969597.8677154
0.6494281,0.7596175,0.336666,0.17486018,0.31047225,3.411377,2.012686,8.584785,4.2996154,0,1683969597.8831298
0.6494281,0.7596175,0.336666,0.36193767,0.087964594,3.307377,2.012686,8.584785,4.2996154,0,1683969597.8882644
1.3953862,1.3690432,0.35538658,0.36193767,0.087964594,3.307377,2.012686,8.584785,4.2996154,0,1683969597.898499
1.3953862,1.3690432,0.35538658,0.36193767,0.087964594,3.307377,4.459849,7.700105,4.1296787,0,1683969597.9138982
1.3953862,1.3690432,0.35538658,0.26313022,0.3119994,-0.35521814,4.459849,7.700105,4.1296787,0,1683969597.9241648
1.3953862,1.3690432,0.35538658,0.26313022,0.3119994,-0.35521814,4.4470305,7.7105384,4.1240306,0,1683969597.9343886
1.3866663,1.3733119,0.34465426,0.26313022,0.3119994,-0.35521814,4.4470305,7.7105384,4.1240306,0,1683969597.939517
1.3866663,1.3733119,0.34465426,0.26160303,0.2863431,-0.6076582,4.4470305,7.7105384,4.1240306,0,1683969597.9600074
1.3227601,1.3530668,0.29111454,0.26160303,0.2863431,-0.6076582,4.4470305,7.7105384,4.1240306,0,1683969597.9651418
1.3227601,1.3530668,0.29111454,0.26160303,0.2863431,-0.6076582,4.3387604,7.78543,4.0985804,0,1683969597.9754083
1.3227601,1.3530668,0.29111454,0.21563543,0.24098633,-1.1249083,4.3387604,7.78543,4.0985804,0,1683969597.98056
1.2511706,1.3000759,0.2733696,0.21563543,0.24098633,-1.1249083,4.3387604,7.78543,4.0985804,0,1683969598.006237
1.2511706,1.3000759,0.2733696,0.21563543,0.24098633,-1.1249083,4.249834,7.840152,4.087426,0,1683969598.0266526
1.2511706,1.3000759,0.2733696,0.13209961,0.20922135,-1.541213,4.249834,7.840152,4.087426,0,1683969598.0317862
1.2511706,1.3000759,0.2733696,0.07498371,0.2041817,-1.7696766,4.249834,7.840152,4.087426,0,1683969598.0574324
1.2511706,1.3000759,0.2733696,0.07498371,0.2041817,-1.7696766,4.196431,7.871028,4.0832586,0,1683969598.0625696
1.1901914,1.2573295,0.2789797,0.07498371,0.2041817,-1.7696766,4.196431,7.871028,4.0832586,0,1683969598.0677202
1.1901914,1.2573295,0.2789797,0.07498371,0.2041817,-1.7696766,4.003079,7.973541,4.0784965,0,1683969598.0728557
1.1901914,1.2573295,0.2789797,0.008399397,0.21609358,-2.0360138,4.003079,7.973541,4.0784965,0,1683969598.0831516
1.1175042,1.1951916,0.2816018,0.008399397,0.21609358,-2.0360138,4.003079,7.973541,4.0784965,0,1683969598.093417
1.1175042,1.1951916,0.2816018,-0.04520403,0.16523905,-2.3570235,4.003079,7.973541,4.0784965,0,1683969598.1088145
1.0521955,1.1538478,0.2736135,-0.04520403,0.16523905,-2.3570235,4.003079,7.973541,4.0784965,0,1683969598.1190844
1.0521955,1.1538478,0.2736135,-0.04520403,0.16523905,-2.3570235,3.8489928,8.047894,4.080782,0,1683969598.124216
0.9883504,1.1246388,0.26507643,-0.04520403,0.16523905,-2.3570235,3.8489928,8.047894,4.080782,0,1683969598.1652424
0.9883504,1.1246388,0.26507643,-0.065209866,0.054519724,-2.6871963,3.8489928,8.047894,4.080782,0,1683969598.1703746
0.9883504,1.1246388,0.26507643,-0.065209866,0.054519724,-2.6871963,3.583199,8.167621,4.084945,0,1683969598.1755016
-0.47612533,0.19062088,0.50021213,-0.065209866,0.054519724,-2.6871963,3.583199,8.167621,4.084945,0,1683969598.185777
-0.47612533,0.19062088,0.50021213,-0.9737192,-0.42730024,-3.216969,3.583199,8.167621,4.084945,0,1683969598.1960113
-0.47612533,0.19062088,0.50021213,-0.9737192,-0.42730024,-3.216969,-3.8398628,7.053152,5.634236,0,1683969598.2164962
-0.54192185,0.18818171,0.54143405,-0.9737192,-0.42730024,-3.216969,-3.8398628,7.053152,5.634236,0,1683969598.2267766
-0.54192185,0.18818171,0.54143405,-0.9737192,-0.42730024,-3.216969,-4.407741,6.5023,5.8760543,0,1683969598.2370384
-0.54192185,0.18818171,0.54143405,-1.0054842,-0.37797287,-3.076012,-4.407741,6.5023,5.8760543,0,1683969598.2472692
-0.54192185,0.18818171,0.54143405,-1.0054842,-0.37797287,-3.076012,-4.5760236,6.3130507,5.9532776,0,1683969598.2780793
-0.54192185,0.18818171,0.54143405,-1.0291553,-0.269697,-2.9778154,-4.5760236,6.3130507,5.9532776,0,1683969598.2831864
-0.6144871,0.15092343,0.5832657,-1.0291553,-0.269697,-2.9778154,-4.5760236,6.3130507,5.9532776,0,1683969598.2883275
-0.6144871,0.15092343,0.5832657,-1.0218248,-0.15210545,-2.7598891,-4.5760236,6.3130507,5.9532776,0,1683969598.3037288
-0.6144871,0.15092343,0.5832657,-1.0218248,-0.15210545,-2.7598891,-4.7369475,6.1231275,6.025342,0,1683969598.3088703
-0.705529,0.11787273,0.6138163,-1.0218248,-0.15210545,-2.7598891,-4.7369475,6.1231275,6.025342,0,1683969598.324265
-0.8209015,0.11665315,0.62960994,-1.0218248,-0.15210545,-2.7598891,-4.7369475,6.1231275,6.025342,0,1683969598.3293958
-0.8209015,0.11665315,0.62960994,-1.0064005,0.0013744468,-2.4824038,-4.7369475,6.1231275,6.025342,0,1683969598.3498933
-0.8209015,0.11665315,0.62960994,-1.0064005,0.0013744468,-2.4824038,-4.960611,5.8456736,6.1201763,0,1683969598.3550267
-0.910419,0.095493376,0.5996082,-1.0064005,0.0013744468,-2.4824038,-4.960611,5.8456736,6.1201763,0,1683969598.3755608
-0.910419,0.095493376,0.5996082,-1.0064005,0.0013744468,-2.4824038,-5.098971,5.6692376,6.172223,0,1683969598.3858247
-0.910419,0.095493376,0.5996082,-1.0491611,0.18646662,-2.166281,-5.098971,5.6692376,6.172223,0,1683969598.3909612
-0.910419,0.095493376,0.5996082,-1.1023064,0.31108314,-1.9000963,-5.098971,5.6692376,6.172223,0,1683969598.4012673
-0.9673125,0.096651986,0.5716797,-1.1023064,0.31108314,-1.9000963,-5.098971,5.6692376,6.172223,0,1683969598.4217994
-0.9673125,0.096651986,0.5716797,-1.1023064,0.31108314,-1.9000963,-5.2295218,5.499414,6.216482,0,1683969598.4269326
-0.9673125,0.096651986,0.5716797,-1.1023064,0.31108314,-1.9000963,-5.35073,5.336821,6.2549286,0,1683969598.4525416
-0.9824963,0.1276294,0.57058203,-1.1023064,0.31108314,-1.9000963,-5.35073,5.336821,6.2549286,0,1683969598.4576766
-0.9824963,0.1276294,0.57058203,0.7287622,0.35124752,0.8695667,-5.35073,5.336821,6.2549286,0,1683969598.488396
-0.9824963,0.1276294,0.57058203,0.7287622,0.35124752,0.8695667,-5.3974795,4.5372133,6.8203387,0,1683969598.4986277
-1.0936004,0.025367333,1.0737822,0.7287622,0.35124752,0.8695667,-5.3974795,4.5372133,6.8203387,0,1683969598.5088878
-1.0936004,0.025367333,1.0737822,0.7680103,0.58352906,1.158964,-5.3974795,4.5372133,6.8203387,0,1683969598.51916
-1.0936004,0.025367333,1.0737822,0.7680103,0.58352906,1.158964,-5.3899636,4.619046,6.7711754,0,1683969598.529423
-1.0695137,0.032318957,0.9945092,0.7680103,0.58352906,1.158964,-5.3899636,4.619046,6.7711754,0,1683969598.5448344
-1.0695137,0.032318957,0.9945092,0.80771655,0.7556403,1.4512631,-5.3899636,4.619046,6.7711754,0,1683969598.5500183
-1.0695137,0.032318957,0.9945092,0.80771655,0.7556403,1.4512631,-5.378882,4.7657785,6.6776557,0,1683969598.5653372
-1.0237793,0.05189327,0.8959059,0.80771655,0.7556403,1.4512631,-5.378882,4.7657785,6.6776557,0,1683969598.570436
-1.0237793,0.05189327,0.8959059,0.8481864,0.799928,1.7159204,-5.378882,4.7657785,6.6776557,0,1683969598.6063623
-1.0237793,0.05189327,0.8959059,0.8481864,0.799928,1.7159204,-5.3664117,4.8794775,6.6051836,0,1683969598.6114633
-0.97908145,0.09470064,0.7996808,0.8481864,0.799928,1.7159204,-5.3664117,4.8794775,6.6051836,0,1683969598.6165948
-0.97908145,0.09470064,0.7996808,0.9034697,0.74097955,1.9043725,-5.3664117,4.8794775,6.6051836,0,1683969598.6319692
-0.933591,0.11872645,0.73504287,0.9034697,0.74097955,1.9043725,-5.3664117,4.8794775,6.6051836,0,1683969598.6422064
-0.933591,0.11872645,0.73504287,0.9034697,0.74097955,1.9043725,-5.343758,5.0050073,6.5291853,0,1683969598.6524367
-0.88877136,0.12836114,0.68924755,0.9034697,0.74097955,1.9043725,-5.343758,5.0050073,6.5291853,0,1683969598.6678405
-0.88877136,0.12836114,0.68924755,1.0178542,0.559858,2.1352794,-5.343758,5.0050073,6.5291853,0,1683969598.6729639
-0.88877136,0.12836114,0.68924755,1.0178542,0.559858,2.1352794,-5.306103,5.1422815,6.452777,0,1683969598.6780977
-0.8455981,0.1331785,0.6628436,1.0178542,0.559858,2.1352794,-5.306103,5.1422815,6.452777,0,1683969598.698616
-0.8455981,0.1331785,0.6628436,1.1336132,0.4129449,2.3269384,-5.306103,5.1422815,6.452777,0,1683969598.7089272
-0.8455981,0.1331785,0.6628436,1.1336132,0.4129449,2.3269384,-5.2120843,5.372387,6.340959,0,1683969598.7192116
-0.78626543,0.14433768,0.6302197,1.1336132,0.4129449,2.3269384,-5.2120843,5.372387,6.340959,0,1683969598.734639
-0.78626543,0.14433768,0.6302197,1.6406313,0.17928895,4.2755985,-5.2120843,5.372387,6.340959,0,1683969598.7397695
0.105250046,0.38983983,0.3146525,1.6406313,0.17928895,4.2755985,-5.2120843,5.372387,6.340959,0,1683969598.76027
0.105250046,0.38983983,0.3146525,1.6406313,0.17928895,4.2755985,-1.7274903,8.340532,4.8669724,0,1683969598.770536
0.105250046,0.38983983,0.3146525,1.406059,0.5847508,4.2003093,-1.7274903,8.340532,4.8669724,0,1683969598.785891
0.105250046,0.38983983,0.3146525,1.406059,0.5847508,4.2003093,-1.4015206,8.471017,4.7448606,0,1683969598.7961624
0.079333894,0.33440974,0.2778211,1.406059,0.5847508,4.2003093,-1.4015206,8.471017,4.7448606,0,1683969598.8064265
0.079333894,0.33440974,0.2778211,1.0093021,1.0925325,4.25544,-1.4015206,8.471017,4.7448606,0,1683969598.8115659
0.04853942,0.28379703,0.23275748,1.0093021,1.0925325,4.25544,-1.4015206,8.471017,4.7448606,0,1683969598.8372338
0.04853942,0.28379703,0.23275748,1.0093021,1.0925325,4.25544,-0.9462871,8.618343,4.5896416,0,1683969598.8423338
0.094212815,0.29349273,0.20104831,1.0093021,1.0925325,4.25544,-0.9462871,8.618343,4.5896416,0,1683969598.8577306
0.094212815,0.29349273,0.20104831,1.0093021,1.0925325,4.25544,-0.6520561,8.684947,4.5147133,0,1683969598.873097
0.094212815,0.29349273,0.20104831,0.6600399,1.4056009,4.342183,-0.6520561,8.684947,4.5147133,0,1683969598.8782353
0.2660521,0.4054505,0.240014,0.6600399,1.4056009,4.342183,-0.6520561,8.684947,4.5147133,0,1683969598.8987346
0.2660521,0.4054505,0.240014,0.6600399,1.4056009,4.342183,-0.35582092,8.726756,4.4669027,0,1683969598.9090037
0.2660521,0.4054505,0.240014,0.2733622,1.6643023,4.3826528,-0.35582092,8.726756,4.4669027,0,1683969598.9141214
0.40795064,0.5279576,0.29666364,0.2733622,1.6643023,4.3826528,-0.35582092,8.726756,4.4669027,0,1683969598.934597
0.40795064,0.5279576,0.29666364,0.069027774,1.8020525,4.2551346,-0.35582092,8.726756,4.4669027,0,1683969598.9448721
0.40795064,0.5279576,0.29666364,0.069027774,1.8020525,4.2551346,-0.06276577,8.745159,4.444588,0,1683969598.950007
0.40795064,0.5279576,0.29666364,-0.05024367,1.885741,3.9173262,-0.06276577,8.745159,4.444588,0,1683969598.965408
0.5130178,0.65180635,0.32361645,-0.05024367,1.885741,3.9173262,-0.06276577,8.745159,4.444588,0,1683969598.9705408
0.5130178,0.65180635,0.32361645,-0.05024367,1.885741,3.9173262,0.3447875,8.738675,4.4444113,0,1683969598.980858
0.5130178,0.65180635,0.32361645,-0.09392053,1.8680259,3.5708127,0.3447875,8.738675,4.4444113,0,1683969598.9859982
0.5130178,0.65180635,0.32361645,-0.09392053,1.8680259,3.5708127,0.5842924,8.719779,4.456475,0,1683969598.991132
0.5452148,0.7041264,0.31879908,-0.09392053,1.8680259,3.5708127,0.5842924,8.719779,4.456475,0,1683969599.001336
0.5452148,0.7041264,0.31879908,-0.18081611,0.66752297,1.624138,0.5842924,8.719779,4.456475,0,1683969599.01667
0.9847526,1.1792761,0.614548,-0.18081611,0.66752297,1.624138,0.5842924,8.719779,4.456475,0,1683969599.0218115
0.9847526,1.1792761,0.614548,-0.18081611,0.66752297,1.624138,3.0928984,8.014149,4.73746,0,1683969599.0269022
1.048049,1.2274497,0.6278415,-0.18081611,0.66752297,1.624138,3.0928984,8.014149,4.73746,0,1683969599.0576558
1.048049,1.2274497,0.6278415,-0.06994407,0.63621616,1.5700763,3.0928984,8.014149,4.73746,0,1683969599.0627918
1.048049,1.2274497,0.6278415,-0.06994407,0.63621616,1.5700763,3.1901846,7.9576983,4.768007,0,1683969599.0679278
1.1661046,1.3249553,0.6190605,-0.06994407,0.63621616,1.5700763,3.1901846,7.9576983,4.768007,0,1683969599.0884295
1.1661046,1.3249553,0.6190605,0.19700404,0.49648073,1.3831517,3.1901846,7.9576983,4.768007,0,1683969599.0935678
1.1661046,1.3249553,0.6190605,0.19700404,0.49648073,1.3831517,3.3275402,7.888203,4.7895546,0,1683969599.0986784
1.2367795,1.3984963,0.5674721,0.19700404,0.49648073,1.3831517,3.3275402,7.888203,4.7895546,0,1683969599.119075
1.2367795,1.3984963,0.5674721,0.474795,0.31444287,1.0903945,3.3275402,7.888203,4.7895546,0,1683969599.1293077
1.2367795,1.3984963,0.5674721,0.474795,0.31444287,1.0903945,3.4098825,7.859051,4.7795534,0,1683969599.139565
1.264586,1.434169,0.506493,0.474795,0.31444287,1.0903945,3.4098825,7.859051,4.7795534,0,1683969599.1601021
1.264586,1.434169,0.506493,0.6433938,0.1600467,0.8042041,3.4098825,7.859051,4.7795534,0,1683969599.1652353
1.264586,1.434169,0.506493,0.6433938,0.1600467,0.8042041,3.4810193,7.8462152,4.7492647,0,1683969599.1703727
1.264586,1.434169,0.506493,0.73716164,0.03191771,0.50885075,3.4810193,7.8462152,4.7492647,0,1683969599.20113
1.2748305,1.4411817,0.44795296,0.73716164,0.03191771,0.50885075,3.4810193,7.8462152,4.7492647,0,1683969599.2114146
1.2748305,1.4411817,0.44795296,0.73716164,0.03191771,0.50885075,3.5382178,7.8488717,4.7023754,0,1683969599.2165155
1.2694643,1.4462429,0.389352,0.73716164,0.03191771,0.50885075,3.5382178,7.8488717,4.7023754,0,1683969599.2421455
1.2694643,1.4462429,0.389352,0.7640397,-0.106901415,0.13637567,3.5382178,7.8488717,4.7023754,0,1683969599.2472441
1.2694643,1.4462429,0.389352,0.7640397,-0.106901415,0.13637567,3.5945299,7.8762455,4.6130514,0,1683969599.2523737
1.2694643,1.4462429,0.389352,0.7191411,-0.1797471,-0.16737708,3.5945299,7.8762455,4.6130514,0,1683969599.2677636
1.2667812,1.4408158,0.36270407,0.7191411,-0.1797471,-0.16737708,3.5945299,7.8762455,4.6130514,0,1683969599.2729454
1.2667812,1.4408158,0.36270407,0.7191411,-0.1797471,-0.16737708,3.6107624,7.9063597,4.5484047,0,1683969599.2780366
1.2667812,1.4408158,0.36270407,-0.8903361,-0.1704314,-4.5109344,3.6107624,7.9063597,4.5484047,0,1683969599.2934396
0.0027440626,0.3392271,0.2086707,-0.8903361,-0.1704314,-4.5109344,3.6107624,7.9063597,4.5484047,0,1683969599.2985775
0.0027440626,0.3392271,0.2086707,-0.8903361,-0.1704314,-4.5109344,-1.9824973,8.390689,4.679973,0,1683969599.308861
-0.09226148,0.28330922,0.19562118,-0.8903361,-0.1704314,-4.5109344,-1.9824973,8.390689,4.679973,0,1683969599.32426
-0.09226148,0.28330922,0.19562118,-0.9615019,-0.21868975,-4.469548,-1.9824973,8.390689,4.679973,0,1683969599.3396614
-0.09226148,0.28330922,0.19562118,-0.9615019,-0.21868975,-4.469548,-2.3120003,8.264567,4.752651,0,1683969599.3448007
-0.16147284,0.24629487,0.18519373,-0.9615019,-0.21868975,-4.469548,-2.3120003,8.264567,4.752651,0,1683969599.3653378
-0.16147284,0.24629487,0.18519373,-1.0908526,-0.24144448,-4.3689084,-2.3120003,8.264567,4.752651,0,1683969599.3704727
-0.16147284,0.24629487,0.18519373,-1.0908526,-0.24144448,-4.3689084,-2.7958434,8.043238,4.870905,0,1683969599.3756063
-0.24196534,0.21318316,0.18623038,-1.0908526,-0.24144448,-4.3689084,-2.7958434,8.043238,4.870905,0,1683969599.4114892
-0.24196534,0.21318316,0.18623038,-1.0908526,-0.24144448,-4.3689084,-3.1072817,7.8738246,4.9582047,0,1683969599.4166265
-0.24196534,0.21318316,0.18623038,-1.2078333,-0.27137688,-4.2621593,-3.1072817,7.8738246,4.9582047,0,1683969599.4217656
-0.29952967,0.20092636,0.18403512,-1.2078333,-0.27137688,-4.2621593,-3.1072817,7.8738246,4.9582047,0,1683969599.43717
-0.29952967,0.20092636,0.18403512,-1.3287846,-0.3465133,-4.102571,-3.1072817,7.8738246,4.9582047,0,1683969599.4423103
-0.29952967,0.20092636,0.18403512,-1.3287846,-0.3465133,-4.102571,-3.547914,7.5902967,5.1025295,0,1683969599.4473996
-0.29952967,0.20092636,0.18403512,-1.4072808,-0.4841107,-3.9901717,-3.547914,7.5902967,5.1025295,0,1683969599.4781995
-0.29952967,0.20092636,0.18403512,-1.4072808,-0.4841107,-3.9901717,-3.8170393,7.386163,5.2068124,0,1683969599.4832964
-0.3269093,0.20952442,0.1823887,-1.4072808,-0.4841107,-3.9901717,-3.8170393,7.386163,5.2068124,0,1683969599.4884336
-0.35538658,0.21970794,0.20056048,-1.4072808,-0.4841107,-3.9901717,-3.8170393,7.386163,5.2068124,0,1683969599.5141015
-0.35538658,0.21970794,0.20056048,-1.4072808,-0.4841107,-3.9901717,-4.0635667,7.171373,5.3193,0,1683969599.524331
-0.35538658,0.21970794,0.20056048,-1.462106,-0.6733262,-3.9005272,-4.0635667,7.171373,5.3193,0,1683969599.5294712
-0.35538658,0.21970794,0.20056048,-1.462106,-0.6733262,-3.9005272,-4.2862267,6.946742,5.4412436,0,1683969599.5448794
-0.35538658,0.21970794,0.20056048,-1.4882205,-0.92485,-3.809203,-4.2862267,6.946742,5.4412436,0,1683969599.550012
-0.42203683,0.19909698,0.28641915,-1.4882205,-0.92485,-3.809203,-4.2862267,6.946742,5.4412436,0,1683969599.5551436
-0.42203683,0.19909698,0.28641915,1.0366384,0.30573806,1.4851661,-4.2862267,6.946742,5.4412436,0,1683969599.5654192
-0.42203683,0.19909698,0.28641915,1.0366384,0.30573806,1.4851661,-4.994178,4.60517,7.077197,0,1683969599.5757089
-0.95279956,0.10153031,0.9223709,1.0366384,0.30573806,1.4851661,-4.994178,4.60517,7.077197,0,1683969599.5808718
-0.8974914,0.12756842,0.8509033,1.0366384,0.30573806,1.4851661,-4.994178,4.60517,7.077197,0,1683969599.5860047
-0.8974914,0.12756842,0.8509033,1.1420126,0.2779437,1.6762142,-4.994178,4.60517,7.077197,0,1683969599.5911365
-0.8974914,0.12756842,0.8509033,1.1420126,0.2779437,1.6762142,-4.9372244,4.7934704,6.9916067,0,1683969599.5962756
-0.8974914,0.12756842,0.8509033,1.2692252,0.22815818,1.8967366,-4.9372244,4.7934704,6.9916067,0,1683969599.632176
-0.85413516,0.14439867,0.79785144,1.2692252,0.22815818,1.8967366,-4.9372244,4.7934704,6.9916067,0,1683969599.6424594
-0.85413516,0.14439867,0.79785144,1.3865114,0.17363845,2.130698,-4.8844414,4.9363003,6.929018,0,1683969599.6527114
-0.85413516,0.14439867,0.79785144,1.3865114,0.17363845,2.130698,-4.781144,5.174182,6.826758,0,1683969599.6578434
-0.81748676,0.14275223,0.7385187,1.3865114,0.17363845,2.130698,-4.781144,5.174182,6.826758,0,1683969599.6783795
-0.81748676,0.14275223,0.7385187,1.3865114,0.17363845,2.130698,-4.694243,5.3466725,6.7537613,0,1683969599.6886454
-0.79175353,0.14464259,0.70333374,1.3865114,0.17363845,2.130698,-4.694243,5.3466725,6.7537613,0,1683969599.6989517
-0.79175353,0.14464259,0.70333374,1.466382,0.11484267,2.3168592,-4.694243,5.3466725,6.7537613,0,1683969599.704096
-0.79175353,0.14464259,0.70333374,1.5435038,0.06704246,2.515085,-4.694243,5.3466725,6.7537613,0,1683969599.7347498
-0.79175353,0.14464259,0.70333374,1.5435038,0.06704246,2.515085,-4.5912666,5.5289626,6.677346,0,1683969599.7398822
-0.7695571,0.14025208,0.6753443,1.5435038,0.06704246,2.515085,-4.5912666,5.5289626,6.677346,0,1683969599.7501717
-0.7197981,0.14354497,0.6282074,1.5435038,0.06704246,2.515085,-4.5912666,5.5289626,6.677346,0,1683969599.7603886
-0.7197981,0.14354497,0.6282074,1.6226108,-0.012217305,2.801428,-4.5912666,5.5289626,6.677346,0,1683969599.7655272
-0.7197981,0.14354497,0.6282074,1.6226108,-0.012217305,2.801428,-4.470634,5.7206554,6.597245,0,1683969599.7706597
-0.6640022,0.15476513,0.6096087,1.6226108,-0.012217305,2.801428,-4.470634,5.7206554,6.597245,0,1683969599.791112
-0.6640022,0.15476513,0.6096087,1.6226108,-0.012217305,2.801428,-4.3300376,5.920678,6.51402,0,1683969599.8115904
-0.6640022,0.15476513,0.6096087,1.6226108,-0.012217305,2.801428,0.8670965,8.664639,4.5175533,0,1683969599.821861
-0.6640022,0.15476513,0.6096087,0.6046039,1.1275045,4.274835,0.8670965,8.664639,4.5175533,0,1683969599.8269978
-0.6640022,0.15476513,0.6096087,0.6046039,1.1275045,4.274835,1.1668266,8.646682,4.4843655,0,1683969599.8577425
0.39593774,0.52496964,0.28257746,0.6046039,1.1275045,4.274835,1.1668266,8.646682,4.4843655,0,1683969599.8628805
0.39593774,0.52496964,0.28257746,0.41615194,1.2127203,4.173279,1.1668266,8.646682,4.4843655,0,1683969599.878283
0.39593774,0.52496964,0.28257746,0.30375275,1.2728904,4.0845504,1.1668266,8.646682,4.4843655,0,1683969599.8987703
0.39593774,0.52496964,0.28257746,0.30375275,1.2728904,4.0845504,1.4556354,8.611841,4.4669266,0,1683969599.9038968
0.42648828,0.5140544,0.30599347,0.30375275,1.2728904,4.0845504,1.4556354,8.611841,4.4669266,0,1683969599.9141288
0.5030171,0.5476539,0.31507936,0.30375275,1.2728904,4.0845504,1.4556354,8.611841,4.4669266,0,1683969599.9243066
0.5030171,0.5476539,0.31507936,0.30375275,1.2728904,4.0845504,1.7332864,8.56256,4.4625564,0,1683969599.9396703
0.5030171,0.5476539,0.31507936,0.20769419,1.3170254,3.9533672,1.7332864,8.56256,4.4625564,0,1683969599.9499433
0.65808713,0.68308866,0.3088595,0.20769419,1.3170254,3.9533672,1.7332864,8.56256,4.4625564,0,1683969599.9602122
0.65808713,0.68308866,0.3088595,0.20769419,1.3170254,3.9533672,2.1209118,8.468681,4.4742928,0,1683969599.9704802
0.65808713,0.68308866,0.3088595,0.1255328,1.3335189,3.6380079,2.1209118,8.468681,4.4742928,0,1683969599.9807477
0.71461487,0.77998453,0.3055666,0.1255328,1.3335189,3.6380079,2.1209118,8.468681,4.4742928,0,1683969600.006411
0.71461487,0.77998453,0.3055666,0.11560625,1.3029755,3.3672419,2.1209118,8.468681,4.4742928,0,1683969600.0115376
0.71461487,0.77998453,0.3055666,0.11560625,1.3029755,3.3672419,2.238359,8.434732,4.481199,0,1683969600.0166917
0.71461487,0.77998453,0.3055666,0.14935656,1.1491902,2.9254336,2.238359,8.434732,4.481199,0,1683969600.0268922
0.75980043,0.8321827,0.26403978,0.14935656,1.1491902,2.9254336,2.238359,8.434732,4.481199,0,1683969600.0371215
0.75980043,0.8321827,0.26403978,0.14935656,1.1491902,2.9254336,2.4516978,8.367418,4.495732,0,1683969600.042251
0.75980043,0.8321827,0.26403978,0.15485434,0.98364574,2.641992,2.4516978,8.367418,4.495732,0,1683969600.078154
0.7527878,0.81077904,0.23690407,0.15485434,0.98364574,2.641992,2.4516978,8.367418,4.495732,0,1683969600.0832648
0.7527878,0.81077904,0.23690407,0.15485434,0.98364574,2.641992,2.7281408,8.272827,4.511507,0,1683969600.0935404
0.7527878,0.81077904,0.23690407,-0.1685988,0.28420505,-1.5470163,2.7281408,8.272827,4.511507,0,1683969600.11408
1.074087,1.1657997,0.45283127,-0.1685988,0.28420505,-1.5470163,2.7281408,8.272827,4.511507,0,1683969600.1242912
1.074087,1.1657997,0.45283127,-0.1685988,0.28420505,-1.5470163,3.7592652,7.4586086,5.1452107,0,1683969600.1293886
0.9994486,1.0973811,0.45356306,-0.1685988,0.28420505,-1.5470163,3.7592652,7.4586086,5.1452107,0,1683969600.1344795
0.9994486,1.0973811,0.45356306,-0.1685988,0.28420505,-1.5470163,3.6444037,7.504339,5.1613293,0,1683969600.1447332
0.9994486,1.0973811,0.45356306,-0.19486602,0.24984388,-1.7725782,3.6444037,7.504339,5.1613293,0,1683969600.1498678
0.9994486,1.0973811,0.45356306,-0.16294831,0.14614952,-2.012343,3.6444037,7.504339,5.1613293,0,1683969600.1806753
0.9994486,1.0973811,0.45356306,-0.16294831,0.14614952,-2.012343,3.5186465,7.5532026,5.177294,0,1683969600.196066
0.96853215,1.085795,0.47472283,-0.16294831,0.14614952,-2.012343,3.5186465,7.5532026,5.177294,0,1683969600.2011893
0.96853215,1.085795,0.47472283,-0.16294831,0.14614952,-2.012343,3.310986,7.6365304,5.1920013,0,1683969600.2216418
0.93767667,1.0731723,0.4861869,-0.16294831,0.14614952,-2.012343,3.310986,7.6365304,5.1920013,0,1683969600.231832
0.93767667,1.0731723,0.4861869,-0.08811731,0.013133603,-2.2418754,3.310986,7.6365304,5.1920013,0,1683969600.2369258
0.8933448,1.0434755,0.47825962,-0.08811731,0.013133603,-2.2418754,3.310986,7.6365304,5.1920013,0,1683969600.2471886
0.8933448,1.0434755,0.47825962,-0.08811731,0.013133603,-2.2418754,3.1591349,7.7016826,5.1903806,0,1683969600.257449
0.8933448,1.0434755,0.47825962,0.01450805,-0.15790866,-2.5367706,3.1591349,7.7016826,5.1903806,0,1683969600.2625837
0.8380977,0.9938384,0.4408184,0.01450805,-0.15790866,-2.5367706,3.1591349,7.7016826,5.1903806,0,1683969600.2932963
0.8380977,0.9938384,0.4408184,0.01450805,-0.15790866,-2.5367706,2.995784,7.7734547,5.1802306,0,1683969600.2984324
0.8380977,0.9938384,0.4408184,0.04016439,-0.25793785,-2.7618744,2.995784,7.7734547,5.1802306,0,1683969600.3035243
0.8380977,0.9938384,0.4408184,0.04016439,-0.25793785,-2.7618744,2.819871,7.8481894,5.166272,0,1683969600.3137949
0.8380977,0.9938384,0.4408184,0.0053450707,-0.31688634,-2.9717066,2.819871,7.8481894,5.166272,0,1683969600.3342543
0.77791125,0.94029874,0.4115484,0.0053450707,-0.31688634,-2.9717066,2.819871,7.8481894,5.166272,0,1683969600.3393354
0.70022374,0.8731607,0.37398523,0.0053450707,-0.31688634,-2.9717066,2.819871,7.8481894,5.166272,0,1683969600.3547068
0.70022374,0.8731607,0.37398523,0.0053450707,-0.31688634,-2.9717066,2.5297048,7.956719,5.150469,0,1683969600.3598435
0.70022374,0.8731607,0.37398523,0.0053450707,-0.31688634,-2.9717066,-2.939428,6.687291,6.5479774,0,1683969600.3905895
-0.25105122,0.13543473,0.23044027,0.0053450707,-0.31688634,-2.9717066,-2.939428,6.687291,6.5479774,0,1683969600.400857
-0.25105122,0.13543473,0.23044027,-1.9978348,-0.9399689,-3.8266127,-2.939428,6.687291,6.5479774,0,1683969600.4059854
-0.25105122,0.13543473,0.23044027,-1.9978348,-0.9399689,-3.8266127,-3.1355724,6.4631577,6.68071,0,1683969600.4111278
-0.25105122,0.13543473,0.23044027,-2.084425,-1.1403327,-3.7346773,-3.1355724,6.4631577,6.68071,0,1683969600.431624
-0.25105122,0.13543473,0.23044027,-2.084425,-1.1403327,-3.7346773,-3.3829696,6.0946937,6.9026327,0,1683969600.4367354
-0.3150184,0.075980045,0.41185328,-2.084425,-1.1403327,-3.7346773,-3.3829696,6.0946937,6.9026327,0,1683969600.4418323
-0.3565452,0.009146876,0.53960466,-2.084425,-1.1403327,-3.7346773,-3.3829696,6.0946937,6.9026327,0,1683969600.4879127
-0.3565452,0.009146876,0.53960466,-2.084425,-1.1403327,-3.7346773,-3.515559,5.8353605,7.058719,0,1683969600.4930353
-0.3565452,0.009146876,0.53960466,-2.068848,-1.2599095,-3.5973854,-3.515559,5.8353605,7.058719,0,1683969600.49817
-0.41721946,-0.027196707,0.6802836,-2.068848,-1.2599095,-3.5973854,-3.515559,5.8353605,7.058719,0,1683969600.5186226
-0.41721946,-0.027196707,0.6802836,-1.9732474,-1.3797919,-3.3583844,-3.515559,5.8353605,7.058719,0,1683969600.5237591
-0.41721946,-0.027196707,0.6802836,-1.9732474,-1.3797919,-3.3583844,-3.6211815,5.5751204,7.213958,0,1683969600.528905
-0.4484408,-0.032440916,0.7299816,-1.9732474,-1.3797919,-3.3583844,-3.6211815,5.5751204,7.213958,0,1683969600.5390992
-0.4484408,-0.032440916,0.7299816,-1.8797851,-1.4495832,-3.1891747,-3.6211815,5.5751204,7.213958,0,1683969600.54419
-0.4484408,-0.032440916,0.7299816,-1.8797851,-1.4495832,-3.1891747,-3.7002854,5.32173,7.3636394,0,1683969600.5595644
-0.4484408,-0.032440916,0.7299816,-1.7270688,-1.5699236,-2.882673,-3.7002854,5.32173,7.3636394,0,1683969600.5851874
-0.48551616,-0.023111105,0.778643,-1.7270688,-1.5699236,-2.882673,-3.7002854,5.32173,7.3636394,0,1683969600.5903256
-0.48551616,-0.023111105,0.778643,-1.7270688,-1.5699236,-2.882673,-3.752658,5.079848,7.506585,0,1683969600.6005845
-0.48551616,-0.023111105,0.778643,-1.7270688,-1.5699236,-2.882673,-3.7783475,4.852062,7.643146,0,1683969600.6159906
-0.47557652,0.011403104,0.8110839,-1.7270688,-1.5699236,-2.882673,-3.7783475,4.852062,7.643146,0,1683969600.6313403
-0.47557652,0.011403104,0.8110839,-1.6267341,-1.6542231,-2.652377,-3.7783475,4.852062,7.643146,0,1683969600.6364393
-0.47557652,0.011403104,0.8110839,-1.5456418,-1.7166841,-2.4686592,-3.7783475,4.852062,7.643146,0,1683969600.6466234
-0.47557652,0.011403104,0.8110839,1.2426527,0.32253686,0.9848675,-3.7783475,4.852062,7.643146,0,1683969600.6722648
-0.47557652,0.011403104,0.8110839,1.2426527,0.32253686,0.9848675,-3.3239267,3.3641624,8.594768,0,1683969600.677396
-0.92877364,-0.15665549,1.191411,1.2426527,0.32253686,0.9848675,-3.3239267,3.3641624,8.594768,0,1683969600.687619
-0.88218564,-0.114823766,1.0971372,1.2426527,0.32253686,0.9848675,-3.3239267,3.3641624,8.594768,0,1683969600.708142
-0.88218564,-0.114823766,1.0971372,1.2426527,0.32253686,0.9848675,-3.326661,3.4818938,8.546686,0,1683969600.7132788
-0.88218564,-0.114823766,1.0971372,1.3886495,0.41981715,1.3732251,-3.326661,3.4818938,8.546686,0,1683969600.7184074
-0.88218564,-0.114823766,1.0971372,1.4671456,0.47662762,1.6417004,-3.326661,3.4818938,8.546686,0,1683969600.7286794
-0.8215113,-0.07238227,1.0247549,1.4671456,0.47662762,1.6417004,-3.326661,3.4818938,8.546686,0,1683969600.7389376
-0.8215113,-0.07238227,1.0247549,1.4671456,0.47662762,1.6417004,-3.3206105,3.691102,8.460816,0,1683969600.7491446
-0.7603492,-0.031892106,0.94127446,1.4671456,0.47662762,1.6417004,-3.3206105,3.691102,8.460816,0,1683969600.7695572
-0.7603492,-0.031892106,0.94127446,1.5128077,0.539394,1.8637499,-3.3206105,3.691102,8.460816,0,1683969600.7747006
-0.7603492,-0.031892106,0.94127446,1.5128077,0.539394,1.8637499,-3.3089242,3.8466039,8.395878,0,1683969600.790105
-0.7603492,-0.031892106,0.94127446,1.5343407,0.5537493,2.069917,-3.3089242,3.8466039,8.395878,0,1683969600.8054674
-0.7603492,-0.031892106,0.94127446,1.5343407,0.5537493,2.069917,-3.2911303,4.0102825,8.325995,0,1683969600.8106155
-0.69839436,0.018598646,0.82962155,1.5343407,0.5537493,2.069917,-3.2911303,4.0102825,8.325995,0,1683969600.8157477
-0.64503765,0.054759294,0.752361,1.5343407,0.5537493,2.069917,-3.2911303,4.0102825,8.325995,0,1683969600.8464794
-0.64503765,0.054759294,0.752361,1.5572482,0.46120325,2.1986568,-3.2911303,4.0102825,8.325995,0,1683969600.856647
-0.64503765,0.054759294,0.752361,1.5572482,0.46120325,2.1986568,-3.2636523,4.179188,8.253428,0,1683969600.8669214
-0.64503765,0.054759294,0.752361,1.5572482,0.46120325,2.1986568,-3.1919434,4.44052,8.144286,0,1683969600.8823247
-0.59058326,0.097322755,0.71528566,1.5572482,0.46120325,2.1986568,-3.1919434,4.44052,8.144286,0,1683969600.887446
-0.59058326,0.097322755,0.71528566,1.6013832,0.27183503,2.3229678,-3.1919434,4.44052,8.144286,0,1683969600.9028432
-0.59058326,0.097322755,0.71528566,1.6013832,0.27183503,2.3229678,-3.1203337,4.619693,8.072055,0,1683969600.9233398
-0.59058326,0.097322755,0.71528566,1.6540704,0.12660182,2.4324653,-3.1203337,4.619693,8.072055,0,1683969600.9284754
0.418683,0.56661844,0.62832934,1.6540704,0.12660182,2.4324653,-3.1203337,4.619693,8.072055,0,1683969600.943847
0.418683,0.56661844,0.62832934,-0.40286562,0.5001459,2.5557075,-3.1203337,4.619693,8.072055,0,1683969600.9540558
0.418683,0.56661844,0.62832934,-0.40286562,0.5001459,2.5557075,0.54353,6.902442,6.949603,0,1683969600.9591334
0.418683,0.56661844,0.62832934,-0.40286562,0.5001459,2.5557075,0.74906987,6.839825,6.9922667,0,1683969600.9899232
0.418683,0.56661844,0.62832934,-0.45448375,0.49663344,2.4139867,0.74906987,6.839825,6.9922667,0,1683969600.9950566
0.41234115,0.597108,0.6243657,-0.45448375,0.49663344,2.4139867,0.74906987,6.839825,6.9922667,0,1683969601.0001917
0.41234115,0.597108,0.6243657,-0.45448375,0.49663344,2.4139867,0.8745789,6.7921934,7.024054,0,1683969601.0052848
0.41234115,0.597108,0.6243657,-0.47769663,0.45677447,2.2858577,0.8745789,6.7921934,7.024054,0,1683969601.01554
0.42478088,0.64076906,0.6465621,-0.47769663,0.45677447,2.2858577,0.8745789,6.7921934,7.024054,0,1683969601.0257583
0.42478088,0.64076906,0.6465621,-0.527024,0.8426886,2.1983514,0.8745789,6.7921934,7.024054,0,1683969601.0411518
0.5080174,0.6737588,0.72492033,-0.527024,0.8426886,2.1983514,0.8745789,6.7921934,7.024054,0,1683969601.051346
0.5080174,0.6737588,0.72492033,-0.527024,0.8426886,2.1983514,0.99308443,6.741777,7.056794,0,1683969601.0666518
0.53582394,0.6982724,0.66839266,-0.527024,0.8426886,2.1983514,0.99308443,6.741777,7.056794,0,1683969601.0769207
0.53582394,0.6982724,0.66839266,-0.6565274,1.4773777,2.1470387,0.99308443,6.741777,7.056794,0,1683969601.0973997
0.53582394,0.6982724,0.66839266,-0.6565274,1.4773777,2.1470387,1.0783123,6.6857357,7.097484,0,1683969601.1025372
0.53582394,0.6982724,0.66839266,-0.8454375,1.9265163,2.1584923,1.0783123,6.6857357,7.097484,0,1683969601.123041
0.53582394,0.6982724,0.66839266,-0.8454375,1.9265163,2.1584923,1.1205362,6.62171,7.1507673,0,1683969601.138437
0.57314324,0.8065714,0.6213777,-0.8454375,1.9265163,2.1584923,1.1205362,6.62171,7.1507673,0,1683969601.143577
0.64168376,0.9645685,0.518201,-0.8454375,1.9265163,2.1584923,1.1205362,6.62171,7.1507673,0,1683969601.1486714
0.64168376,0.9645685,0.518201,-1.1452196,1.8785634,2.1276436,1.1205362,6.62171,7.1507673,0,1683969601.1690886
0.64168376,0.9645685,0.518201,-1.1452196,1.8785634,2.1276436,1.1433164,6.507142,7.2516236,0,1683969601.179316
0.64168376,0.9645685,0.518201,-1.1452196,1.8785634,2.1276436,1.1550201,6.4053454,7.339864,0,1683969601.18445
-0.029148044,0.5567398,0.7516902,0.37690386,0.18936823,-0.24419338,-0.13642462,5.6004972,8.053069,0,1683969601.1999948
-0.029148044,0.5567398,0.7516902,0.30024028,0.20005837,-0.17150041,-0.13642462,5.6004972,8.053069,0,1683969601.2050817
-0.029148044,0.5567398,0.7516902,0.23487769,0.22067507,-0.122020334,-0.13642462,5.6004972,8.053069,0,1683969601.2358284
-0.035489876,0.55576414,0.75162923,0.23487769,0.22067507,-0.122020334,-0.13642462,5.6004972,8.053069,0,1683969601.2460957
-0.035489876,0.55576414,0.75162923,0.23487769,0.22067507,-0.122020334,-0.15975647,5.621074,8.03829,0,1683969601.2512028
-0.0046344167,0.5775947,0.7396773,0.23487769,0.22067507,-0.122020334,-0.15975647,5.621074,8.03829,0,1683969601.2562988
-0.0046344167,0.5775947,0.7396773,0.23487769,0.22067507,-0.122020334,-0.18269567,5.6373625,8.026386,0,1683969601.2613888
-0.0046344167,0.5775947,0.7396773,0.160963,0.26313022,-0.10308351,-0.18269567,5.6373625,8.026386,0,1683969601.27161
0.014817937,0.5950957,0.74071395,0.160963,0.26313022,-0.10308351,-0.18269567,5.6373625,8.026386,0,1683969601.3075242
0.014817937,0.5950957,0.74071395,0.12186762,0.27855456,-0.1386664,-0.18269567,5.6373625,8.026386,0,1683969601.3177936
0.014817937,0.5950957,0.74071395,0.12186762,0.27855456,-0.1386664,-0.20686865,5.64995,8.016943,0,1683969601.3229277
0.010732334,0.5975958,0.76339823,0.12186762,0.27855456,-0.1386664,-0.20686865,5.64995,8.016943,0,1683969601.3332012
0.010732334,0.5975958,0.76339823,0.09040806,0.31230485,-0.22082779,-0.20686865,5.64995,8.016943,0,1683969601.3536875
0.010732334,0.5975958,0.76339823,0.09040806,0.31230485,-0.22082779,-0.24900018,5.663335,8.006294,0,1683969601.3588073
-0.024574606,0.5815583,0.78169197,0.09040806,0.31230485,-0.22082779,-0.24900018,5.663335,8.006294,0,1683969601.369032
-0.024574606,0.5815583,0.78169197,0.09040806,0.31230485,-0.22082779,-0.28456616,5.669539,8.000716,0,1683969601.3843677
-0.024574606,0.5815583,0.78169197,0.07467828,0.366061,-0.2845105,-0.28456616,5.669539,8.000716,0,1683969601.3946347
-0.024574606,0.5815583,0.78169197,0.07467828,0.366061,-0.2845105,-0.32653603,5.674183,7.99582,0,1683969601.4150915
-0.024574606,0.5815583,0.78169197,0.07452556,0.40530908,-0.2921463,-0.32653603,5.674183,7.99582,0,1683969601.425364
0.03091644,0.6635143,0.89846706,0.07452556,0.40530908,-0.2921463,-0.32653603,5.674183,7.99582,0,1683969601.4304988
