acc_x,acc_y,acc_z,gyr_x,gyr_y,gyr_z,grav_x,grav_y,grav_z,label,timestamp
-0.15519199,0.3084936,0.35544756,1.517542,-2.4448354,-2.3501513,-4.4583726,3.9939535,7.7722163,0,1683969574.5341823
-0.15232596,0.2889193,0.4180122,1.5381587,-3.1177034,-2.4506385,-4.354611,4.01187,7.8216605,0,1683969574.5398571
-0.15232596,0.2889193,0.4180122,1.5381587,-3.1177034,-2.4506385,-4.1372623,4.038281,7.925368,0,1683969574.5555933
-0.120007,0.27586976,0.6375372,1.5381587,-3.1177034,-2.4506385,-4.1372623,4.038281,7.925368,0,1683969574.5608373
-0.11049425,0.17537609,1.138603,1.5381587,-3.1177034,-2.4506385,-4.1372623,4.038281,7.925368,0,1683969574.6494346
-0.11049425,0.17537609,1.138603,1.5381587,-3.1177034,-2.4506385,-3.7119226,4.098064,8.103309,0,1683969574.6545947
-0.11049425,0.17537609,1.138603,1.4833336,-3.3722816,-2.7656925,-3.7119226,4.098064,8.103309,0,1683969574.659738
-0.11049425,0.17537609,1.138603,1.4833336,-3.3722816,-2.7656925,-3.523433,4.1005673,8.185773,0,1683969574.7364213
-0.1326297,0.08140719,0.9062724,1.4833336,-3.3722816,-2.7656925,-3.523433,4.1005673,8.185773,0,1683969574.7415142
-0.1326297,0.08140719,0.9062724,1.0781772,-2.2514966,-2.8745792,-3.523433,4.1005673,8.185773,0,1683969574.7466128
-0.17324181,0.07768746,0.8455371,1.0781772,-2.2514966,-2.8745792,-3.523433,4.1005673,8.185773,0,1683969574.7721863
-0.17324181,0.07768746,0.8455371,1.0305296,-1.9225457,-2.8226557,-3.523433,4.1005673,8.185773,0,1683969574.7824302
-0.17324181,0.07768746,0.8455371,1.0305296,-1.9225457,-2.8226557,-3.4533584,4.0834866,8.224085,0,1683969574.7875707
-0.17324181,0.07768746,0.8455371,0.97127575,-1.9289597,-2.758362,-3.4533584,4.0834866,8.224085,0,1683969574.8081212
-0.21446373,0.0714066,0.75571483,0.97127575,-1.9289597,-2.758362,-3.4533584,4.0834866,8.224085,0,1683969574.8235455
-0.21446373,0.0714066,0.75571483,0.97127575,-1.9289597,-2.758362,-3.3858328,4.055744,8.265784,0,1683969574.828646
-0.2423312,0.053966567,0.76913023,0.97127575,-1.9289597,-2.758362,-3.3858328,4.055744,8.265784,0,1683969574.8388908
-0.2423312,0.053966567,0.76913023,0.97127575,-1.9289597,-2.758362,-3.3633485,4.045829,8.279811,0,1683969574.849146
-0.2423312,0.053966567,0.76913023,0.9069822,-1.921782,-2.69529,-3.3633485,4.045829,8.279811,0,1683969574.8593729
-0.2423312,0.053966567,0.76913023,0.7874053,-1.9162843,-2.6082418,-3.3633485,4.045829,8.279811,0,1683969574.874794
-0.2423312,0.053966567,0.76913023,0.7874053,-1.9162843,-2.6082418,-3.2952282,4.0114784,8.323798,0,1683969574.895316
-0.3123963,0.016647313,0.68796694,0.7874053,-1.9162843,-2.6082418,-3.2952282,4.0114784,8.323798,0,1683969574.900465
-0.3123963,0.016647313,0.68796694,0.7874053,-1.9162843,-2.6082418,-3.2427387,3.9819255,8.35853,0,1683969574.915887
-0.3123963,0.016647313,0.68796694,0.63423085,-2.3208299,-2.4717135,-3.2427387,3.9819255,8.35853,0,1683969574.9210296
-0.38923004,0.0037197291,0.53649473,0.63423085,-2.3208299,-2.4717135,-3.2427387,3.9819255,8.35853,0,1683969574.9364102
-0.47618634,-0.017013188,0.49344343,0.63423085,-2.3208299,-2.4717135,-3.2427387,3.9819255,8.35853,0,1683969574.9517946
-0.47618634,-0.017013188,0.49344343,0.57742035,-3.1025846,-2.302351,-3.2427387,3.9819255,8.35853,0,1683969574.956941
-0.47618634,-0.017013188,0.49344343,0.57742035,-3.1025846,-2.302351,-3.0985832,3.9333873,8.435838,0,1683969574.9620824
-0.50765157,-0.023050126,0.4598439,0.57742035,-3.1025846,-2.302351,-3.0985832,3.9333873,8.435838,0,1683969574.987724
-0.50765157,-0.023050126,0.4598439,0.57742035,-3.1025846,-2.302351,-2.931376,3.9069347,8.507585,0,1683969574.9928663
-0.50765157,-0.023050126,0.4598439,0.5757405,-3.9219077,-2.116648,-2.931376,3.9069347,8.507585,0,1683969574.9980044
-0.50765157,-0.023050126,0.4598439,0.5757405,-3.9219077,-2.116648,-2.6870894,3.8914201,8.594913,0,1683969575.0288901
-0.4936264,-0.005793021,0.5325311,0.5757405,-3.9219077,-2.116648,-2.6870894,3.8914201,8.594913,0,1683969575.0391686
-0.4936264,-0.005793021,0.5325311,0.622319,-5.141958,-1.832443,-2.6870894,3.8914201,8.594913,0,1683969575.0443118
-0.4936264,-0.005793021,0.5325311,0.66538495,-6.0487876,-1.509448,-2.6870894,3.8914201,8.594913,0,1683969575.0546162
-0.4492945,-0.012134855,0.71437097,0.66538495,-6.0487876,-1.509448,-2.6870894,3.8914201,8.594913,0,1683969575.059763
-0.4492945,-0.012134855,0.71437097,0.66538495,-6.0487876,-1.509448,-2.3511543,3.8904164,8.693264,0,1683969575.0700507
-0.31666481,-0.036892395,1.0764652,0.66538495,-6.0487876,-1.509448,-2.3511543,3.8904164,8.693264,0,1683969575.1060019
-0.31666481,-0.036892395,1.0764652,0.66538495,-6.0487876,-1.509448,-1.6913253,3.9162989,8.83392,0,1683969575.1111536
-0.31666481,-0.036892395,1.0764652,0.6600399,-6.5639,-1.0604621,-1.6913253,3.9162989,8.83392,0,1683969575.1163034
-0.31666481,-0.036892395,1.0764652,0.6600399,-6.5639,-1.0604621,-1.2082211,3.9454365,8.899991,0,1683969575.1317294
-0.31666481,-0.036892395,1.0764652,0.59238654,-5.846286,-0.7874053,-1.2082211,3.9454365,8.899991,0,1683969575.1368828
-0.20440216,0.018171793,1.9243805,0.59238654,-5.846286,-0.7874053,-1.2082211,3.9454365,8.899991,0,1683969575.152316
-0.20440216,0.018171793,1.9243805,0.4699081,-4.9188395,-0.690125,-1.2082211,3.9454365,8.899991,0,1683969575.1625931
-0.20440216,0.018171793,1.9243805,0.4699081,-4.9188395,-0.690125,-0.7896805,3.9740794,8.93416,0,1683969575.1677332
-0.092078544,0.07097975,1.6294852,0.4699081,-4.9188395,-0.690125,-0.7896805,3.9740794,8.93416,0,1683969575.1831498
-0.092078544,0.07097975,1.6294852,0.37216964,-3.8577666,-0.7334964,-0.7896805,3.9740794,8.93416,0,1683969575.2037375
-0.017744938,0.18281554,1.8194354,0.37216964,-3.8577666,-0.7334964,-0.7896805,3.9740794,8.93416,0,1683969575.2140021
-0.017744938,0.18281554,1.8194354,0.37216964,-3.8577666,-0.7334964,-0.6054412,3.9864805,8.943016,0,1683969575.2242675
-0.017744938,0.18281554,1.8194354,0.37216964,-3.8577666,-0.7334964,-0.1817974,4.018057,8.947529,0,1683969575.239656
-0.017744938,0.18281554,1.8194354,0.3417791,-3.036153,-0.9060659,-0.1817974,4.018057,8.947529,0,1683969575.2498763
0.030428605,0.2669058,1.7686398,0.3417791,-3.036153,-0.9060659,-0.1817974,4.018057,8.947529,0,1683969575.260135
0.030428605,0.2669058,1.7686398,0.38835758,-2.649017,-1.1917981,-0.1817974,4.018057,8.947529,0,1683969575.2755234
0.03225798,0.24501431,1.615704,0.38835758,-2.649017,-1.1917981,-0.1817974,4.018057,8.947529,0,1683969575.2806666
0.03225798,0.24501431,1.615704,0.38835758,-2.649017,-1.1917981,0.017054282,4.039318,8.939783,0,1683969575.2858102
-0.0034758127,0.1823277,1.5803361,0.38835758,-2.649017,-1.1917981,0.017054282,4.039318,8.939783,0,1683969575.3166468
-0.0034758127,0.1823277,1.5803361,0.591623,-2.8052459,-1.361924,0.017054282,4.039318,8.939783,0,1683969575.3217494
-0.0034758127,0.1823277,1.5803361,0.591623,-2.8052459,-1.361924,0.18923615,4.0665107,8.925458,0,1683969575.326894
-0.02262327,0.13683724,1.5987518,0.591623,-2.8052459,-1.361924,0.18923615,4.0665107,8.925458,0,1683969575.3525496
-0.02262327,0.13683724,1.5987518,0.591623,-2.8052459,-1.361924,0.45721912,4.1374555,8.883047,0,1683969575.362764
-0.02262327,0.13683724,1.5987518,0.90194255,-3.1059444,-1.3367258,0.45721912,4.1374555,8.883047,0,1683969575.3678758
-0.008476105,0.172693,1.7110754,0.90194255,-3.1059444,-1.3367258,0.45721912,4.1374555,8.883047,0,1683969575.3832803
-0.008476105,0.172693,1.7110754,1.4205672,-3.5482109,-1.1951579,0.45721912,4.1374555,8.883047,0,1683969575.3884244
-0.008476105,0.172693,1.7110754,1.4205672,-3.5482109,-1.1951579,0.6664292,4.219276,8.831177,0,1683969575.39871
-0.008476105,0.172693,1.7110754,1.4205672,-3.5482109,-1.1951579,1.1501727,4.4941244,8.643846,0,1683969575.414144
-0.008476105,0.172693,1.7110754,2.509129,-3.6354117,-1.1872166,1.1501727,4.4941244,8.643846,0,1683969575.4192424
0.19610901,0.31922594,1.9123067,2.509129,-3.6354117,-1.1872166,1.1501727,4.4941244,8.643846,0,1683969575.4243844
0.19610901,0.31922594,1.9123067,2.8880181,-3.2855387,-1.3051136,1.1501727,4.4941244,8.643846,0,1683969575.4500763
0.28093103,0.3591673,1.9199902,2.8880181,-3.2855387,-1.3051136,1.1501727,4.4941244,8.643846,0,1683969575.4653761
0.28093103,0.3591673,1.9199902,2.8880181,-3.2855387,-1.3051136,1.3854927,4.690073,8.504101,0,1683969575.4705138
0.28093103,0.3591673,1.9199902,3.1170926,-2.6203065,-1.4705054,1.3854927,4.690073,8.504101,0,1683969575.4808176
0.28093103,0.3591673,1.9199902,3.1170926,-2.6203065,-1.4705054,1.6659003,5.0365343,8.251921,0,1683969575.485964
0.31538427,0.35843554,1.8315703,3.1170926,-2.6203065,-1.4705054,1.6659003,5.0365343,8.251921,0,1683969575.4962502
0.31538427,0.35843554,1.8315703,3.1170926,-2.6203065,-1.4705054,1.7335181,5.1596255,8.161451,0,1683969575.521917
0.31538427,0.35843554,1.8315703,3.1316006,-2.2632558,-1.5624406,1.7335181,5.1596255,8.161451,0,1683969575.527063
0.33026317,0.36953375,1.6926596,3.1316006,-2.2632558,-1.5624406,1.7335181,5.1596255,8.161451,0,1683969575.5321965
0.33026317,0.36953375,1.6926596,3.0586023,-1.9843957,-1.6690365,1.7335181,5.1596255,8.161451,0,1683969575.5578368
0.33026317,0.36953375,1.6926596,3.0586023,-1.9843957,-1.6690365,1.866659,5.5279264,7.8862996,0,1683969575.5731747
0.32562876,0.40179175,1.4325225,3.0586023,-1.9843957,-1.6690365,1.866659,5.5279264,7.8862996,0,1683969575.5783148
0.31690875,0.41093862,1.3084301,3.0586023,-1.9843957,-1.6690365,1.866659,5.5279264,7.8862996,0,1683969575.5988846
0.31690875,0.41093862,1.3084301,2.9336803,-1.8715384,-1.7594446,1.866659,5.5279264,7.8862996,0,1683969575.6040316
0.31690875,0.41093862,1.3084301,2.9336803,-1.8715384,-1.7594446,1.9181292,5.764224,7.7026367,0,1683969575.614319
0.31690875,0.41093862,1.3084301,2.9336803,-1.8715384,-1.7594446,1.96812,6.100746,7.4258685,0,1683969575.6348765
0.28184572,0.43594006,1.2892826,2.9336803,-1.8715384,-1.7594446,1.96812,6.100746,7.4258685,0,1683969575.6400263
0.28184572,0.43594006,1.2892826,2.8747318,-1.835192,-1.781894,1.96812,6.100746,7.4258685,0,1683969575.6451652
0.28184572,0.43594006,1.2892826,2.916118,-1.7895297,-1.7757853,1.96812,6.100746,7.4258685,0,1683969575.6707826
0.28184572,0.43594006,1.2892826,2.916118,-1.7895297,-1.7757853,1.9893574,6.317496,7.2365613,0,1683969575.6810641
0.26428372,0.46874684,1.2808673,2.916118,-1.7895297,-1.7757853,1.9893574,6.317496,7.2365613,0,1683969575.6862183
0.26428372,0.46874684,1.2808673,2.916118,-1.7895297,-1.7757853,2.0012183,6.532863,7.039384,0,1683969575.701635
0.28623623,0.5225305,1.2745866,2.916118,-1.7895297,-1.7757853,2.0012183,6.532863,7.039384,0,1683969575.7068036
0.28623623,0.5225305,1.2745866,3.06578,-1.7638733,-1.8212948,2.0012183,6.532863,7.039384,0,1683969575.7119634
0.28623623,0.5225305,1.2745866,3.340364,-1.8493946,-1.9255999,2.0012183,6.532863,7.039384,0,1683969575.7274148
0.31190842,0.52875036,1.2427554,3.340364,-1.8493946,-1.9255999,2.0012183,6.532863,7.039384,0,1683969575.7326677
0.31190842,0.52875036,1.2427554,3.340364,-1.8493946,-1.9255999,2.0031009,6.7541313,6.826815,0,1683969575.7378473
0.31190842,0.52875036,1.2427554,3.340364,-1.8493946,-1.9255999,1.989983,7.1111856,6.4581037,0,1683969575.7685735
0.34471524,0.5336287,1.2298278,3.340364,-1.8493946,-1.9255999,1.989983,7.1111856,6.4581037,0,1683969575.773699
0.34471524,0.5336287,1.2298278,3.8182132,-2.0132592,-2.1013765,1.989983,7.1111856,6.4581037,0,1683969575.778841
0.40386504,0.5453367,1.2185466,3.8182132,-2.0132592,-2.1013765,1.989983,7.1111856,6.4581037,0,1683969575.799363
0.40386504,0.5453367,1.2185466,4.2563562,-2.1186333,-2.271655,1.989983,7.1111856,6.4581037,0,1683969575.8045034
0.40386504,0.5453367,1.2185466,4.2563562,-2.1186333,-2.271655,1.9685386,7.369938,6.168062,0,1683969575.809618
0.40386504,0.5453367,1.2185466,4.6583056,-2.031585,-2.484389,1.9685386,7.369938,6.168062,0,1683969575.835294
0.40386504,0.5453367,1.2185466,4.6583056,-2.031585,-2.484389,1.927008,7.6436133,5.839343,0,1683969575.8507154
0.45533144,0.5594229,1.1940941,4.6583056,-2.031585,-2.484389,1.927008,7.6436133,5.839343,0,1683969575.8558292
0.45533144,0.5594229,1.1940941,4.960837,-1.8449658,-2.755613,1.927008,7.6436133,5.839343,0,1683969575.8660214
0.41282898,0.50978583,1.0395119,4.960837,-1.8449658,-2.755613,1.927008,7.6436133,5.839343,0,1683969575.8711429
0.41282898,0.50978583,1.0395119,4.960837,-1.8449658,-2.755613,1.8938749,7.784173,5.6618023,0,1683969575.896851
0.41282898,0.50978583,1.0395119,5.0066514,-1.7676913,-2.883895,1.8938749,7.784173,5.6618023,0,1683969575.9173632
0.36252114,0.48258913,0.9318227,5.0066514,-1.7676913,-2.883895,1.8938749,7.784173,5.6618023,0,1683969575.922511
0.36252114,0.48258913,0.9318227,5.0066514,-1.7676913,-2.883895,-2.594869,9.376495,-1.2586185,0,1683969575.9481902
0.36252114,0.48258913,0.9318227,3.4272594,-1.3712398,-3.1972687,-2.594869,9.376495,-1.2586185,0,1683969575.9533067
-0.2438557,0.36691165,-0.19385278,3.4272594,-1.3712398,-3.1972687,-2.594869,9.376495,-1.2586185,0,1683969575.95845
-0.2438557,0.36691165,-0.19385278,3.4272594,-1.3712398,-3.1972687,-3.0367692,9.181449,-1.6477624,0,1683969575.9790316
-0.2438557,0.36691165,-0.19385278,3.2117767,-1.2709051,-3.131906,-3.0367692,9.181449,-1.6477624,0,1683969575.984171
-0.28989497,0.34270293,-0.17177832,3.2117767,-1.2709051,-3.131906,-3.0367692,9.181449,-1.6477624,0,1683969575.9893148
-0.28989497,0.34270293,-0.17177832,3.2117767,-1.2709051,-3.131906,-3.3222218,9.0373745,-1.8774568,0,1683969576.0047338
-0.28989497,0.34270293,-0.17177832,3.0112603,-1.1050552,-3.016758,-3.3222218,9.0373745,-1.8774568,0,1683969576.0200777
-0.32910457,0.33977592,-0.15458219,3.0112603,-1.1050552,-3.016758,-3.3222218,9.0373745,-1.8774568,0,1683969576.0252218
-0.34623972,0.35087416,-0.15128931,3.0112603,-1.1050552,-3.016758,-3.3222218,9.0373745,-1.8774568,0,1683969576.0405982
-0.34623972,0.35087416,-0.15128931,2.950479,-1.0291553,-2.9735394,-3.3222218,9.0373745,-1.8774568,0,1683969576.0457375
-0.34623972,0.35087416,-0.15128931,2.950479,-1.0291553,-2.9735394,-3.460608,8.962,-1.9856648,0,1683969576.0662677
-0.35648423,0.37502187,-0.15531394,2.950479,-1.0291553,-2.9735394,-3.460608,8.962,-1.9856648,0,1683969576.0919313
-0.35648423,0.37502187,-0.15531394,2.950479,-1.0291553,-2.9735394,-3.857101,8.72381,-2.2921672,0,1683969576.0970662
-0.35648423,0.37502187,-0.15531394,2.8385382,-0.84559023,-2.8919888,-3.857101,8.72381,-2.2921672,0,1683969576.1021686
-0.35648423,0.37502187,-0.15531394,2.8385382,-0.84559023,-2.8919888,-4.1072316,8.554719,-2.4866772,0,1683969576.117523
-0.35648423,0.37502187,-0.15531394,2.7472138,-0.6224717,-2.8131871,-4.1072316,8.554719,-2.4866772,0,1683969576.1226819
-0.38008317,0.38014415,-0.19562118,2.7472138,-0.6224717,-2.8131871,-4.1072316,8.554719,-2.4866772,0,1683969576.1329596
-0.39441326,0.40148684,-0.2906877,2.7472138,-0.6224717,-2.8131871,-4.1072316,8.554719,-2.4866772,0,1683969576.1534362
-0.39441326,0.40148684,-0.2906877,2.6067147,-0.3361286,-2.7676778,-4.1072316,8.554719,-2.4866772,0,1683969576.158573
-0.39441326,0.40148684,-0.2906877,2.6067147,-0.3361286,-2.7676778,-4.456823,8.288051,-2.771475,0,1683969576.1739628
-0.39441326,0.40148684,-0.2906877,2.6067147,-0.3361286,-2.7676778,-5.5055537,7.2262673,-3.7021682,0,1683969576.1893885
-0.8836491,0.31922594,-0.6753443,2.6067147,-0.3361286,-2.7676778,-5.5055537,7.2262673,-3.7021682,0,1683969576.1945202
-0.8836491,0.31922594,-0.6753443,2.6067147,-0.3361286,-2.7676778,-6.251371,6.6828895,-3.534887,0,1683969576.220176
-0.8836491,0.31922594,-0.6753443,-1.4355333,-1.1215485,2.140472,-6.251371,6.6828895,-3.534887,0,1683969576.22532
-0.8185843,0.35434994,-0.6397324,-1.4355333,-1.1215485,2.140472,-6.251371,6.6828895,-3.534887,0,1683969576.2304661
-0.8185843,0.35434994,-0.6397324,-1.4355333,-1.1215485,2.140472,-6.1580358,6.844065,-3.3872566,0,1683969576.2407095
-0.7619347,0.35087416,-0.5841804,-1.4355333,-1.1215485,2.140472,-6.1580358,6.844065,-3.3872566,0,1683969576.245852
-0.7619347,0.35087416,-0.5841804,-1.5366315,-1.1942415,2.274404,-6.1580358,6.844065,-3.3872566,0,1683969576.2561297
-0.7619347,0.35087416,-0.5841804,-1.5366315,-1.1942415,2.274404,-6.107838,6.926357,-3.309991,0,1683969576.2766912
-0.7619347,0.35087416,-0.5841804,-1.589624,-1.2434162,2.3487768,-6.107838,6.926357,-3.309991,0,1683969576.2817883
-0.74114084,0.34861788,-0.5618011,-1.589624,-1.2434162,2.3487768,-6.107838,6.926357,-3.309991,0,1683969576.2869337
-0.74114084,0.34861788,-0.5618011,-1.589624,-1.2434162,2.3487768,-5.9431915,7.177947,-3.0645862,0,1683969576.3228817
-0.6771737,0.34562993,-0.49356538,-1.589624,-1.2434162,2.3487768,-5.9431915,7.177947,-3.0645862,0,1683969576.328023
-0.6771737,0.34562993,-0.49356538,-1.6858354,-1.3480269,2.4901922,-5.9431915,7.177947,-3.0645862,0,1683969576.3331656
-0.64235455,0.33569032,-0.46435636,-1.6858354,-1.3480269,2.4901922,-5.9431915,7.177947,-3.0645862,0,1683969576.3537185
-0.64235455,0.33569032,-0.46435636,-1.6858354,-1.3480269,2.4901922,-5.8213906,7.3481693,-2.8899708,0,1683969576.3640025
-0.64235455,0.33569032,-0.46435636,-1.7313448,-1.4033102,2.559831,-5.8213906,7.3481693,-2.8899708,0,1683969576.3742814
-0.64235455,0.33569032,-0.46435636,-1.7313448,-1.4033102,2.559831,-5.6194468,7.6051726,-2.6113865,0,1683969576.379418
-0.60381573,0.32300666,-0.40063316,-1.7313448,-1.4033102,2.559831,-5.6194468,7.6051726,-2.6113865,0,1683969576.3845773
-0.60381573,0.32300666,-0.40063316,-1.8080084,-1.4732542,2.701246,-5.6194468,7.6051726,-2.6113865,0,1683969576.3948638
-0.5413121,0.34636167,-0.29379764,-1.8080084,-1.4732542,2.701246,-5.6194468,7.6051726,-2.6113865,0,1683969576.4257112
-0.5413121,0.34636167,-0.29379764,-1.8080084,-1.4732542,2.701246,-5.468465,7.7781453,-2.4150574,0,1683969576.4308527
-0.5413121,0.34636167,-0.29379764,-1.8800905,-1.486846,2.8472428,-5.468465,7.7781453,-2.4150574,0,1683969576.4359634
0.15592372,0.60832816,0.23251356,-1.8800905,-1.486846,2.8472428,-5.468465,7.7781453,-2.4150574,0,1683969576.4873126
0.15592372,0.60832816,0.23251356,-1.9343048,-0.7666359,3.4364223,-5.468465,7.7781453,-2.4150574,0,1683969576.4924176
0.15592372,0.60832816,0.23251356,-1.9343048,-0.7666359,3.4364223,-1.29018,9.694942,0.761342,0,1683969576.5078466
0.19702369,0.63332963,0.27330863,-1.9343048,-0.7666359,3.4364223,-1.29018,9.694942,0.761342,0,1683969576.5334847
0.19702369,0.63332963,0.27330863,-1.6432275,-1.016327,3.3794591,-1.29018,9.694942,0.761342,0,1683969576.5386257
0.19702369,0.63332963,0.27330863,-1.6432275,-1.016327,3.3794591,-0.9726753,9.71631,0.9398628,0,1683969576.5489142
0.25178298,0.676198,0.31325,-1.6432275,-1.016327,3.3794591,-0.9726753,9.71631,0.9398628,0,1683969576.5694778
0.25178298,0.676198,0.31325,-1.6432275,-1.016327,3.3794591,-0.65528256,9.727042,1.0914992,0,1683969576.574616
0.25178298,0.676198,0.31325,-1.2718215,-1.2307408,3.366631,-0.65528256,9.727042,1.0914992,0,1683969576.584894
0.25178298,0.676198,0.31325,-1.2718215,-1.2307408,3.366631,-0.33385614,9.728649,1.2157619,0,1683969576.5951781
0.25178298,0.676198,0.31325,-1.0708468,-1.2339478,3.3874004,-0.33385614,9.728649,1.2157619,0,1683969576.6054673
0.307274,0.7364454,0.3259946,-1.0708468,-1.2339478,3.3874004,-0.33385614,9.728649,1.2157619,0,1683969576.6106243
0.31617698,0.75620264,0.3114816,-1.0708468,-1.2339478,3.3874004,-0.33385614,9.728649,1.2157619,0,1683969576.6464994
0.31617698,0.75620264,0.3114816,-1.0317514,-1.0567969,3.426954,-0.33385614,9.728649,1.2157619,0,1683969576.6516023
0.31617698,0.75620264,0.3114816,-1.0317514,-1.0567969,3.426954,-0.010457453,9.7209215,1.3189734,0,1683969576.6567428
0.3816686,0.77858204,0.29385862,-1.0317514,-1.0567969,3.426954,-0.010457453,9.7209215,1.3189734,0,1683969576.6669924
0.3816686,0.77858204,0.29385862,-1.0317514,-1.0567969,3.426954,0.3141902,9.702141,1.4162928,0,1683969576.677234
0.3816686,0.77858204,0.29385862,-1.2305881,-0.62598413,3.4640641,0.3141902,9.702141,1.4162928,0,1683969576.6875198
0.3816686,0.77858204,0.29385862,-1.2305881,-0.62598413,3.4640641,0.79731876,9.648228,1.5849645,0,1683969576.713189
0.3816686,0.77858204,0.29385862,-1.5137241,-0.16310102,3.438255,0.79731876,9.648228,1.5849645,0,1683969576.718377
0.450819,0.8204747,0.31306705,-1.5137241,-0.16310102,3.438255,0.79731876,9.648228,1.5849645,0,1683969576.7235022
0.49832174,0.8611478,0.40331623,-1.5137241,-0.16310102,3.438255,0.79731876,9.648228,1.5849645,0,1683969576.7389345
1.1174433,1.1548845,0.46807608,-1.5137241,-0.16310102,3.438255,0.79731876,9.648228,1.5849645,0,1683969576.7594283
0.5989374,0.8234017,0.46210015,-1.5137241,-0.16310102,3.438255,0.79731876,9.648228,1.5849645,0,1683969576.7748485
0.5989374,0.8234017,0.46210015,-1.5137241,-0.16310102,3.438255,1.6202403,9.361015,2.4458823,0,1683969576.780001
0.5989374,0.8234017,0.46210015,1.6340646,1.0503827,-2.2785273,1.6202403,9.361015,2.4458823,0,1683969576.7953594
0.5989374,0.8234017,0.46210015,1.7385225,1.0320568,-2.4584272,1.6202403,9.361015,2.4458823,0,1683969576.8108032
0.54777586,0.77217925,0.3989867,1.7385225,1.0320568,-2.4584272,1.6202403,9.361015,2.4458823,0,1683969576.82109
0.54777586,0.77217925,0.3989867,1.7385225,1.0320568,-2.4584272,1.4098518,9.426055,2.3233385,0,1683969576.8364785
0.54777586,0.77217925,0.3989867,1.7385225,1.0320568,-2.4584272,1.1873875,9.488336,2.1903706,0,1683969576.851874
0.54777586,0.77217925,0.3989867,1.7986927,0.9963212,-2.5969408,1.1873875,9.488336,2.1903706,0,1683969576.8570156
0.5013097,0.73028654,0.3605698,1.7986927,0.9963212,-2.5969408,1.1873875,9.488336,2.1903706,0,1683969576.8672562
0.46411243,0.69473565,0.32556778,1.7986927,0.9963212,-2.5969408,1.1873875,9.488336,2.1903706,0,1683969576.892964
0.46411243,0.69473565,0.32556778,1.8562667,0.97173387,-2.727055,1.1873875,9.488336,2.1903706,0,1683969576.898108
0.46411243,0.69473565,0.32556778,1.8562667,0.97173387,-2.727055,0.95390546,9.546152,2.0486984,0,1683969576.9083478
0.46411243,0.69473565,0.32556778,1.8562667,0.97173387,-2.727055,0.7105066,9.598199,1.8989115,0,1683969576.9134953
0.46411243,0.69473565,0.32556778,1.9066632,0.90041536,-2.8580859,0.7105066,9.598199,1.8989115,0,1683969576.923743
0.41953668,0.66686815,0.28666306,1.9066632,0.90041536,-2.8580859,0.7105066,9.598199,1.8989115,0,1683969576.9442952
0.36599696,0.62942696,0.27141827,1.9066632,0.90041536,-2.8580859,0.7105066,9.598199,1.8989115,0,1683969576.9494257
0.36599696,0.62942696,0.27141827,1.9856175,0.8022188,-3.0085113,0.7105066,9.598199,1.8989115,0,1683969576.9648857
0.36599696,0.62942696,0.27141827,1.9856175,0.8022188,-3.0085113,0.32608432,9.663137,1.6593802,0,1683969576.9803061
0.36599696,0.62942696,0.27141827,2.0862575,0.73853606,-3.1418326,0.32608432,9.663137,1.6593802,0,1683969576.9905953
0.31654286,0.59381515,0.2397701,2.0862575,0.73853606,-3.1418326,0.32608432,9.663137,1.6593802,0,1683969577.00603
0.31654286,0.59381515,0.2397701,2.0862575,0.73853606,-3.1418326,0.05871248,9.696131,1.4892023,0,1683969577.0111701
0.31654286,0.59381515,0.2397701,2.1733057,0.6479753,-3.2446108,0.05871248,9.696131,1.4892023,0,1683969577.0265942
0.27879676,0.56161815,0.20909756,2.1733057,0.6479753,-3.2446108,0.05871248,9.696131,1.4892023,0,1683969577.0368865
0.27879676,0.56161815,0.20909756,2.1733057,0.6479753,-3.2446108,-0.21660894,9.71981,1.3093957,0,1683969577.041985
0.27879676,0.56161815,0.20909756,1.084744,-0.6253733,-2.7151432,-0.21660894,9.71981,1.3093957,0,1683969577.062566
-1.6576577,0.004085604,-0.8963937,1.084744,-0.6253733,-2.7151432,-0.21660894,9.71981,1.3093957,0,1683969577.0677133
-1.6576577,0.004085604,-0.8963937,1.084744,-0.6253733,-2.7151432,-6.985913,6.0008216,-3.3798282,0,1683969577.083149
-1.6576577,0.004085604,-0.8963937,0.7493789,-0.30375275,-2.3806946,-6.985913,6.0008216,-3.3798282,0,1683969577.0882998
-1.6576577,0.004085604,-0.8963937,0.7493789,-0.30375275,-2.3806946,-7.16334,5.7742567,-3.403037,0,1683969577.0985703
-1.7451628,-0.02128173,-0.8799294,0.7493789,-0.30375275,-2.3806946,-7.16334,5.7742567,-3.403037,0,1683969577.1088517
-1.7451628,-0.02128173,-0.8799294,0.7493789,-0.30375275,-2.3806946,-7.3524265,5.5083275,-3.4403908,0,1683969577.134561
-1.8685236,-0.04439283,-0.8979792,0.7493789,-0.30375275,-2.3806946,-7.3524265,5.5083275,-3.4403908,0,1683969577.1397114
-1.8685236,-0.04439283,-0.8979792,0.076816306,0.35811976,-1.638646,-7.3524265,5.5083275,-3.4403908,0,1683969577.1551325
-1.9349301,-0.058844898,-0.95157987,0.076816306,0.35811976,-1.638646,-7.3524265,5.5083275,-3.4403908,0,1683969577.1756892
-1.9349301,-0.058844898,-0.95157987,0.076816306,0.35811976,-1.638646,-7.4264274,5.387724,-3.472282,0,1683969577.1859777
-1.9349301,-0.058844898,-0.95157987,-0.29917124,0.66553766,-1.1067351,-7.4264274,5.387724,-3.472282,0,1683969577.1911342
-1.9349301,-0.058844898,-0.95157987,-0.58200186,0.7281514,-0.56092703,-7.4264274,5.387724,-3.472282,0,1683969577.2116706
-1.9349301,-0.058844898,-0.95157987,-0.58200186,0.7281514,-0.56092703,-7.463764,5.313964,-3.5057316,0,1683969577.2219546
-1.9432232,-0.055247124,-1.0073758,-0.58200186,0.7281514,-0.56092703,-7.463764,5.313964,-3.5057316,0,1683969577.2271004
-1.9432232,-0.055247124,-1.0073758,-0.58200186,0.7281514,-0.56092703,-7.472583,5.2856917,-3.5295987,0,1683969577.237397
-1.9018182,-0.028477272,-0.9974363,-0.58200186,0.7281514,-0.56092703,-7.472583,5.2856917,-3.5295987,0,1683969577.2476673
-1.9018182,-0.028477272,-0.9974363,-0.79412484,0.53985214,0.064599,-7.472583,5.2856917,-3.5295987,0,1683969577.2579548
-1.8119351,0.023720896,-0.95792174,-0.79412484,0.53985214,0.064599,-7.472583,5.2856917,-3.5295987,0,1683969577.2733731
-1.8119351,0.023720896,-0.95792174,-0.8593347,0.37003163,0.3846924,-7.472583,5.2856917,-3.5295987,0,1683969577.2785094
-1.8119351,0.023720896,-0.95792174,-0.8593347,0.37003163,0.3846924,-7.461566,5.2974415,-3.5352929,0,1683969577.293933
-1.8119351,0.023720896,-0.95792174,-0.90133166,0.07422013,0.79213953,-7.461566,5.2974415,-3.5352929,0,1683969577.3196511
-1.8119351,0.023720896,-0.95792174,-1.8032742,-1.0453432,3.500716,-7.461566,5.2974415,-3.5352929,0,1683969577.3350513
-1.8119351,0.023720896,-0.95792174,-1.8032742,-1.0453432,3.500716,-4.166977,8.864413,-0.5427778,0,1683969577.3401961
-0.27885774,0.374717,-0.042502478,-1.8032742,-1.0453432,3.500716,-4.166977,8.864413,-0.5427778,0,1683969577.3453407
-0.23233064,0.37983924,-0.0015854583,-1.8032742,-1.0453432,3.500716,-4.166977,8.864413,-0.5427778,0,1683969577.3504527
0.03164819,0.37124115,0.08030956,-1.8032742,-1.0453432,3.500716,-4.166977,8.864413,-0.5427778,0,1683969577.355608
0.03164819,0.37124115,0.08030956,-1.8032742,-1.0453432,3.500716,-2.142357,9.55487,0.5923499,0,1683969577.370999
0.03164819,0.37124115,0.08030956,-1.7502817,-0.77503526,4.053549,-2.142357,9.55487,0.5923499,0,1683969577.386384
0.14220342,0.41618282,0.107506275,-1.7502817,-0.77503526,4.053549,-2.142357,9.55487,0.5923499,0,1683969577.3915343
0.14220342,0.41618282,0.107506275,-1.7502817,-0.77503526,4.053549,-1.5893847,9.643047,0.8494742,0,1683969577.401807
0.14220342,0.41618282,0.107506275,-1.8228219,-0.7301367,4.0566034,-1.5893847,9.643047,0.8494742,0,1683969577.4120874
0.14220342,0.41618282,0.107506275,-1.8228219,-0.7301367,4.0566034,-1.4026222,9.6639,0.93690234,0,1683969577.4428992
0.14220342,0.41618282,0.107506275,-1.8593211,-0.7147123,4.000098,-1.4026222,9.6639,0.93690234,0,1683969577.4480362
0.20385335,0.44746515,0.14409378,-1.8593211,-0.7147123,4.000098,-1.4026222,9.6639,0.93690234,0,1683969577.4532008
0.20385335,0.44746515,0.14409378,-1.8852829,-0.6774496,3.8412733,-1.4026222,9.6639,0.93690234,0,1683969577.4840224
0.2828214,0.47984505,0.20885365,-1.8852829,-0.6774496,3.8412733,-1.4026222,9.6639,0.93690234,0,1683969577.4891653
0.2828214,0.47984505,0.20885365,-1.8852829,-0.6774496,3.8412733,-0.8493511,9.698829,1.2030951,0,1683969577.4943056
0.2828214,0.47984505,0.20885365,-1.8852829,-0.6774496,3.8412733,-0.49228528,9.699927,1.3802832,0,1683969577.514847
0.2828214,0.47984505,0.20885365,-1.8629863,-0.68416905,3.663206,-0.49228528,9.699927,1.3802832,0,1683969577.5199897
0.3521547,0.51557887,0.25855166,-1.8629863,-0.68416905,3.663206,-0.49228528,9.699927,1.3802832,0,1683969577.5251315
0.42490283,0.57064307,0.307274,-1.8629863,-0.68416905,3.663206,-0.49228528,9.699927,1.3802832,0,1683969577.5559235
0.42490283,0.57064307,0.307274,-1.767844,-0.77381355,3.4739907,-0.49228528,9.699927,1.3802832,0,1683969577.5610664
0.42490283,0.57064307,0.307274,-1.767844,-0.77381355,3.4739907,0.020637749,9.672622,1.635875,0,1683969577.5662098
0.42490283,0.57064307,0.307274,-1.767844,-0.77381355,3.4739907,0.18574996,9.656956,1.7160567,0,1683969577.5867295
0.45972195,0.61156005,0.3383734,-1.767844,-0.77381355,3.4739907,0.18574996,9.656956,1.7160567,0,1683969577.591875
0.45972195,0.61156005,0.3383734,-1.6633861,-0.8790351,3.364035,0.18574996,9.656956,1.7160567,0,1683969577.5970142
0.45972195,0.61156005,0.3383734,-0.044898596,0.060170226,0.5103779,0.18574996,9.656956,1.7160567,0,1683969577.6071844
1.1307367,1.3740436,0.8075471,-0.044898596,0.060170226,0.5103779,0.18574996,9.656956,1.7160567,0,1683969577.617446
1.1307367,1.3740436,0.8075471,-0.044898596,0.060170226,0.5103779,3.3389082,8.875488,2.51267,0,1683969577.6225877
1.1524453,1.3957522,0.77467936,-0.044898596,0.060170226,0.5103779,3.3389082,8.875488,2.51267,0,1683969577.6585348
1.1524453,1.3957522,0.77467936,-0.044898596,0.060170226,0.5103779,3.4009407,8.847893,2.5267608,0,1683969577.663678
1.1524453,1.3957522,0.77467936,0.0421497,0.30680707,0.32910365,3.4009407,8.847893,2.5267608,0,1683969577.6688218
1.1524453,1.3957522,0.77467936,0.0421497,0.30680707,0.32910365,3.4131515,8.841656,2.532118,0,1683969577.679108
1.1561041,1.3980694,0.74705577,0.0421497,0.30680707,0.32910365,3.4131515,8.841656,2.532118,0,1683969577.694556
1.1561041,1.3980694,0.74705577,0.031001411,0.5552765,0.14737125,3.4131515,8.841656,2.532118,0,1683969577.7048345
1.147628,1.3780682,0.7132124,0.031001411,0.5552765,0.14737125,3.4131515,8.841656,2.532118,0,1683969577.7254016
1.147628,1.3780682,0.7132124,0.031001411,0.5552765,0.14737125,3.41895,8.830994,2.561338,0,1683969577.7305415
1.147628,1.3780682,0.7132124,-0.0032070426,0.8046622,-0.051618114,3.41895,8.830994,2.561338,0,1683969577.7356899
1.147628,1.3780682,0.7132124,-0.021838432,1.0329732,-0.32742378,3.41895,8.830994,2.561338,0,1683969577.7459674
1.132932,1.3425784,0.6739418,-0.021838432,1.0329732,-0.32742378,3.41895,8.830994,2.561338,0,1683969577.7665572
1.132932,1.3425784,0.6739418,-0.021838432,1.0329732,-0.32742378,3.395614,8.830937,2.5923874,0,1683969577.7716947
1.1126869,1.3051372,0.6507087,-0.021838432,1.0329732,-0.32742378,3.395614,8.830937,2.5923874,0,1683969577.802555
1.1126869,1.3051372,0.6507087,-0.021838432,1.0329732,-0.32742378,3.3191235,8.844088,2.6460657,0,1683969577.8076978
1.1126869,1.3051372,0.6507087,0.035277467,1.1265882,-0.6507242,3.3191235,8.844088,2.6460657,0,1683969577.8128457
1.1126869,1.3051372,0.6507087,0.14019357,1.1301007,-0.9112582,3.3191235,8.844088,2.6460657,0,1683969577.8230996
1.1126869,1.3051372,0.6507087,0.14019357,1.1301007,-0.9112582,3.2400014,8.864105,2.6769657,0,1683969577.838515
1.0755506,1.2600735,0.6607703,0.14019357,1.1301007,-0.9112582,3.2400014,8.864105,2.6769657,0,1683969577.8436537
1.036097,1.2101315,0.6582701,0.14019357,1.1301007,-0.9112582,3.2400014,8.864105,2.6769657,0,1683969577.8539271
1.036097,1.2101315,0.6582701,0.14019357,1.1301007,-0.9112582,3.140286,8.893795,2.6972454,0,1683969577.8590708
-0.4056944,0.25080732,-0.08939546,0.14019357,1.1301007,-0.9112582,3.140286,8.893795,2.6972454,0,1683969577.8949845
-0.4056944,0.25080732,-0.08939546,1.6658295,0.51923543,-3.748269,3.140286,8.893795,2.6972454,0,1683969577.905255
-0.4056944,0.25080732,-0.08939546,1.6658295,0.51923543,-3.748269,-4.3232756,8.794558,-0.44851655,0,1683969577.9103599
-0.4056944,0.25080732,-0.08939546,1.5102116,0.7102836,-3.5718818,-4.3232756,8.794558,-0.44851655,0,1683969577.9257822
-0.44392833,0.25562465,-0.07219934,1.5102116,0.7102836,-3.5718818,-4.3232756,8.794558,-0.44851655,0,1683969577.9412034
-0.44392833,0.25562465,-0.07219934,1.5102116,0.7102836,-3.5718818,-4.476627,8.713134,-0.52649796,0,1683969577.946336
-0.49301654,0.30635932,-0.05469831,1.5102116,0.7102836,-3.5718818,-4.476627,8.713134,-0.52649796,0,1683969577.9617293
-0.49301654,0.30635932,-0.05469831,1.5102116,0.7102836,-3.5718818,-4.763144,8.549315,-0.676579,0,1683969577.9668767
-0.49301654,0.30635932,-0.05469831,1.2753339,1.1586586,-3.3276885,-4.763144,8.549315,-0.676579,0,1683969577.977163
-0.49301654,0.30635932,-0.05469831,1.0984885,1.6123788,-3.1418326,-4.763144,8.549315,-0.676579,0,1683969577.99258
-0.53606784,0.32392135,-0.102445,1.0984885,1.6123788,-3.1418326,-4.763144,8.549315,-0.676579,0,1683969577.997717
-0.53606784,0.32392135,-0.102445,1.0984885,1.6123788,-3.1418326,-5.14684,8.302328,-0.90415263,0,1683969578.0079408
-0.53606784,0.32392135,-0.102445,1.009913,1.871233,-2.9874365,-5.14684,8.302328,-0.90415263,0,1683969578.04378
-0.59296143,0.30892047,-0.18409611,1.009913,1.871233,-2.9874365,-5.14684,8.302328,-0.90415263,0,1683969578.0489156
-0.59296143,0.30892047,-0.18409611,1.009913,1.871233,-2.9874365,-5.3753953,8.136574,-1.0664989,0,1683969578.0540593
-0.59296143,0.30892047,-0.18409611,1.009913,1.871233,-2.9874365,-5.6785336,7.888421,-1.3278402,0,1683969578.0694656
-0.6572335,0.29032183,-0.31660384,1.009913,1.871233,-2.9874365,-5.6785336,7.888421,-1.3278402,0,1683969578.0797405
-0.6572335,0.29032183,-0.31660384,0.93752545,1.9932534,-2.7517953,-5.6785336,7.888421,-1.3278402,0,1683969578.0900214
-0.69650406,0.31062788,-0.4045358,0.93752545,1.9932534,-2.7517953,-5.6785336,7.888421,-1.3278402,0,1683969578.1054058
-0.69650406,0.31062788,-0.4045358,0.93752545,1.9932534,-2.7517953,-5.852365,7.727831,-1.5055078,0,1683969578.1156147
-0.69650406,0.31062788,-0.4045358,0.889878,1.9469802,-2.5712845,-5.852365,7.727831,-1.5055078,0,1683969578.1207242
-0.72870106,0.3494716,-0.47746688,0.889878,1.9469802,-2.5712845,-5.852365,7.727831,-1.5055078,0,1683969578.141273
-0.72870106,0.3494716,-0.47746688,0.889878,1.9469802,-2.5712845,-6.0077662,7.5713177,-1.6786971,0,1683969578.1515343
-0.72870106,0.3494716,-0.47746688,0.8454375,1.8096883,-2.4329236,-6.0077662,7.5713177,-1.6786971,0,1683969578.1566415
-0.72870106,0.3494716,-0.47746688,-0.9786061,-1.4337007,2.6983445,-6.0077662,7.5713177,-1.6786971,0,1683969578.172048
-0.72870106,0.3494716,-0.47746688,-0.9786061,-1.4337007,2.6983445,-6.9985056,6.59577,-1.9372201,0,1683969578.1771882
-0.8512692,0.2432459,-0.4551485,-0.9786061,-1.4337007,2.6983445,-6.9985056,6.59577,-1.9372201,0,1683969578.1925707
-0.7671179,0.25690526,-0.36605796,-0.9786061,-1.4337007,2.6983445,-6.9985056,6.59577,-1.9372201,0,1683969578.21309
-0.7671179,0.25690526,-0.36605796,-1.0519099,-1.4227052,2.8223503,-6.9985056,6.59577,-1.9372201,0,1683969578.2181952
-0.7671179,0.25690526,-0.36605796,-1.0519099,-1.4227052,2.8223503,-6.8666244,6.771842,-1.7965834,0,1683969578.2284076
-0.7149198,0.27422333,-0.30623737,-1.0519099,-1.4227052,2.8223503,-6.8666244,6.771842,-1.7965834,0,1683969578.2386904
-0.7149198,0.27422333,-0.30623737,-1.1293371,-1.3515394,2.9484937,-6.8666244,6.771842,-1.7965834,0,1683969578.2591891
-0.7149198,0.27422333,-0.30623737,-1.1293371,-1.3515394,2.9484937,-6.6431804,7.0440474,-1.5766082,0,1683969578.2643301
-0.66778284,0.28465074,-0.27696738,-1.1293371,-1.3515394,2.9484937,-6.6431804,7.0440474,-1.5766082,0,1683969578.2899485
-0.66778284,0.28465074,-0.27696738,-1.1607966,-1.3367258,3.0469959,-6.6431804,7.0440474,-1.5766082,0,1683969578.2950816
-0.66778284,0.28465074,-0.27696738,-1.1607966,-1.3367258,3.0469959,-6.477039,7.227924,-1.4287117,0,1683969578.3002224
-0.66778284,0.28465074,-0.27696738,-1.1607966,-1.3367258,3.0469959,-6.203262,7.5035768,-1.2049819,0,1683969578.3257623
-0.66778284,0.28465074,-0.27696738,-1.1527027,-1.4159856,3.1731396,-6.203262,7.5035768,-1.2049819,0,1683969578.3308883
-0.61174303,0.280992,-0.2625763,-1.1527027,-1.4159856,3.1731396,-6.203262,7.5035768,-1.2049819,0,1683969578.3360372
-0.61174303,0.280992,-0.2625763,-1.1527027,-1.4159856,3.1731396,-6.0047555,7.6858068,-1.052341,0,1683969578.3565202
-0.61174303,0.280992,-0.2625763,-1.1407908,-1.5247196,3.2821789,-6.0047555,7.6858068,-1.052341,0,1683969578.3616629
-0.5669843,0.26904008,-0.24727054,-1.1407908,-1.5247196,3.2821789,-6.0047555,7.6858068,-1.052341,0,1683969578.3770938
-0.5669843,0.26904008,-0.24727054,-1.1560625,-1.6015359,3.421609,-6.0047555,7.6858068,-1.052341,0,1683969578.3822367
-0.50039506,0.2520269,-0.20281671,-1.1560625,-1.6015359,3.421609,-6.0047555,7.6858068,-1.052341,0,1683969578.387346
-0.50039506,0.2520269,-0.20281671,-1.1560625,-1.6015359,3.421609,-5.7924075,7.8664994,-0.89573324,0,1683969578.4078894
-0.44886765,0.2338551,-0.17433943,-1.1560625,-1.6015359,3.421609,-5.7924075,7.8664994,-0.89573324,0,1683969578.423192
-0.44886765,0.2338551,-0.17433943,-1.1560625,-1.6015359,3.421609,0.03701463,9.692903,1.5107592,0,1683969578.4385972
-0.44886765,0.2338551,-0.17433943,-0.50488013,-1.4651603,3.1050282,0.03701463,9.692903,1.5107592,0,1683969578.448875
-0.44886765,0.2338551,-0.17433943,-0.26740626,-1.5844318,2.9055805,0.03701463,9.692903,1.5107592,0,1683969578.4642231
0.55302006,0.863709,0.28885832,-0.26740626,-1.5844318,2.9055805,0.03701463,9.692903,1.5107592,0,1683969578.4899137
0.55302006,0.863709,0.28885832,-0.26740626,-1.5844318,2.9055805,0.33889148,9.680756,1.5505642,0,1683969578.4950519
0.58424145,0.86383086,0.29288295,-0.26740626,-1.5844318,2.9055805,0.33889148,9.680756,1.5505642,0,1683969578.5104215
0.58424145,0.86383086,0.29288295,-0.19761491,-1.6285667,2.798832,0.33889148,9.680756,1.5505642,0,1683969578.5257485
0.58424145,0.86383086,0.29288295,-0.19761491,-1.6285667,2.798832,0.7709613,9.6519375,1.5753856,0,1683969578.5308714
0.585522,0.86797744,0.3664848,-0.19761491,-1.6285667,2.798832,0.7709613,9.6519375,1.5753856,0,1683969578.5514205
0.585522,0.86797744,0.3664848,-0.19761491,-1.6285667,2.798832,1.0495677,9.623756,1.5867765,0,1683969578.561703
0.585522,0.86797744,0.3664848,-0.31474832,-1.467451,2.7620273,1.0495677,9.623756,1.5867765,0,1683969578.566854
0.585522,0.86797744,0.3664848,-0.6478226,-0.88071495,2.7780623,1.0495677,9.623756,1.5867765,0,1683969578.571997
0.585522,0.86797744,0.3664848,-0.6478226,-0.88071495,2.7780623,1.3203037,9.585907,1.6134732,0,1683969578.5822668
0.5457026,0.8457201,0.5139934,-0.6478226,-0.88071495,2.7780623,1.3203037,9.585907,1.6134732,0,1683969578.5873682
0.4987486,0.8219382,0.63826895,-0.6478226,-0.88071495,2.7780623,1.3203037,9.585907,1.6134732,0,1683969578.618126
0.4987486,0.8219382,0.63826895,-0.6478226,-0.88071495,2.7780623,1.5830582,9.536085,1.671267,0,1683969578.6334257
0.4987486,0.8219382,0.63826895,-0.97249746,-0.1684461,2.855795,1.5830582,9.536085,1.671267,0,1683969578.6385577
0.51228595,0.79882705,0.6630875,-0.97249746,-0.1684461,2.855795,1.5830582,9.536085,1.671267,0,1683969578.6437082
0.51228595,0.79882705,0.6630875,-1.2863295,0.68661255,3.041498,1.5830582,9.536085,1.671267,0,1683969578.6488123
0.51228595,0.79882705,0.6630875,-1.2863295,0.68661255,3.041498,1.8394734,9.472591,1.767052,0,1683969578.6693702
0.51228595,0.79882705,0.6630875,-1.3440562,0.97142845,3.1471777,1.8394734,9.472591,1.767052,0,1683969578.6796424
0.51228595,0.79882705,0.6630875,-1.3440562,0.97142845,3.1471777,2.095825,9.394271,1.895071,0,1683969578.6899192
0.61607254,0.8526717,0.617536,-1.3440562,0.97142845,3.1471777,2.095825,9.394271,1.895071,0,1683969578.6950772
0.5291162,0.86578226,0.45289227,-1.3440562,0.97142845,3.1471777,2.095825,9.394271,1.895071,0,1683969578.7360208
0.5291162,0.86578226,0.45289227,0.63194007,1.7162259,-2.3299928,2.095825,9.394271,1.895071,0,1683969578.741139
0.5291162,0.86578226,0.45289227,0.63194007,1.7162259,-2.3299928,1.94962,9.308626,2.4051142,0,1683969578.7462828
0.5291162,0.86578226,0.45289227,0.63194007,1.7162259,-2.3299928,1.7214283,9.359052,2.3834708,0,1683969578.7617054
0.5291162,0.86578226,0.45289227,0.73914695,1.7437148,-2.4210117,1.7214283,9.359052,2.3834708,0,1683969578.7719884
0.49423614,0.85541576,0.4216709,0.73914695,1.7437148,-2.4210117,1.7214283,9.359052,2.3834708,0,1683969578.7770944
0.44478208,0.8113278,0.3363001,0.73914695,1.7437148,-2.4210117,1.7214283,9.359052,2.3834708,0,1683969578.797631
0.44478208,0.8113278,0.3363001,0.73914695,1.7437148,-2.4210117,1.4820354,9.409805,2.3441951,0,1683969578.8130503
0.44478208,0.8113278,0.3363001,0.97249746,1.6650659,-2.5902214,1.4820354,9.409805,2.3441951,0,1683969578.818153
0.44478208,0.8113278,0.3363001,0.97249746,1.6650659,-2.5902214,1.1049522,9.486209,2.2421062,0,1683969578.8438067
0.40758476,0.7648617,0.2403189,0.97249746,1.6650659,-2.5902214,1.1049522,9.486209,2.2421062,0,1683969578.8489518
0.40758476,0.7648617,0.2403189,1.2243266,1.4133894,-2.7936394,1.1049522,9.486209,2.2421062,0,1683969578.8591943
0.40758476,0.7648617,0.2403189,1.479363,1.026559,-3.0027082,1.1049522,9.486209,2.2421062,0,1683969578.8746068
0.40758476,0.7648617,0.2403189,1.479363,1.026559,-3.0027082,0.8417073,9.536065,2.1426847,0,1683969578.890026
0.37636343,0.714249,0.18751094,1.479363,1.026559,-3.0027082,0.8417073,9.536065,2.1426847,0,1683969578.8951678
0.37636343,0.714249,0.18751094,1.479363,1.026559,-3.0027082,0.57106775,9.58282,2.0197973,0,1683969578.9156394
0.37636343,0.714249,0.18751094,1.691944,0.71578133,-3.1633656,0.57106775,9.58282,2.0197973,0,1683969578.925895
0.34709343,0.6933941,0.18982814,1.691944,0.71578133,-3.1633656,0.57106775,9.58282,2.0197973,0,1683969578.930994
0.34709343,0.6933941,0.18982814,1.8920023,0.4503604,-3.3257031,0.57106775,9.58282,2.0197973,0,1683969578.946315
0.34709343,0.6933941,0.18982814,1.8920023,0.4503604,-3.3257031,0.29155913,9.624744,1.8749448,0,1683969578.951445
0.30800578,0.6782713,0.19592606,1.8920023,0.4503604,-3.3257031,0.29155913,9.624744,1.8749448,0,1683969578.9617233
0.30800578,0.6782713,0.19592606,1.8920023,0.4503604,-3.3257031,-0.14745684,9.6737385,1.6227065,0,1683969578.9925623
-1.0807338,0.38215643,-0.7686424,1.8920023,0.4503604,-3.3257031,-0.14745684,9.6737385,1.6227065,0,1683969579.0028453
-1.0807338,0.38215643,-0.7686424,1.8920023,0.4503604,-3.3257031,-6.1605716,7.3577843,-2.036296,0,1683969579.0079832
-1.0807338,0.38215643,-0.7686424,1.026559,0.8576548,-2.3212879,-6.1605716,7.3577843,-2.036296,0,1683969579.018228
-1.293795,0.31953084,-0.7968148,1.026559,0.8576548,-2.3212879,-6.1605716,7.3577843,-2.036296,0,1683969579.0489016
-1.293795,0.31953084,-0.7968148,0.9315695,0.48808134,-2.1358902,-6.1605716,7.3577843,-2.036296,0,1683969579.0591788
-1.293795,0.31953084,-0.7968148,0.9315695,0.48808134,-2.1358902,-6.7465305,6.609263,-2.6529443,0,1683969579.0643208
-1.293795,0.31953084,-0.7968148,0.79702646,0.32345316,-1.8930714,-6.7465305,6.609263,-2.6529443,0,1683969579.0848818
-1.4143509,0.28922418,-0.79650986,0.79702646,0.32345316,-1.8930714,-6.7465305,6.609263,-2.6529443,0,1683969579.0951319
-1.4143509,0.28922418,-0.79650986,0.79702646,0.32345316,-1.8930714,-6.9234977,6.368176,-2.7834508,0,1683969579.1002758
-1.4953922,0.2681864,-0.7905949,0.79702646,0.32345316,-1.8930714,-6.9234977,6.368176,-2.7834508,0,1683969579.1156967
-1.4953922,0.2681864,-0.7905949,0.64461553,0.27550024,-1.6362026,-6.9234977,6.368176,-2.7834508,0,1683969579.1208398
-1.4953922,0.2681864,-0.7905949,0.64461553,0.27550024,-1.6362026,-7.0260253,6.224121,-2.8515596,0,1683969579.1259868
-1.5544809,0.24964872,-0.79285115,0.64461553,0.27550024,-1.6362026,-7.0260253,6.224121,-2.8515596,0,1683969579.1464343
-1.5544809,0.24964872,-0.79285115,0.64461553,0.27550024,-1.6362026,-7.1114483,6.099979,-2.9075234,0,1683969579.1618593
-1.5544809,0.24964872,-0.79285115,0.40133846,0.31306845,-1.2730432,-7.1114483,6.099979,-2.9075234,0,1683969579.1669588
-1.6109476,0.23781876,-0.81059605,0.40133846,0.31306845,-1.2730432,-7.1114483,6.099979,-2.9075234,0,1683969579.1926558
-1.6109476,0.23781876,-0.81059605,0.40133846,0.31306845,-1.2730432,-7.1783457,5.9983916,-2.9541094,0,1683969579.1977844
-1.6109476,0.23781876,-0.81059605,0.19043724,0.35308012,-0.9669997,-7.1783457,5.9983916,-2.9541094,0,1683969579.2080166
-1.6109476,0.23781876,-0.81059605,0.19043724,0.35308012,-0.9669997,-7.226176,5.9219527,-2.9914877,0,1683969579.2182841
-1.6327783,0.22708642,-0.822304,0.19043724,0.35308012,-0.9669997,-7.226176,5.9219527,-2.9914877,0,1683969579.2336318
-1.6327783,0.22708642,-0.822304,-0.0021380284,0.35048392,-0.6386596,-7.226176,5.9219527,-2.9914877,0,1683969579.243867
-1.6327783,0.22708642,-0.822304,-0.21319197,0.2744312,-0.22113322,-7.226176,5.9219527,-2.9914877,0,1683969579.2592063
-1.621985,0.22172025,-0.82998747,-0.21319197,0.2744312,-0.22113322,-7.226176,5.9219527,-2.9914877,0,1683969579.2643497
-1.621985,0.22172025,-0.82998747,-0.21319197,0.2744312,-0.22113322,-7.255873,5.871999,-3.0179534,0,1683969579.269488
-0.39124236,0.33971494,-0.1355567,-0.21319197,0.2744312,-0.22113322,-7.255873,5.871999,-3.0179534,0,1683969579.2797747
-0.39124236,0.33971494,-0.1355567,-0.21319197,0.2744312,-0.22113322,-4.503418,8.684857,-0.72704226,0,1683969579.2849076
-0.39124236,0.33971494,-0.1355567,-1.0261009,-1.4034629,3.5750887,-4.503418,8.684857,-0.72704226,0,1683969579.2900665
-0.3413004,0.3506302,-0.09653002,-1.0261009,-1.4034629,3.5750887,-4.503418,8.684857,-0.72704226,0,1683969579.3209236
-0.3413004,0.3506302,-0.09653002,-1.0261009,-1.4034629,3.5750887,-4.2343144,8.829124,-0.594366,0,1683969579.3311481
-0.3413004,0.3506302,-0.09653002,-1.0128145,-1.3819299,3.7384953,-4.2343144,8.829124,-0.594366,0,1683969579.3363092
-0.2795895,0.363009,-0.06329638,-1.0128145,-1.3819299,3.7384953,-4.2343144,8.829124,-0.594366,0,1683969579.3618836
-0.2795895,0.363009,-0.06329638,-0.9954049,-1.3158038,3.9738312,-4.2343144,8.829124,-0.594366,0,1683969579.3670259
-0.2795895,0.363009,-0.06329638,-0.9954049,-1.3158038,3.9738312,-3.944847,8.969846,-0.46492618,0,1683969579.3773158
-0.21232945,0.36520424,-0.04981998,-0.9954049,-1.3158038,3.9738312,-3.944847,8.969846,-0.46492618,0,1683969579.3926926
-0.21232945,0.36520424,-0.04981998,-0.9999864,-1.2180653,4.173279,-3.944847,8.969846,-0.46492618,0,1683969579.3978233
-0.21232945,0.36520424,-0.04981998,-0.9999864,-1.2180653,4.173279,-3.4655259,9.173234,-0.27933845,0,1683969579.4080973
-0.21232945,0.36520424,-0.04981998,-1.0900891,-1.0151054,4.420679,-3.4655259,9.173234,-0.27933845,0,1683969579.428641
-0.21232945,0.36520424,-0.04981998,-1.0900891,-1.0151054,4.420679,-3.1141996,9.301181,-0.16108027,0,1683969579.438949
-0.12256813,0.36496034,-0.041587792,-1.0900891,-1.0151054,4.420679,-3.1141996,9.301181,-0.16108027,0,1683969579.4440594
-0.12256813,0.36496034,-0.041587792,-1.2124147,-0.8594874,4.592485,-3.1141996,9.301181,-0.16108027,0,1683969579.4594471
-0.031221334,0.3729486,-0.050246835,-1.2124147,-0.8594874,4.592485,-3.1141996,9.301181,-0.16108027,0,1683969579.464587
-0.031221334,0.3729486,-0.050246835,-1.2124147,-0.8594874,4.592485,-2.7363982,9.4205265,-0.043851197,0,1683969579.4697347
-0.031221334,0.3729486,-0.050246835,-1.2124147,-0.8594874,4.592485,-2.3335705,9.528089,0.07803577,0,1683969579.495362
0.06573554,0.40136486,-0.027501604,-1.2124147,-0.8594874,4.592485,-2.3335705,9.528089,0.07803577,0,1683969579.5005112
0.06573554,0.40136486,-0.027501604,-1.3771957,-0.7067711,4.7201557,-2.3335705,9.528089,0.07803577,0,1683969579.5056581
0.06573554,0.40136486,-0.027501604,-1.4921911,-0.5859725,4.76032,-2.3335705,9.528089,0.07803577,0,1683969579.536472
0.15586275,0.4352693,0.045063604,-1.4921911,-0.5859725,4.76032,-2.3335705,9.528089,0.07803577,0,1683969579.5416162
0.15586275,0.4352693,0.045063604,-1.4921911,-0.5859725,4.76032,-1.6976824,9.657988,0.2780047,0,1683969579.546759
1.1164676,1.10354,0.5849122,-1.4921911,-0.5859725,4.76032,-1.6976824,9.657988,0.2780047,0,1683969579.567292
1.1164676,1.10354,0.5849122,-1.4921911,-0.5859725,4.76032,3.4692426,9.036203,1.5960853,0,1683969579.572431
1.1164676,1.10354,0.5849122,-0.49205196,-0.49846604,1.9989038,3.4692426,9.036203,1.5960853,0,1683969579.587873
1.1164676,1.10354,0.5849122,-0.42638394,-0.38927388,1.8290832,3.4692426,9.036203,1.5960853,0,1683969579.6032596
1.1164676,1.10354,0.5849122,-0.42638394,-0.38927388,1.8290832,3.6518667,8.9585085,1.6263832,0,1683969579.613464
1.1417739,1.1261632,0.65229416,-0.42638394,-0.38927388,1.8290832,3.6518667,8.9585085,1.6263832,0,1683969579.6237721
1.1417739,1.1261632,0.65229416,-0.311694,-0.1684461,1.5712981,3.6518667,8.9585085,1.6263832,0,1683969579.628916
1.1417739,1.1261632,0.65229416,-0.311694,-0.1684461,1.5712981,3.812417,8.88637,1.6534868,0,1683969579.6442635
1.1515306,1.1559211,0.69924814,-0.311694,-0.1684461,1.5712981,3.812417,8.88637,1.6534868,0,1683969579.654561
1.1279317,1.1511037,0.719981,-0.311694,-0.1684461,1.5712981,3.812417,8.88637,1.6534868,0,1683969579.6750824
1.1279317,1.1511037,0.719981,-0.311694,-0.1684461,1.5712981,4.0147586,8.78949,1.6919557,0,1683969579.6802208
1.1279317,1.1511037,0.719981,-0.21731532,0.11255192,1.3692545,4.0147586,8.78949,1.6919557,0,1683969579.6905024
1.1279317,1.1511037,0.719981,-0.17501289,0.35063666,1.2548699,4.0147586,8.78949,1.6919557,0,1683969579.7110846
1.1423227,1.1582993,0.6909549,-0.17501289,0.35063666,1.2548699,4.0147586,8.78949,1.6919557,0,1683969579.7213662
1.1423227,1.1582993,0.6909549,-0.17501289,0.35063666,1.2548699,4.1279125,8.731355,1.720438,0,1683969579.7265074
1.1423227,1.1582993,0.6909549,-0.113162786,0.5306892,1.0494665,4.1279125,8.731355,1.720438,0,1683969579.7470582
1.1423227,1.1582993,0.6909549,-0.113162786,0.5306892,1.0494665,4.271034,8.652122,1.7706437,0,1683969579.7522082
1.2348891,1.2338525,0.6472329,-0.113162786,0.5306892,1.0494665,4.271034,8.652122,1.7706437,0,1683969579.7676363
1.2348891,1.2338525,0.6472329,-0.113162786,0.5306892,1.0494665,4.344477,8.608759,1.8030285,0,1683969579.7881885
1.2348891,1.2338525,0.6472329,-0.018325957,0.58200186,0.79351395,4.344477,8.608759,1.8030285,0,1683969579.793337
1.3041005,1.285319,0.6533308,-0.018325957,0.58200186,0.79351395,4.344477,8.608759,1.8030285,0,1683969579.8036122
1.3041005,1.285319,0.6533308,0.14401148,0.6123924,0.39171734,4.344477,8.608759,1.8030285,0,1683969579.8138905
1.3520302,1.3250773,0.6346102,0.14401148,0.6123924,0.39171734,4.344477,8.608759,1.8030285,0,1683969579.824171
1.3520302,1.3250773,0.6346102,1.9252945,0.86666507,-3.3434181,4.344477,8.608759,1.8030285,0,1683969579.8395863
0.10939662,0.5375314,-0.13269067,1.9252945,0.86666507,-3.3434181,4.344477,8.608759,1.8030285,0,1683969579.8447347
0.10939662,0.5375314,-0.13269067,1.9252945,0.86666507,-3.3434181,-0.35273096,9.788357,0.547514,0,1683969579.8550239
0.053173836,0.50765157,-0.17891288,1.9252945,0.86666507,-3.3434181,-0.35273096,9.788357,0.547514,0,1683969579.8755434
0.053173836,0.50765157,-0.17891288,1.9252945,0.86666507,-3.3434181,-0.7960274,9.773858,0.27233174,0,1683969579.8858497
0.053173836,0.50765157,-0.17891288,1.917506,0.5571091,-3.3687692,-0.7960274,9.773858,0.27233174,0,1683969579.8961291
-0.0015244792,0.512347,-0.17537609,1.917506,0.5571091,-3.3687692,-0.7960274,9.773858,0.27233174,0,1683969579.9167032
-0.0015244792,0.512347,-0.17537609,1.8808541,0.3126103,-3.353192,-0.7960274,9.773858,0.27233174,0,1683969579.921842
-0.0015244792,0.512347,-0.17537609,1.8808541,0.3126103,-3.353192,-1.0918081,9.748646,0.08943083,0,1683969579.932123
-0.0015244792,0.512347,-0.17537609,1.8089247,0.20647246,-3.335935,-1.0918081,9.748646,0.08943083,0,1683969579.9423637
-0.0015244792,0.512347,-0.17537609,1.8089247,0.20647246,-3.335935,-1.3857138,9.71124,-0.08799826,0,1683969579.9475102
-0.04896627,0.5136885,-0.16842447,1.8089247,0.20647246,-3.335935,-1.3857138,9.71124,-0.08799826,0,1683969579.9629405
-0.08909056,0.5170424,-0.15555786,1.8089247,0.20647246,-3.335935,-1.3857138,9.71124,-0.08799826,0,1683969579.993787
-0.08909056,0.5170424,-0.15555786,1.8089247,0.20647246,-3.335935,-1.6779772,9.662014,-0.2568875,0,1683969580.0040758
-0.08909056,0.5170424,-0.15555786,1.7033978,0.19715676,-3.3084462,-1.6779772,9.662014,-0.2568875,0,1683969580.009218
-0.14470357,0.5163716,-0.16653411,1.7033978,0.19715676,-3.3084462,-1.6779772,9.662014,-0.2568875,0,1683969580.0143592
-0.14470357,0.5163716,-0.16653411,1.7033978,0.19715676,-3.3084462,-2.1108565,9.567462,-0.49404413,0,1683969580.0246456
-0.14470357,0.5163716,-0.16653411,1.6024523,0.24556783,-3.2812626,-2.1108565,9.567462,-0.49404413,0,1683969580.029786
-0.14470357,0.5163716,-0.16653411,1.4877623,0.33567044,-3.244458,-2.1108565,9.567462,-0.49404413,0,1683969580.0503285
-0.14470357,0.5163716,-0.16653411,1.4877623,0.33567044,-3.244458,-2.3950899,9.491491,-0.64131385,0,1683969580.055463
-0.19842622,0.5041148,-0.16293633,1.4877623,0.33567044,-3.244458,-2.3950899,9.491491,-0.64131385,0,1683969580.0657425
-0.19842622,0.5041148,-0.16293633,1.3492486,0.4784602,-3.1946726,-2.3950899,9.491491,-0.64131385,0,1683969580.0914266
-0.19842622,0.5041148,-0.16293633,1.3492486,0.4784602,-3.1946726,-2.6739178,9.406245,-0.7802829,0,1683969580.1017041
-0.25599056,0.48850408,-0.16854642,1.3492486,0.4784602,-3.1946726,-2.6739178,9.406245,-0.7802829,0,1683969580.1068416
-0.25599056,0.48850408,-0.16854642,-0.7405214,-0.28817567,1.0204504,-2.6739178,9.406245,-0.7802829,0,1683969580.1170857
-1.3450785,0.31959182,-0.6261951,-0.7405214,-0.28817567,1.0204504,-2.6739178,9.406245,-0.7802829,0,1683969580.1324704
-1.3450785,0.31959182,-0.6261951,-0.7405214,-0.28817567,1.0204504,-6.639272,6.7451415,-2.5805552,0,1683969580.1427603
-1.2339745,0.34520307,-0.6009497,-0.7405214,-0.28817567,1.0204504,-6.639272,6.7451415,-2.5805552,0,1683969580.1478999
-1.2339745,0.34520307,-0.6009497,-0.7405214,-0.28817567,1.0204504,-6.5612683,6.854933,-2.4891317,0,1683969580.1530385
-1.2339745,0.34520307,-0.6009497,-0.7968737,-0.42760566,1.2745703,-6.5612683,6.854933,-2.4891317,0,1683969580.1787152
-1.2339745,0.34520307,-0.6009497,-0.7994699,-0.6453791,1.4671456,-6.5612683,6.854933,-2.4891317,0,1683969580.1941063
-1.2339745,0.34520307,-0.6009497,-0.7994699,-0.6453791,1.4671456,-6.4962025,6.9425387,-2.415904,0,1683969580.2043707
-1.1327491,0.36593598,-0.5640573,-0.7994699,-0.6453791,1.4671456,-6.4962025,6.9425387,-2.415904,0,1683969580.2146728
-1.1327491,0.36593598,-0.5640573,-0.76144356,-0.83001316,1.5890132,-6.4962025,6.9425387,-2.415904,0,1683969580.2249374
-1.1327491,0.36593598,-0.5640573,-0.76144356,-0.83001316,1.5890132,-6.4240866,7.037581,-2.332318,0,1683969580.2352004
-1.0607935,0.37740007,-0.53515315,-0.76144356,-0.83001316,1.5890132,-6.4240866,7.037581,-2.332318,0,1683969580.2403405
-1.0607935,0.37740007,-0.53515315,-0.76144356,-0.83001316,1.5890132,-6.3053536,7.188523,-2.191744,0,1683969580.2660358
-1.0607935,0.37740007,-0.53515315,-0.6936375,-1.0732902,1.7150042,-6.3053536,7.188523,-2.191744,0,1683969580.2711744
-0.97895956,0.3825223,-0.50948095,-0.6936375,-1.0732902,1.7150042,-6.3053536,7.188523,-2.191744,0,1683969580.2865653
-0.9234686,0.37794888,-0.48783335,-0.6936375,-1.0732902,1.7150042,-6.3053536,7.188523,-2.191744,0,1683969580.301986
-0.9234686,0.37794888,-0.48783335,-0.6542367,-1.2443326,1.813659,-6.3053536,7.188523,-2.191744,0,1683969580.3071303
-0.9234686,0.37794888,-0.48783335,-0.6542367,-1.2443326,1.813659,-6.2197337,7.2929125,-2.0891318,0,1683969580.3122756
-0.875295,0.3655701,-0.46575886,-0.6542367,-1.2443326,1.813659,-6.2197337,7.2929125,-2.0891318,0,1683969580.3276935
-0.875295,0.3655701,-0.46575886,-0.6542367,-1.2443326,1.813659,-6.127671,7.4003735,-1.9804643,0,1683969580.337961
-0.875295,0.3655701,-0.46575886,-0.6273586,-1.404532,1.9463694,-6.127671,7.4003735,-1.9804643,0,1683969580.3431084
-0.8241334,0.36721656,-0.45673394,-0.6273586,-1.404532,1.9463694,-6.127671,7.4003735,-1.9804643,0,1683969580.3740063
-0.8241334,0.36721656,-0.45673394,-0.61651576,-1.4813483,2.0297525,-6.127671,7.4003735,-1.9804643,0,1683969580.379152
-0.8241334,0.36721656,-0.45673394,-0.61651576,-1.4813483,2.0297525,-6.027482,7.511194,-1.8674932,0,1683969580.3894272
-0.8241334,0.36721656,-0.45673394,-2.0325015,0.09208794,4.3893723,-6.027482,7.511194,-1.8674932,0,1683969580.3945658
-0.8241334,0.36721656,-0.45673394,-2.0325015,0.09208794,4.3893723,0.044884693,9.726891,1.2734505,0,1683969580.4048452
0.37605852,0.5468612,0.20001167,-2.0325015,0.09208794,4.3893723,0.044884693,9.726891,1.2734505,0,1683969580.425407
0.37605852,0.5468612,0.20001167,-2.0325015,0.09208794,4.3893723,0.4434888,9.69073,1.4591727,0,1683969580.4459596
0.37605852,0.5468612,0.20001167,-2.3096814,0.32513303,4.254829,0.4434888,9.69073,1.4591727,0,1683969580.4511197
0.37605852,0.5468612,0.20001167,-2.3096814,0.32513303,4.254829,0.82783014,9.632217,1.6646966,0,1683969580.4613593
0.37605852,0.5468612,0.20001167,-2.3186917,0.22296582,4.233296,0.82783014,9.632217,1.6646966,0,1683969580.471637
0.44508693,0.52179873,0.18549863,-2.3186917,0.22296582,4.233296,0.82783014,9.632217,1.6646966,0,1683969580.4819214
0.44508693,0.52179873,0.18549863,-2.0845776,-0.3830125,4.1888556,0.82783014,9.632217,1.6646966,0,1683969580.502475
0.44508693,0.52179873,0.18549863,-2.0845776,-0.3830125,4.1888556,1.4013783,9.508957,1.9626554,0,1683969580.507613
0.67546624,0.6071086,0.17549805,-2.0845776,-0.3830125,4.1888556,1.4013783,9.508957,1.9626554,0,1683969580.5178895
0.9729226,0.7642519,0.30751795,-2.0845776,-0.3830125,4.1888556,1.4013783,9.508957,1.9626554,0,1683969580.528169
0.9729226,0.7642519,0.30751795,-2.0845776,-0.3830125,4.1888556,1.7849983,9.409232,2.1251478,0,1683969580.5333126
0.9729226,0.7642519,0.30751795,-1.674687,-1.1763737,3.9301543,1.7849983,9.409232,2.1251478,0,1683969580.5384464
0.9729226,0.7642519,0.30751795,-1.323745,-1.6097827,3.5500433,1.7849983,9.409232,2.1251478,0,1683969580.5793886
1.1842765,0.8961498,0.4677102,-1.323745,-1.6097827,3.5500433,1.7849983,9.409232,2.1251478,0,1683969580.584517
1.1842765,0.8961498,0.4677102,-1.323745,-1.6097827,3.5500433,2.1555474,9.303215,2.2449784,0,1683969580.594781
1.1842765,0.8961498,0.4677102,-1.0242683,-1.6762142,2.9261973,2.1555474,9.303215,2.2449784,0,1683969580.6050525
1.1842765,0.8961498,0.4677102,-1.0242683,-1.6762142,2.9261973,2.6540537,9.146518,2.3522992,0,1683969580.6204424
1.2612932,1.0104858,0.6847961,-1.0242683,-1.6762142,2.9261973,2.6540537,9.146518,2.3522992,0,1683969580.6307223
1.2612932,1.0104858,0.6847961,-1.0242683,-1.6762142,2.9261973,2.9281366,9.050013,2.3998775,0,1683969580.6461422
1.2612932,1.0104858,0.6847961,-0.928057,-1.361924,2.4469736,2.9281366,9.050013,2.3998775,0,1683969580.6563852
1.2084242,1.0142665,0.80986434,-0.928057,-1.361924,2.4469736,2.9281366,9.050013,2.3998775,0,1683969580.661525
1.2084242,1.0142665,0.80986434,-0.928057,-1.361924,2.4469736,4.1259193,8.330276,3.1335936,0,1683969580.666629
1.2084242,1.0142665,0.80986434,0.68126744,1.6843082,-0.9266826,4.1259193,8.330276,3.1335936,0,1683969580.6819532
1.080246,1.0662817,0.71992004,0.68126744,1.6843082,-0.9266826,4.1259193,8.330276,3.1335936,0,1683969580.6973562
1.0006073,1.0063392,0.6760151,0.68126744,1.6843082,-0.9266826,4.1259193,8.330276,3.1335936,0,1683969580.7076035
1.0006073,1.0063392,0.6760151,0.68126744,1.6843082,-0.9266826,4.0086093,8.382978,3.1452901,0,1683969580.717883
1.0006073,1.0063392,0.6760151,0.7829765,1.7125608,-1.111622,4.0086093,8.382978,3.1452901,0,1683969580.7332919
0.9117605,0.9468845,0.6267439,0.7829765,1.7125608,-1.111622,4.0086093,8.382978,3.1452901,0,1683969580.7435563
0.9117605,0.9468845,0.6267439,0.93783087,1.6615535,-1.2812898,4.0086093,8.382978,3.1452901,0,1683969580.753834
0.9117605,0.9468845,0.6267439,0.93783087,1.6615535,-1.2812898,3.877957,8.443721,3.1466079,0,1683969580.7589765
0.9117605,0.9468845,0.6267439,0.93783087,1.6615535,-1.2812898,3.665833,8.546976,3.1220155,0,1683969580.7949145
0.9117605,0.9468845,0.6267439,1.1047498,1.5763378,-1.4141531,3.665833,8.546976,3.1220155,0,1683969580.8000767
0.85444015,0.9049918,0.6057061,1.1047498,1.5763378,-1.4141531,3.665833,8.546976,3.1220155,0,1683969580.8052192
0.85444015,0.9049918,0.6057061,1.1047498,1.5763378,-1.4141531,3.5155609,8.6225395,3.086873,0,1683969580.8257198
0.85444015,0.9049918,0.6057061,1.241889,1.5389223,-1.5389223,3.5155609,8.6225395,3.086873,0,1683969580.8308597
0.82956064,0.8942595,0.59832764,1.241889,1.5389223,-1.5389223,3.5155609,8.6225395,3.086873,0,1683969580.836005
0.82956064,0.8942595,0.59832764,1.241889,1.5389223,-1.5389223,3.3551424,8.703615,3.0374682,0,1683969580.8564854
0.7898022,0.8776122,0.5696064,1.241889,1.5389223,-1.5389223,3.3551424,8.703615,3.0374682,0,1683969580.8615808
0.7898022,0.8776122,0.5696064,1.3716979,1.5392277,-1.6846136,3.3551424,8.703615,3.0374682,0,1683969580.8769557
0.7618737,0.8485861,0.47313735,1.3716979,1.5392277,-1.6846136,3.3551424,8.703615,3.0374682,0,1683969580.8871958
0.7618737,0.8485861,0.47313735,1.5267049,1.5028812,-1.8774943,3.3551424,8.703615,3.0374682,0,1683969580.8974695
0.7618737,0.8485861,0.47313735,1.5267049,1.5028812,-1.8774943,3.1832767,8.789624,2.9741151,0,1683969580.9128785
0.7618737,0.8485861,0.47313735,1.5267049,1.5028812,-1.8774943,3.000407,8.879799,2.8953173,0,1683969580.9231474
0.7618737,0.8485861,0.47313735,1.6363553,1.3950635,-2.0447187,3.000407,8.879799,2.8953173,0,1683969580.9282901
0.73077434,0.8090106,0.4105727,1.6363553,1.3950635,-2.0447187,3.000407,8.879799,2.8953173,0,1683969580.9385333
-0.53558004,0.53869,-0.4841136,1.6363553,1.3950635,-2.0447187,3.000407,8.879799,2.8953173,0,1683969580.943674
-0.53558004,0.53869,-0.4841136,1.78617,0.4896085,-2.8177686,3.000407,8.879799,2.8953173,0,1683969580.9539537
-0.53558004,0.53869,-0.4841136,1.78617,0.4896085,-2.8177686,-3.6732662,8.73989,-2.5214183,0,1683969580.9642491
-0.59899837,0.57357,-0.550398,1.78617,0.4896085,-2.8177686,-3.6732662,8.73989,-2.5214183,0,1683969580.984827
-0.59899837,0.57357,-0.550398,1.78617,0.4896085,-2.8177686,-3.887839,8.597494,-2.6840136,0,1683969580.9951117
-0.59899837,0.57357,-0.550398,1.5146403,0.8385653,-2.8258626,-3.887839,8.597494,-2.6840136,0,1683969581.0053577
-0.673332,0.553142,-0.6457084,1.5146403,0.8385653,-2.8258626,-3.887839,8.597494,-2.6840136,0,1683969581.020772
-0.673332,0.553142,-0.6457084,1.5146403,0.8385653,-2.8258626,-4.091853,8.451658,-2.8394256,0,1683969581.031039
-0.673332,0.553142,-0.6457084,1.310306,1.0393872,-2.8561006,-4.091853,8.451658,-2.8394256,0,1683969581.0361872
-0.81083995,0.49563867,-0.7707767,1.310306,1.0393872,-2.8561006,-4.091853,8.451658,-2.8394256,0,1683969581.0618978
-0.81083995,0.49563867,-0.7707767,1.310306,1.0393872,-2.8561006,-4.3860464,8.223672,-3.0610292,0,1683969581.0721695
-0.81083995,0.49563867,-0.7707767,1.2124147,1.0005972,-2.8454103,-4.3860464,8.223672,-3.0610292,0,1683969581.0773017
-0.81083995,0.49563867,-0.7707767,1.1985176,0.7160868,-2.7527115,-4.3860464,8.223672,-3.0610292,0,1683969581.0927072
-0.92023665,0.47624728,-0.82754827,1.1985176,0.7160868,-2.7527115,-4.3860464,8.223672,-3.0610292,0,1683969581.0978482
-0.92023665,0.47624728,-0.82754827,1.1985176,0.7160868,-2.7527115,-4.5763187,8.066516,-3.1976113,0,1683969581.1183248
-0.92023665,0.47624728,-0.82754827,1.2400564,0.41340306,-2.6693285,-4.5763187,8.066516,-3.1976113,0,1683969581.123449
-0.9947531,0.48801628,-0.8526717,1.2400564,0.41340306,-2.6693285,-4.5763187,8.066516,-3.1976113,0,1683969581.1285417
-0.9947531,0.48801628,-0.8526717,1.2400564,0.41340306,-2.6693285,-4.7634125,7.9058857,-3.3231032,0,1683969581.1439176
-0.9947531,0.48801628,-0.8526717,1.2400564,0.41340306,-2.6693285,-4.9485536,7.741795,-3.4369361,0,1683969581.1695526
-0.9947531,0.48801628,-0.8526717,1.294118,0.025198191,-2.559678,-4.9485536,7.741795,-3.4369361,0,1683969581.174693
-1.1186019,0.4622221,-0.9240173,1.294118,0.025198191,-2.559678,-4.9485536,7.741795,-3.4369361,0,1683969581.1798315
-1.232389,0.4297812,-0.9696297,1.2962561,-0.28863382,-2.4265094,-4.9485536,7.741795,-3.4369361,0,1683969581.2003841
-0.37239978,0.3553256,-0.23086715,1.2962561,-0.28863382,-2.4265094,-4.160199,8.757102,-1.4973398,0,1683969581.2055511
-0.3357513,0.34258097,-0.17781526,-1.95034,-0.91538155,3.7175732,-3.797138,8.959332,-1.2442718,0,1683969581.2107947
-0.3357513,0.34258097,-0.17781526,-2.2519548,-0.5571091,3.9446623,-3.2232234,9.223794,-0.87669647,0,1683969581.216079
-0.17610784,0.34056866,-0.061162103,-2.2519548,-0.5571091,3.9446623,-3.2232234,9.223794,-0.87669647,0,1683969581.2160926
-0.17610784,0.34056866,-0.061162103,-2.450333,-0.3323107,4.0790524,-3.2232234,9.223794,-0.87669647,0,1683969581.2212183
-0.17610784,0.34056866,-0.061162103,-2.450333,-0.3323107,4.0790524,-2.899501,9.347465,-0.673739,0,1683969581.231476
-0.17610784,0.34056866,-0.061162103,-2.5902214,-0.21029036,4.168086,-2.899501,9.347465,-0.673739,0,1683969581.246853
-0.119641125,0.3538621,-0.038599815,-2.5902214,-0.21029036,4.168086,-2.899501,9.347465,-0.673739,0,1683969581.2519937
-0.119641125,0.3538621,-0.038599815,-2.5902214,-0.21029036,4.168086,-2.5562139,9.460033,-0.4578674,0,1683969581.2571292
-0.060552314,0.36636284,0.014452063,-2.5902214,-0.21029036,4.168086,-2.5562139,9.460033,-0.4578674,0,1683969581.2776418
-0.060552314,0.36636284,0.014452063,-2.687807,-0.16905695,4.2282567,-2.5562139,9.460033,-0.4578674,0,1683969581.2827835
-0.060552314,0.36636284,0.014452063,-2.687807,-0.16905695,4.2282567,-2.197096,9.558043,-0.22957456,0,1683969581.2930639
0.005061271,0.36014298,-0.008354146,-2.687807,-0.16905695,4.2282567,-2.197096,9.558043,-0.22957456,0,1683969581.3084412
0.005061271,0.36014298,-0.008354146,-2.7148378,-0.19364429,4.2659774,-2.197096,9.558043,-0.22957456,0,1683969581.3186877
1.3450174,1.0320724,1.0512809,-2.7148378,-0.19364429,4.2659774,-2.197096,9.558043,-0.22957456,0,1683969581.354607
1.3450174,1.0320724,1.0512809,-2.7148378,-0.19364429,4.2659774,3.3659477,8.663745,3.137841,0,1683969581.359749
1.3450174,1.0320724,1.0512809,-2.016619,-1.4517213,1.772731,3.3659477,8.663745,3.137841,0,1683969581.364889
1.3450174,1.0320724,1.0512809,-2.016619,-1.4517213,1.772731,3.6313016,8.492315,3.3061068,0,1683969581.3854477
1.3450174,1.0320724,1.0512809,-1.5515977,-1.0261009,1.3817772,3.6313016,8.492315,3.3061068,0,1683969581.4008715
1.1234802,0.94310385,1.2216567,-1.5515977,-1.0261009,1.3817772,3.6313016,8.492315,3.3061068,0,1683969581.4060097
0.9237125,0.83065826,1.1873864,-1.5515977,-1.0261009,1.3817772,3.6313016,8.492315,3.3061068,0,1683969581.411121
0.9237125,0.83065826,1.1873864,-1.5515977,-1.0261009,1.3817772,3.7674594,8.395317,3.4001486,0,1683969581.4162567
0.9237125,0.83065826,1.1873864,-1.323745,-0.50885075,1.3390167,3.7674594,8.395317,3.4001486,0,1683969581.4316819
0.7897412,0.7576662,1.0517077,-1.323745,-0.50885075,1.3390167,3.7674594,8.395317,3.4001486,0,1683969581.4625196
0.7897412,0.7576662,1.0517077,-1.2493721,0.096516706,1.5268577,3.7674594,8.395317,3.4001486,0,1683969581.4676588
0.7897412,0.7576662,1.0517077,-1.2493721,0.096516706,1.5268577,3.8871813,8.300461,3.496897,0,1683969581.4727967
0.7897412,0.7576662,1.0517077,-1.30435,0.31047225,1.7037032,3.8871813,8.300461,3.496897,0,1683969581.4933174
0.7897412,0.7576662,1.0517077,-1.30435,0.31047225,1.7037032,4.004686,8.198002,3.604359,0,1683969581.4984539
0.9097482,0.7740086,0.83639026,-1.30435,0.31047225,1.7037032,4.004686,8.198002,3.604359,0,1683969581.5087285
1.1651899,0.889991,0.8632211,-1.30435,0.31047225,1.7037032,4.004686,8.198002,3.604359,0,1683969581.5190063
1.1651899,0.889991,0.8632211,-1.2565498,0.14004086,1.6656768,4.004686,8.198002,3.604359,0,1683969581.539561
1.1651899,0.889991,0.8632211,-1.2565498,0.14004086,1.6656768,4.1279225,8.086023,3.7165306,0,1683969581.5498097
1.1651899,0.889991,0.8632211,-1.2565498,0.14004086,1.6656768,4.252291,7.972786,3.8195326,0,1683969581.5549471
1.2784283,0.9604219,0.9745691,-1.2565498,0.14004086,1.6656768,4.252291,7.972786,3.8195326,0,1683969581.560085
1.2784283,0.9604219,0.9745691,-1.0998629,0.013897184,1.4610369,4.252291,7.972786,3.8195326,0,1683969581.575502
1.3578231,1.0201814,1.0969542,-1.0998629,0.013897184,1.4610369,4.252291,7.972786,3.8195326,0,1683969581.6012332
1.3578231,1.0201814,1.0969542,-0.88147855,0.027794369,1.1047498,4.252291,7.972786,3.8195326,0,1683969581.6063757
1.3578231,1.0201814,1.0969542,-0.88147855,0.027794369,1.1047498,4.3659897,7.868659,3.906207,0,1683969581.6115172
0.2959319,0.55466646,0.14488651,-0.88147855,0.027794369,1.1047498,4.3659897,7.868659,3.906207,0,1683969581.6166134
0.2959319,0.55466646,0.14488651,3.131906,0.742354,-3.340822,4.3659897,7.868659,3.906207,0,1683969581.637165
0.19531627,0.4990535,0.1042134,3.131906,0.742354,-3.340822,4.3659897,7.868659,3.906207,0,1683969581.6474302
0.19531627,0.4990535,0.1042134,3.131906,0.742354,-3.340822,0.87183774,9.489636,2.328694,0,1683969581.6525836
0.19531627,0.4990535,0.1042134,3.131906,0.742354,-3.340822,0.42844102,9.607868,1.9342748,0,1683969581.6731265
0.19531627,0.4990535,0.1042134,2.984993,0.91553426,-3.3327281,0.42844102,9.607868,1.9342748,0,1683969581.6782675
0.084578104,0.4300251,-0.009024917,2.984993,0.91553426,-3.3327281,0.42844102,9.607868,1.9342748,0,1683969581.6988337
0.084578104,0.4300251,-0.009024917,2.7779098,1.054048,-3.2736268,0.42844102,9.607868,1.9342748,0,1683969581.7039258
0.084578104,0.4300251,-0.009024917,2.7779098,1.054048,-3.2736268,0.12814437,9.664592,1.6779077,0,1683969581.7090647
0.084578104,0.4300251,-0.009024917,2.5870142,1.0566442,-3.1575625,0.12814437,9.664592,1.6779077,0,1683969581.7244368
0.000365875,0.36800927,-0.08781,2.5870142,1.0566442,-3.1575625,0.12814437,9.664592,1.6779077,0,1683969581.7398362
0.000365875,0.36800927,-0.08781,2.5870142,1.0566442,-3.1575625,-0.16988252,9.703947,1.428517,0,1683969581.750106
0.000365875,0.36800927,-0.08781,2.3455698,0.9795224,-2.9524643,-0.16988252,9.703947,1.428517,0,1683969581.770597
-0.051588375,0.33636108,-0.11226265,2.3455698,0.9795224,-2.9524643,-0.16988252,9.703947,1.428517,0,1683969581.7757373
-0.051588375,0.33636108,-0.11226265,2.3455698,0.9795224,-2.9524643,-0.4600021,9.72686,1.1885799,0,1683969581.7859719
-0.051588375,0.33636108,-0.11226265,2.3455698,0.9795224,-2.9524643,-0.8695649,9.733736,0.8569557,0,1683969581.816801
-0.051588375,0.33636108,-0.11226265,2.1467333,0.9726502,-2.7437012,-0.8695649,9.733736,0.8569557,0,1683969581.8219438
-0.11427496,0.3582526,-0.04006331,2.1467333,0.9726502,-2.7437012,-0.8695649,9.733736,0.8569557,0,1683969581.8270855
-0.11427496,0.3582526,-0.04006331,2.0619757,1.0596985,-2.627484,-0.8695649,9.733736,0.8569557,0,1683969581.8425095
-0.13592257,0.3899008,0.026586918,2.0619757,1.0596985,-2.627484,-0.8695649,9.733736,0.8569557,0,1683969581.8476617
-0.13592257,0.3899008,0.026586918,2.0619757,1.0596985,-2.627484,-1.123679,9.723241,0.65730953,0,1683969581.8528028
-0.13049541,0.4242321,0.01536675,2.0619757,1.0596985,-2.627484,-1.123679,9.723241,0.65730953,0,1683969581.883639
-0.13049541,0.4242321,0.01536675,1.9938642,1.2008084,-2.4845417,-1.123679,9.723241,0.65730953,0,1683969581.8887844
-0.13049541,0.4242321,0.01536675,1.9938642,1.2008084,-2.4845417,-1.3616248,9.7039,0.46519807,0,1683969581.8939166
-0.13049541,0.4242321,0.01536675,2.0853412,-0.10247265,-2.5583036,-1.3616248,9.7039,0.46519807,0,1683969581.9093363
-0.86925805,0.5889368,-0.64253753,2.0853412,-0.10247265,-2.5583036,-1.3616248,9.7039,0.46519807,0,1683969581.9144769
-0.86925805,0.5889368,-0.64253753,2.0853412,-0.10247265,-2.5583036,-4.6799912,8.119628,-2.8992238,0,1683969581.9196193
-0.9764594,0.56363046,-0.72254217,2.0853412,-0.10247265,-2.5583036,-4.6799912,8.119628,-2.8992238,0,1683969581.9401774
-0.9764594,0.56363046,-0.72254217,1.892766,0.009315695,-2.456289,-4.6799912,8.119628,-2.8992238,0,1683969581.9453201
-0.9764594,0.56363046,-0.72254217,1.892766,0.009315695,-2.456289,-4.876032,7.9460373,-3.053015,0,1683969581.9504514
-0.9764594,0.56363046,-0.72254217,1.892766,0.009315695,-2.456289,-5.05785,7.7748957,-3.194565,0,1683969581.9710007
-0.9764594,0.56363046,-0.72254217,1.700038,0.0917825,-2.3296874,-5.05785,7.7748957,-3.194565,0,1683969581.9761412
-1.0551226,0.5477149,-0.76845944,1.700038,0.0917825,-2.3296874,-5.05785,7.7748957,-3.194565,0,1683969581.996641
-1.0551226,0.5477149,-0.76845944,1.700038,0.0917825,-2.3296874,-5.2245183,7.608854,-3.323533,0,1683969582.022352
-1.0551226,0.5477149,-0.76845944,1.502423,0.12293663,-2.1491766,-5.2245183,7.608854,-3.323533,0,1683969582.027462
-1.1400665,0.52984804,-0.82602376,1.502423,0.12293663,-2.1491766,-5.2245183,7.608854,-3.323533,0,1683969582.037726
-1.2601346,0.4864918,-0.93316424,1.502423,0.12293663,-2.1491766,-5.2245183,7.608854,-3.323533,0,1683969582.0428596
-1.2601346,0.4864918,-0.93316424,1.3814718,0.019700404,-1.9614882,-5.2245183,7.608854,-3.323533,0,1683969582.0582767
-1.2601346,0.4864918,-0.93316424,1.3814718,0.019700404,-1.9614882,-5.4489536,7.37129,-3.4941478,0,1683969582.0634074
-1.2601346,0.4864918,-0.93316424,1.2841915,-0.21594086,-1.7217237,-5.4489536,7.37129,-3.4941478,0,1683969582.0788155
-1.2601346,0.4864918,-0.93316424,1.2841915,-0.21594086,-1.7217237,-5.5835567,7.224049,-3.5879114,0,1683969582.0993447
-1.3623356,0.44856274,-1.0217669,1.2841915,-0.21594086,-1.7217237,-5.5835567,7.224049,-3.5879114,0,1683969582.1096263
-1.4503285,0.40166977,-1.0701844,1.2841915,-0.21594086,-1.7217237,-5.5835567,7.224049,-3.5879114,0,1683969582.114764
-1.4503285,0.40166977,-1.0701844,1.1559098,-0.57757306,-1.3535247,-5.5835567,7.224049,-3.5879114,0,1683969582.1353211
-1.4503285,0.40166977,-1.0701844,1.1559098,-0.57757306,-1.3535247,-5.7075543,7.0896225,-3.6602168,0,1683969582.1455903
-1.5189911,0.37630245,-1.080124,1.1559098,-0.57757306,-1.3535247,-5.7075543,7.0896225,-3.6602168,0,1683969582.15073
-1.5189911,0.37630245,-1.080124,1.1559098,-0.57757306,-1.3535247,-5.820001,6.9720006,-3.7087574,0,1683969582.1610026
-1.5189911,0.37630245,-1.080124,-1.5699236,-1.1827878,2.4352143,-5.820001,6.9720006,-3.7087574,0,1683969582.19168
-1.5189911,0.37630245,-1.080124,-1.5699236,-1.1827878,2.4352143,-5.095486,7.969315,-2.600409,0,1683969582.1968167
-0.63912266,0.42575654,-0.45966098,-1.5699236,-1.1827878,2.4352143,-5.095486,7.969315,-2.600409,0,1683969582.2071142
-0.5843634,0.40435287,-0.40459678,-1.5699236,-1.1827878,2.4352143,-5.095486,7.969315,-2.600409,0,1683969582.2173834
-0.5843634,0.40435287,-0.40459678,-1.5699236,-1.1827878,2.4352143,-4.9500184,8.111232,-2.4374845,0,1683969582.2224965
-0.5843634,0.40435287,-0.40459678,-1.6218473,-1.2417363,2.5352435,-4.9500184,8.111232,-2.4374845,0,1683969582.2276478
-0.5436293,0.39685243,-0.36800927,-1.6218473,-1.2417363,2.5352435,-4.9500184,8.111232,-2.4374845,0,1683969582.2687044
-0.5436293,0.39685243,-0.36800927,-1.6812539,-1.2455542,2.627637,-4.9500184,8.111232,-2.4374845,0,1683969582.2738419
-0.5436293,0.39685243,-0.36800927,-1.6812539,-1.2455542,2.627637,-4.794603,8.252274,-2.2689,0,1683969582.2789927
-0.5436293,0.39685243,-0.36800927,-1.6812539,-1.2455542,2.627637,-4.712291,8.322677,-2.1825395,0,1683969582.2944155
-0.5436293,0.39685243,-0.36800927,-1.7519615,-1.24082,2.7235427,-4.712291,8.322677,-2.1825395,0,1683969582.2995174
-0.5436293,0.39685243,-0.36800927,-1.8500054,-1.2102767,2.8545732,-4.712291,8.322677,-2.1825395,0,1683969582.3406174
-0.46027076,0.3770952,-0.29385862,-1.8500054,-1.2102767,2.8545732,-4.712291,8.322677,-2.1825395,0,1683969582.3457553
-0.41782925,0.3653262,-0.23159887,-1.8500054,-1.2102767,2.8545732,-4.712291,8.322677,-2.1825395,0,1683969582.3508966
-0.41782925,0.3653262,-0.23159887,-1.949271,-1.1406381,2.9646819,-4.712291,8.322677,-2.1825395,0,1683969582.3611677
-0.41782925,0.3653262,-0.23159887,-1.949271,-1.1406381,2.9646819,-4.0452223,8.803158,-1.5416588,0,1683969582.3919177
-0.41782925,0.3653262,-0.23159887,-2.0276144,-1.0659598,3.0529518,-4.0452223,8.803158,-1.5416588,0,1683969582.4022014
-0.38880318,0.3621553,-0.19854817,-2.0276144,-1.0659598,3.0529518,-4.0452223,8.803158,-1.5416588,0,1683969582.4124093
-0.38880318,0.3621553,-0.19854817,-2.0276144,-1.0659598,3.0529518,-3.701742,8.999191,-1.2441016,0,1683969582.4277694
-0.34331274,0.3518498,-0.14738666,-2.0276144,-1.0659598,3.0529518,-3.701742,8.999191,-1.2441016,0,1683969582.4328718
-0.34331274,0.3518498,-0.14738666,-2.1956024,-0.8885035,3.249956,-3.701742,8.999191,-1.2441016,0,1683969582.4482777
0.9711542,0.7938268,0.90304047,-2.1956024,-0.8885035,3.249956,-3.701742,8.999191,-1.2441016,0,1683969582.453421
0.9711542,0.7938268,0.90304047,-1.5244142,-0.236863,1.8758144,-3.701742,8.999191,-1.2441016,0,1683969582.4739847
0.9711542,0.7938268,0.90304047,-1.5244142,-0.236863,1.8758144,4.1127133,8.029647,3.8531117,0,1683969582.4791298
0.9711542,0.7938268,0.90304047,-1.5244142,-0.236863,1.8758144,4.260174,7.897776,3.9638574,0,1683969582.504781
1.135615,0.8008394,0.8594404,-1.5244142,-0.236863,1.8758144,4.260174,7.897776,3.9638574,0,1683969582.5098832
1.135615,0.8008394,0.8594404,-1.5771013,-0.096516706,1.774869,4.260174,7.897776,3.9638574,0,1683969582.5200858
1.296722,0.8820027,0.9574949,-1.5771013,-0.096516706,1.774869,4.260174,7.897776,3.9638574,0,1683969582.525225
1.296722,0.8820027,0.9574949,-1.5771013,-0.096516706,1.774869,4.397344,7.7651396,4.074565,0,1683969582.5405178
1.296722,0.8820027,0.9574949,-1.5001323,-0.21212296,1.5793921,4.397344,7.7651396,4.074565,0,1683969582.5559278
1.296722,0.8820027,0.9574949,-1.3182472,-0.3126103,1.2735013,4.397344,7.7651396,4.074565,0,1683969582.5764036
1.3982524,0.9386523,1.1254315,-1.3182472,-0.3126103,1.2735013,4.397344,7.7651396,4.074565,0,1683969582.5815034
1.3982524,0.9386523,1.1254315,-1.3182472,-0.3126103,1.2735013,4.521723,7.6404715,4.1729264,0,1683969582.586648
1.4475844,0.96432453,1.3421515,-1.3182472,-0.3126103,1.2735013,4.521723,7.6404715,4.1729264,0,1683969582.5969088
1.4475844,0.96432453,1.3421515,-0.9795224,-0.2612976,0.8518516,4.521723,7.6404715,4.1729264,0,1683969582.612295
1.4475844,0.96432453,1.3421515,-0.9795224,-0.2612976,0.8518516,4.668017,7.4874268,4.287677,0,1683969582.6173937
1.4343519,0.96334887,1.4606949,-0.9795224,-0.2612976,0.8518516,4.668017,7.4874268,4.287677,0,1683969582.632728
1.4343519,0.96334887,1.4606949,-0.6423248,-0.05375614,0.52213705,4.668017,7.4874268,4.287677,0,1683969582.6429982
1.4343519,0.96334887,1.4606949,-0.6423248,-0.05375614,0.52213705,4.7310925,7.4150257,4.3439937,0,1683969582.658403
1.3779463,0.9507263,1.4923432,-0.6423248,-0.05375614,0.52213705,4.7310925,7.4150257,4.3439937,0,1683969582.6841033
1.3779463,0.9507263,1.4923432,-0.6423248,-0.05375614,0.52213705,4.761752,7.369621,4.3875427,0,1683969582.6892407
1.3779463,0.9507263,1.4923432,-0.28725937,0.22021692,0.19593503,4.761752,7.369621,4.3875427,0,1683969582.6995227
1.3779463,0.9507263,1.4923432,0.16249016,0.5010622,-0.16523905,4.761752,7.369621,4.3875427,0,1683969582.720027
1.2845871,0.9275541,1.449292,0.16249016,0.5010622,-0.16523905,4.761752,7.369621,4.3875427,0,1683969582.7303035
1.2845871,0.9275541,1.449292,2.6499333,1.326952,-2.9523118,4.761752,7.369621,4.3875427,0,1683969582.745776
0.64351314,0.70235807,0.41374367,2.6499333,1.326952,-2.9523118,4.761752,7.369621,4.3875427,0,1683969582.7560756
0.64351314,0.70235807,0.41374367,2.6499333,1.326952,-2.9523118,2.6160123,8.99373,2.916406,0,1683969582.7612164
0.61649936,0.65790427,0.32654345,2.6499333,1.326952,-2.9523118,2.6160123,8.99373,2.916406,0,1683969582.7766125
0.61649936,0.65790427,0.32654345,2.7200303,1.3170254,-3.1178563,2.6160123,8.99373,2.916406,0,1683969582.7971616
0.61649936,0.65790427,0.32654345,2.7200303,1.3170254,-3.1178563,2.348572,9.124781,2.731065,0,1683969582.802308
0.5693015,0.61198694,0.25714916,2.7200303,1.3170254,-3.1178563,2.348572,9.124781,2.731065,0,1683969582.8125327
0.5693015,0.61198694,0.25714916,2.7200303,1.3170254,-3.1178563,2.0679972,9.249139,2.5323753,0,1683969582.822774
0.5693015,0.61198694,0.25714916,2.7585146,1.2392929,-3.2794302,2.0679972,9.249139,2.5323753,0,1683969582.8278723
0.48667476,0.5699723,0.22196417,2.7585146,1.2392929,-3.2794302,2.0679972,9.249139,2.5323753,0,1683969582.8585792
0.48667476,0.5699723,0.22196417,2.7585146,1.2392929,-3.2794302,1.6238462,9.41796,2.2138782,0,1683969582.8637207
0.48667476,0.5699723,0.22196417,2.7934868,1.1467468,-3.454443,1.6238462,9.41796,2.2138782,0,1683969582.8688605
0.48667476,0.5699723,0.22196417,2.7982209,1.109484,-3.5628715,1.6238462,9.41796,2.2138782,0,1683969582.8894036
0.42002448,0.5450318,0.19452354,2.7982209,1.109484,-3.5628715,1.6238462,9.41796,2.2138782,0,1683969582.8945208
0.42002448,0.5450318,0.19452354,2.7982209,1.109484,-3.5628715,1.3145629,9.515463,1.990987,0,1683969582.8996596
0.37093627,0.52643317,0.17488825,2.7982209,1.109484,-3.5628715,1.3145629,9.515463,1.990987,0,1683969582.9253566
0.37093627,0.52643317,0.17488825,2.7915015,1.1201742,-3.652058,1.3145629,9.515463,1.990987,0,1683969582.935635
0.37093627,0.52643317,0.17488825,2.7915015,1.1201742,-3.652058,0.9958246,9.598891,1.7623111,0,1683969582.9407752
0.31007907,0.53558004,0.20647547,2.7915015,1.1201742,-3.652058,0.9958246,9.598891,1.7623111,0,1683969582.9664295
0.31007907,0.53558004,0.20647547,2.7915015,1.1201742,-3.652058,0.668737,9.666784,1.5304222,0,1683969582.9715586
0.31007907,0.53558004,0.20647547,2.8015807,1.2119566,-3.7548358,0.668737,9.666784,1.5304222,0,1683969582.9767008
0.31007907,0.53558004,0.20647547,2.8487701,1.393689,-3.8261545,0.668737,9.666784,1.5304222,0,1683969582.9920537
0.21879324,0.49496788,0.15330163,2.8487701,1.393689,-3.8261545,0.668737,9.666784,1.5304222,0,1683969583.007458
-1.5115516,0.29215118,-0.960239,2.8487701,1.393689,-3.8261545,0.668737,9.666784,1.5304222,0,1683969583.0177248
-1.5115516,0.29215118,-0.960239,2.8487701,1.393689,-3.8261545,-6.226928,6.529996,-3.8497584,0,1683969583.0280063
-1.5115516,0.29215118,-0.960239,0.6966918,-0.59650993,-0.91446525,-6.226928,6.529996,-3.8497584,0,1683969583.0434008
-1.5241743,0.28093103,-0.96560514,0.6966918,-0.59650993,-0.91446525,-6.226928,6.529996,-3.8497584,0,1683969583.058802
-1.5241743,0.28093103,-0.96560514,0.31505376,-0.43218717,-0.5025894,-6.226928,6.529996,-3.8497584,0,1683969583.063939
-1.5241743,0.28093103,-0.96560514,0.31505376,-0.43218717,-0.5025894,-6.306762,6.44627,-3.8608916,0,1683969583.0690784
-1.5241743,0.28093103,-0.96560514,0.31505376,-0.43218717,-0.5025894,-6.3704376,6.3887553,-3.8519435,0,1683969583.0998776
-1.4846598,0.27721128,-0.9609707,0.31505376,-0.43218717,-0.5025894,-6.3704376,6.3887553,-3.8519435,0,1683969583.1101494
-1.4846598,0.27721128,-0.9609707,-0.12339478,-0.29733866,0.0016798794,-6.3704376,6.3887553,-3.8519435,0,1683969583.11521
-1.4184973,0.2968466,-0.94078666,-0.12339478,-0.29733866,0.0016798794,-6.3704376,6.3887553,-3.8519435,0,1683969583.1305926
-1.4184973,0.2968466,-0.94078666,-0.12339478,-0.29733866,0.0016798794,-6.3802238,6.393459,-3.8278654,0,1683969583.1408634
-1.4184973,0.2968466,-0.94078666,-0.48716503,-0.2762638,0.4363105,-6.3802238,6.393459,-3.8278654,0,1683969583.1459923
-1.4184973,0.2968466,-0.94078666,-0.48716503,-0.2762638,0.4363105,-6.370067,6.427458,-3.7876341,0,1683969583.1614137
-1.3276384,0.31855518,-0.8880396,-0.48716503,-0.2762638,0.4363105,-6.370067,6.427458,-3.7876341,0,1683969583.1665514
-1.3276384,0.31855518,-0.8880396,-0.7133379,-0.3199407,0.7121162,-6.370067,6.427458,-3.7876341,0,1683969583.1768174
-1.3276384,0.31855518,-0.8880396,-0.88132584,-0.4147775,0.94714653,-6.370067,6.427458,-3.7876341,0,1683969583.2024515
-1.3276384,0.31855518,-0.8880396,-0.88132584,-0.4147775,0.94714653,-6.345201,6.4847918,-3.7312276,0,1683969583.2178476
-1.2525731,0.33160472,-0.8237676,-0.88132584,-0.4147775,0.94714653,-6.345201,6.4847918,-3.7312276,0,1683969583.222941
-1.2525731,0.33160472,-0.8237676,-0.9801333,-0.4886922,1.098183,-6.345201,6.4847918,-3.7312276,0,1683969583.2434657
-1.2525731,0.33160472,-0.8237676,-0.9801333,-0.4886922,1.098183,-6.3091373,6.56056,-3.659231,0,1683969583.2486098
-1.2003139,0.3392271,-0.7701669,-0.9801333,-0.4886922,1.098183,-6.3091373,6.56056,-3.659231,0,1683969583.258849
-1.1286634,0.3445933,-0.6957113,-0.9801333,-0.4886922,1.098183,-6.3091373,6.56056,-3.659231,0,1683969583.2742605
-1.1286634,0.3445933,-0.6957113,-0.9801333,-0.4886922,1.098183,-6.2635856,6.650716,-3.573733,0,1683969583.279387
-1.1286634,0.3445933,-0.6957113,-1.0951287,-0.60032785,1.3200798,-6.2635856,6.650716,-3.573733,0,1683969583.2845237
0.0942738,0.3773391,0.23226966,-1.0951287,-0.60032785,1.3200798,-6.2635856,6.650716,-3.573733,0,1683969583.2896423
0.0942738,0.3773391,0.23226966,-3.7862954,0.26648995,4.4467936,-6.2635856,6.650716,-3.573733,0,1683969583.3152459
0.0942738,0.3773391,0.23226966,-3.7862954,0.26648995,4.4467936,-0.71251965,9.66438,1.5258445,0,1683969583.3203852
0.16458277,0.38093686,0.23556253,-3.7862954,0.26648995,4.4467936,-0.71251965,9.66438,1.5258445,0,1683969583.340946
0.16458277,0.38093686,0.23556253,-3.7862954,0.26648995,4.4467936,-0.31965283,9.625443,1.8667647,0,1683969583.3460839
0.16458277,0.38093686,0.23556253,-3.897931,0.31215215,4.427704,-0.31965283,9.625443,1.8667647,0,1683969583.3563442
0.33599523,0.42728102,0.2209885,-3.897931,0.31215215,4.427704,-0.31965283,9.625443,1.8667647,0,1683969583.3666387
0.33599523,0.42728102,0.2209885,-3.9912407,0.1695151,4.2534547,-0.31965283,9.625443,1.8667647,0,1683969583.3820496
0.33599523,0.42728102,0.2209885,-3.9912407,0.1695151,4.2534547,0.07103841,9.556619,2.214071,0,1683969583.3872013
0.33599523,0.42728102,0.2209885,-3.9295435,-0.3303254,3.7815614,0.07103841,9.556619,2.214071,0,1683969583.402625
0.54350734,0.5347263,0.31629896,-3.9295435,-0.3303254,3.7815614,0.07103841,9.556619,2.214071,0,1683969583.4128993
0.54350734,0.5347263,0.31629896,-3.9295435,-0.3303254,3.7815614,0.6273909,9.399954,2.7355742,0,1683969583.4231734
0.54350734,0.5347263,0.31629896,-3.641826,-0.8691085,3.2661438,0.6273909,9.399954,2.7355742,0,1683969583.4436688
0.54350734,0.5347263,0.31629896,-3.641826,-0.8691085,3.2661438,0.96279174,9.26975,3.062823,0,1683969583.4487932
0.65973365,0.6184507,0.4726495,-3.641826,-0.8691085,3.2661438,0.96279174,9.26975,3.062823,0,1683969583.4539309
0.73553073,0.6922965,0.7271766,-3.641826,-0.8691085,3.2661438,0.96279174,9.26975,3.062823,0,1683969583.4693491
0.73553073,0.6922965,0.7271766,-3.641826,-0.8691085,3.2661438,1.2653012,9.132955,3.3502629,0,1683969583.4898055
0.73553073,0.6922965,0.7271766,-3.0085113,-1.4338534,2.6196957,1.2653012,9.132955,3.3502629,0,1683969583.5000691
0.73553073,0.6922965,0.7271766,-2.4234552,-1.6151277,2.2067506,1.2653012,9.132955,3.3502629,0,1683969583.510338
0.73553073,0.6922965,0.7271766,-2.4234552,-1.6151277,2.2067506,1.5355698,9.001988,3.5836217,0,1683969583.525693
0.6982115,0.72345686,0.9123093,-2.4234552,-1.6151277,2.2067506,1.5355698,9.001988,3.5836217,0,1683969583.5308318
0.5819852,0.6866255,0.97999614,-2.4234552,-1.6151277,2.2067506,1.5355698,9.001988,3.5836217,0,1683969583.5461547
0.5819852,0.6866255,0.97999614,-1.7826575,-1.4332426,1.9314032,1.5355698,9.001988,3.5836217,0,1683969583.5615242
0.5819852,0.6866255,0.97999614,-1.7826575,-1.4332426,1.9314032,3.5247595,7.7819767,4.822139,0,1683969583.5820735
0.39624262,0.46740535,1.2119609,-1.7826575,-1.4332426,1.9314032,3.5247595,7.7819767,4.822139,0,1683969583.5871935
0.39624262,0.46740535,1.2119609,0.2733622,3.781714,0.32360587,3.5247595,7.7819767,4.822139,0,1683969583.5923314
0.39624262,0.46740535,1.2119609,0.2733622,3.781714,0.32360587,3.3810985,7.776676,4.9322996,0,1683969583.6025722
0.34642264,0.42398816,1.1662266,0.2733622,3.781714,0.32360587,3.3810985,7.776676,4.9322996,0,1683969583.6231215
0.34642264,0.42398816,1.1662266,0.33368513,4.074013,0.5348125,3.3810985,7.776676,4.9322996,0,1683969583.6282604
0.30745694,0.4103288,1.0440243,0.33368513,4.074013,0.5348125,3.3810985,7.776676,4.9322996,0,1683969583.6333952
0.30745694,0.4103288,1.0440243,0.4738787,4.3466115,0.9027061,3.3810985,7.776676,4.9322996,0,1683969583.6385052
0.30745694,0.4103288,1.0440243,0.4738787,4.3466115,0.9027061,3.2351012,7.7670135,5.0441766,0,1683969583.658992
0.29776126,0.43008605,0.9195048,0.4738787,4.3466115,0.9027061,3.2351012,7.7670135,5.0441766,0,1683969583.6692603
0.29776126,0.43008605,0.9195048,0.65301496,4.322177,1.197754,3.2351012,7.7670135,5.0441766,0,1683969583.6744015
0.29776126,0.43008605,0.9195048,0.65301496,4.322177,1.197754,3.0306463,7.7498946,5.195231,0,1683969583.684663
0.29776126,0.43008605,0.9195048,0.83001316,4.2039747,1.3775011,3.0306463,7.7498946,5.195231,0,1683969583.710277
0.2827604,0.436062,0.8448054,0.83001316,4.2039747,1.3775011,3.0306463,7.7498946,5.195231,0,1683969583.7154167
0.2827604,0.436062,0.8448054,0.83001316,4.2039747,1.3775011,2.9115229,7.741835,5.2747655,0,1683969583.725687
0.25824678,0.42612243,0.80401033,0.83001316,4.2039747,1.3775011,2.9115229,7.741835,5.2747655,0,1683969583.751273
0.25824678,0.42612243,0.80401033,1.0450377,4.0468297,1.5746579,2.9115229,7.741835,5.2747655,0,1683969583.7564023
0.25824678,0.42612243,0.80401033,1.0450377,4.0468297,1.5746579,2.8080337,7.739606,5.3338146,0,1683969583.771744
0.22617173,0.39063254,0.790351,1.0450377,4.0468297,1.5746579,2.8080337,7.739606,5.3338146,0,1683969583.787157
0.22617173,0.39063254,0.790351,1.0450377,4.0468297,1.5746579,2.6808765,7.7465105,5.388932,0,1683969583.7974327
0.22617173,0.39063254,0.790351,1.163851,4.0275874,1.7571539,2.6808765,7.7465105,5.388932,0,1683969583.8025756
0.172693,0.34203213,0.77565503,1.163851,4.0275874,1.7571539,2.6808765,7.7465105,5.388932,0,1683969583.8230183
0.172693,0.34203213,0.77565503,1.197754,4.3261476,2.049911,2.6808765,7.7465105,5.388932,0,1683969583.8384151
0.172693,0.34203213,0.77565503,-2.094504,3.6025777,3.1497738,2.6808765,7.7465105,5.388932,0,1683969583.853755
0.172693,0.34203213,0.77565503,-2.094504,3.6025777,3.1497738,2.266004,5.802917,7.5780926,0,1683969583.8640041
0.71339524,0.6635753,0.4666126,-2.094504,3.6025777,3.1497738,2.266004,5.802917,7.5780926,0,1683969583.869142
0.65845305,0.71961516,0.6041206,-2.094504,3.6025777,3.1497738,2.266004,5.802917,7.5780926,0,1683969583.8947933
0.65845305,0.71961516,0.6041206,-2.1406245,3.2194126,2.9074132,2.266004,5.802917,7.5780926,0,1683969583.899929
0.65845305,0.71961516,0.6041206,-2.1406245,3.2194126,2.9074132,2.1938975,5.5959644,7.7529416,0,1683969583.905069
0.65845305,0.71961516,0.6041206,-2.1406245,3.2194126,2.9074132,2.12488,5.3927164,7.9145184,0,1683969583.9255846
0.65845305,0.71961516,0.6041206,-2.0005836,2.7294986,2.5944974,2.12488,5.3927164,7.9145184,0,1683969583.9358695
0.6324759,0.74516547,0.8315119,-2.0005836,2.7294986,2.5944974,2.12488,5.3927164,7.9145184,0,1683969583.9410107
0.6395495,0.76967907,1.0242062,-2.0005836,2.7294986,2.5944974,2.12488,5.3927164,7.9145184,0,1683969583.951263
0.6395495,0.76967907,1.0242062,-2.0005836,2.7294986,2.5944974,2.0586498,5.201675,8.058577,0,1683969583.9665842
0.6395495,0.76967907,1.0242062,-1.7595973,2.5192082,2.3443482,2.0586498,5.201675,8.058577,0,1683969583.9819846
0.6395495,0.76967907,1.0242062,-1.7595973,2.5192082,2.3443482,1.9874856,5.032086,8.183161,0,1683969584.0025399
0.6395495,0.76967907,1.0242062,-1.4159856,2.400395,2.0529654,1.9874856,5.032086,8.183161,0,1683969584.0076768
0.6421716,0.76358116,1.0678062,-1.4159856,2.400395,2.0529654,1.9874856,5.032086,8.183161,0,1683969584.0128229
0.6421716,0.76358116,1.0678062,-1.2473868,2.3542747,1.8344283,1.9874856,5.032086,8.183161,0,1683969584.0282266
0.6421716,0.76358116,1.0678062,-1.2473868,2.3542747,1.8344283,1.8649203,4.8224382,8.3368025,0,1683969584.0384722
0.6421716,0.76358116,1.0678062,-1.2918273,2.8858802,1.636508,1.8649203,4.8224382,8.3368025,0,1683969584.0538023
0.6421716,0.76358116,1.0678062,-1.2918273,2.8858802,1.636508,1.8176419,4.7605247,8.382702,0,1683969584.069156
0.6315613,0.7296767,0.94536,-1.2918273,2.8858802,1.636508,1.8176419,4.7605247,8.382702,0,1683969584.074293
0.6315613,0.7296767,0.94536,-1.2918273,2.8858802,1.636508,1.5987629,4.5734243,8.530173,0,1683969584.0947752
0.5582643,0.73168904,0.7802894,-1.2918273,2.8858802,1.636508,1.5987629,4.5734243,8.530173,0,1683969584.1050525
0.5582643,0.73168904,0.7802894,-1.5613716,3.3043227,1.4914275,1.5987629,4.5734243,8.530173,0,1683969584.1101873
0.5582643,0.73168904,0.7802894,0.29153544,0.22464569,0.14431691,1.5987629,4.5734243,8.530173,0,1683969584.130701
0.5582643,0.73168904,0.7802894,0.29153544,0.22464569,0.14431691,-0.105812386,4.1035886,8.909853,0,1683969584.140901
-0.009268833,0.51533496,0.7780332,0.29153544,0.22464569,0.14431691,-0.105812386,4.1035886,8.909853,0,1683969584.1511474
-0.009268833,0.51533496,0.7780332,0.40790528,-0.12339478,0.093004234,-0.105812386,4.1035886,8.909853,0,1683969584.156275
-0.022501312,0.5043587,0.837061,0.40790528,-0.12339478,0.093004234,-0.105812386,4.1035886,8.909853,0,1683969584.1664972
-0.022501312,0.5043587,0.837061,0.40790528,-0.12339478,0.093004234,-0.11116303,4.1328573,8.896249,0,1683969584.1819143
-0.022501312,0.5043587,0.837061,0.50228393,-0.27137688,0.05024367,-0.11116303,4.1328573,8.896249,0,1683969584.1921859
-0.022501312,0.5043587,0.837061,0.50228393,-0.27137688,0.05024367,-0.097316384,4.1687264,8.87966,0,1683969584.2024558
-0.015061854,0.4852722,0.88992995,0.50228393,-0.27137688,0.05024367,-0.097316384,4.1687264,8.87966,0,1683969584.2075994
0.011159187,0.46557596,0.9099921,0.50228393,-0.27137688,0.05024367,-0.097316384,4.1687264,8.87966,0,1683969584.2332683
0.011159187,0.46557596,0.9099921,0.5332854,-0.2921463,0.009010263,-0.097316384,4.1687264,8.87966,0,1683969584.2435398
0.011159187,0.46557596,0.9099921,0.5332854,-0.2921463,0.009010263,-0.07380137,4.2106333,8.860092,0,1683969584.2538009
0.011159187,0.46557596,0.9099921,0.42302418,-0.061086524,-0.008552114,-0.07380137,4.2106333,8.860092,0,1683969584.279456
0.011159187,0.46557596,0.9099921,0.42302418,-0.061086524,-0.008552114,-0.041381624,4.2914786,8.821455,0,1683969584.2846131
0.035672814,0.42618343,0.9606048,0.42302418,-0.061086524,-0.008552114,-0.041381624,4.2914786,8.821455,0,1683969584.2948813
0.035672814,0.42618343,0.9606048,0.39813143,-0.0022907446,-0.00045814895,-0.041381624,4.2914786,8.821455,0,1683969584.3102934
0.035672814,0.42618343,0.9606048,0.39813143,-0.0022907446,-0.00045814895,-0.035406355,4.2914786,8.821455,0,1683969584.3205366
0.034148335,0.4189269,0.9703005,0.39813143,-0.0022907446,-0.00045814895,-0.035406355,4.2914786,8.821455,0,1683969584.3307672
0.034148335,0.4189269,0.9703005,0.29046643,0.32482758,0.052381694,-0.035406355,4.2914786,8.821455,0,1683969584.3358772
0.034148335,0.4189269,0.9703005,0.29046643,0.32482758,0.052381694,-0.044549353,4.333102,8.801043,0,1683969584.3461146
0.00030489583,0.38654694,0.9934116,0.29046643,0.32482758,0.052381694,-0.044549353,4.333102,8.801043,0,1683969584.3665562
0.00030489583,0.38654694,0.9934116,0.29046643,0.32482758,0.052381694,-0.07393483,4.352436,8.791299,0,1683969584.3819072
-0.02853825,0.37776592,0.9962167,0.29046643,0.32482758,0.052381694,-0.07393483,4.352436,8.791299,0,1683969584.3870459
-0.02853825,0.37776592,0.9962167,0.23564127,0.5911648,0.12385293,-0.07393483,4.352436,8.791299,0,1683969584.3921883
0.0011586042,0.50606614,0.8740144,0.23564127,0.5911648,0.12385293,-0.07393483,4.352436,8.791299,0,1683969584.412752
