acc_x,acc_y,acc_z,gyr_x,gyr_y,gyr_z,grav_x,grav_y,grav_z,label,timestamp
-0.44965595,-0.32986397,0.54372734,-0.8507538,-3.9219856,1.2395477,-3.458355,1.6731741,9.022785,0,1683900291.1054587
-0.2878405,0.024507387,1.5851245,-0.8507538,-3.9219856,1.2395477,-3.458355,1.6731741,9.022785,0,1683900291.135979
-0.2878405,0.024507387,1.5851245,-0.91150284,-4.486618,1.6635895,-3.458355,1.6731741,9.022785,0,1683900291.1410825
-0.2878405,0.024507387,1.5851245,-0.91150284,-4.486618,1.6635895,-2.794475,1.6099626,9.261172,0,1683900291.1461926
-0.13823318,0.19534633,1.9414521,-0.91150284,-4.486618,1.6635895,-2.794475,1.6099626,9.261172,0,1683900291.1919043
-0.13823318,0.19534633,1.9414521,-0.91150284,-4.486618,1.6635895,-2.3174307,1.5645616,9.399577,0,1683900291.2122018
-0.13823318,0.19534633,1.9414521,-0.31496048,-1.2918854,0.8954811,-2.3174307,1.5645616,9.399577,0,1683900291.2172863
-0.3298185,0.13482097,1.6651678,-0.31496048,-1.2918854,0.8954811,-2.3174307,1.5645616,9.399577,0,1683900291.2325253
-0.3298185,0.13482097,1.6651678,-0.31496048,-1.2918854,0.8954811,-2.2751248,1.565833,9.409696,0,1683900291.237604
-0.3298185,0.13482097,1.6651678,-0.08478165,-0.7538223,0.57704926,-2.2751248,1.565833,9.409696,0,1683900291.2426856
-0.3298185,0.13482097,1.6651678,0.44353485,-0.22764206,-0.069561005,-2.2751248,1.565833,9.409696,0,1683900291.2731576
-0.41036224,0.07038291,1.6261168,0.44353485,-0.22764206,-0.069561005,-2.2751248,1.565833,9.409696,0,1683900291.2833173
-0.41036224,0.07038291,1.6261168,0.44353485,-0.22764206,-0.069561005,-2.2457519,1.5934715,9.412111,0,1683900291.2883966
-0.41036224,0.07038291,1.6261168,1.0560989,-0.523777,-0.53619385,-2.2457519,1.5934715,9.412111,0,1683900291.3036346
-0.41036224,0.07038291,1.6261168,1.0560989,-0.523777,-0.53619385,-2.2213619,1.6608379,9.406251,0,1683900291.3188705
-0.61708266,-0.071171515,1.2039102,1.0560989,-0.523777,-0.53619385,-2.2213619,1.6608379,9.406251,0,1683900291.3239968
-0.65831757,-0.18879484,1.1611891,2.1905708,-2.474289,-0.64914703,-2.007601,1.8809724,9.412857,0,1683900291.3291833
-0.6937137,-0.22467633,1.3806031,2.1905708,-2.474289,-0.64914703,-2.007601,1.8809724,9.412857,0,1683900291.3445354
-0.6937137,-0.22467633,1.3806031,2.5879097,-3.2359886,-0.598011,-2.007601,1.8809724,9.412857,0,1683900291.3496292
-0.6937137,-0.22467633,1.3806031,2.5879097,-3.2359886,-0.598011,-1.8673521,1.9903847,9.419223,0,1683900291.3547666
-0.5829149,-0.13852133,1.5145899,2.5879097,-3.2359886,-0.598011,-1.8673521,1.9903847,9.419223,0,1683900291.375251
-0.5829149,-0.13852133,1.5145899,3.9003563,-4.8593903,-0.26342392,-1.8673521,1.9903847,9.419223,0,1683900291.385507
-0.5829149,-0.13852133,1.5145899,3.9003563,-4.8593903,-0.26342392,-1.2755749,2.4480789,9.410112,0,1683900291.3906405
-0.5829149,-0.13852133,1.5145899,4.366989,-5.246048,-0.19105911,-1.2755749,2.4480789,9.410112,0,1683900291.405974
-0.46820334,-0.07628228,1.5609659,4.366989,-5.246048,-0.19105911,-1.2755749,2.4480789,9.410112,0,1683900291.4111116
-0.46820334,-0.07628228,1.5609659,4.366989,-5.246048,-0.19105911,-1.0364813,2.6451807,9.386112,0,1683900291.4162421
-0.21462162,0.15946484,1.6649251,4.366989,-5.246048,-0.19105911,-1.0364813,2.6451807,9.386112,0,1683900291.426469
-0.21462162,0.15946484,1.6649251,5.637779,-5.8821106,-0.454216,-1.0364813,2.6451807,9.386112,0,1683900291.4315584
-0.21462162,0.15946484,1.6649251,5.637779,-5.8821106,-0.454216,-0.25846916,3.3568647,9.210594,0,1683900291.4469168
-0.13165139,0.20828246,1.6805456,5.637779,-5.8821106,-0.454216,-0.25846916,3.3568647,9.210594,0,1683900291.4571812
-0.13165139,0.20828246,1.6805456,5.637779,-5.8821106,-0.454216,0.67372024,4.4887433,8.692967,0,1683900291.4879446
0.054565333,0.2878405,1.4743257,5.637779,-5.8821106,-0.454216,0.67372024,4.4887433,8.692967,0,1683900291.4930766
0.054565333,0.2878405,1.4743257,6.7157745,-5.579567,-1.6419601,0.67372024,4.4887433,8.692967,0,1683900291.5186105
0.057006974,0.25758538,1.2734591,6.7157745,-5.579567,-1.6419601,0.67372024,4.4887433,8.692967,0,1683900291.523744
0.057006974,0.25758538,1.2734591,6.7157745,-5.579567,-1.6419601,1.0350759,5.0793996,8.324584,0,1683900291.5442655
0.057006974,0.25758538,1.2734591,6.859703,-5.45166,-2.302456,1.0350759,5.0793996,8.324584,0,1683900291.549401
0.057006974,0.25758538,1.2734591,6.8383408,-5.398388,-2.562275,1.0350759,5.0793996,8.324584,0,1683900291.559663
0.019426957,0.21950491,1.1921873,6.8383408,-5.398388,-2.562275,1.0350759,5.0793996,8.324584,0,1683900291.5750246
0.019426957,0.21950491,1.1921873,6.8383408,-5.398388,-2.562275,1.1887362,5.370364,8.1188965,0,1683900291.5903912
0.019426957,0.21950491,1.1921873,6.5293884,-5.3399086,-2.9000664,1.1887362,5.370364,8.1188965,0,1683900291.5954971
-0.18241018,0.0957699,1.0140235,6.5293884,-5.3399086,-2.9000664,1.1887362,5.370364,8.1188965,0,1683900291.6108947
-0.18241018,0.0957699,1.0140235,6.5293884,-5.3399086,-2.9000664,1.556137,6.190841,7.4446163,0,1683900291.6262996
-0.18241018,0.0957699,1.0140235,6.1309814,-5.5134773,-2.4152756,1.556137,6.190841,7.4446163,0,1683900291.6775358
-0.91678256,0.12945239,1.1123867,6.1309814,-5.5134773,-2.4152756,1.556137,6.190841,7.4446163,0,1683900291.6826606
-0.91678256,0.12945239,1.1123867,6.1309814,-5.5134773,-2.4152756,1.8425257,6.907578,6.712737,0,1683900291.6928883
-0.20779717,0.056961477,1.1582623,6.1309814,-5.5134773,-2.4152756,1.8425257,6.907578,6.712737,0,1683900291.708254
-0.20779717,0.056961477,1.1582623,6.1405945,-5.4634094,-1.5343475,1.8425257,6.907578,6.712737,0,1683900291.7236173
-0.20779717,0.056961477,1.1582623,6.1405945,-5.4634094,-1.5343475,2.1639462,7.52123,5.9092145,0,1683900291.7287507
-0.20779717,0.056961477,1.1582623,6.341934,-5.2939796,-1.1487579,2.1639462,7.52123,5.9092145,0,1683900291.74928
-0.059645765,0.09942477,1.1153136,6.341934,-5.2939796,-1.1487579,2.1639462,7.52123,5.9092145,0,1683900291.759534
-0.059645765,0.09942477,1.1153136,6.341934,-5.2939796,-1.1487579,2.2700672,7.7112746,5.6172442,0,1683900291.7697592
-0.059645765,0.09942477,1.1153136,6.341934,-5.2939796,-1.1487579,2.511588,8.250963,4.667323,0,1683900291.7748551
0.111435816,0.36521468,0.98132676,6.341934,-5.2939796,-1.1487579,2.511588,8.250963,4.667323,0,1683900291.7799885
0.111435816,0.36521468,0.98132676,6.7617035,-4.9520493,-1.2957573,2.511588,8.250963,4.667323,0,1683900291.7902603
0.111435816,0.36521468,0.98132676,6.7617035,-4.9520493,-1.2957573,2.5853949,8.580055,3.9835632,0,1683900291.8108015
0.111435816,0.36521468,0.98132676,6.9213867,-4.5153236,-1.5662575,2.5853949,8.580055,3.9835632,0,1683900291.8210337
0.15242806,0.39449918,0.8805219,6.9213867,-4.5153236,-1.5662575,2.5853949,8.580055,3.9835632,0,1683900291.8363922
0.15242806,0.39449918,0.8805219,6.9213867,-4.5153236,-1.5662575,2.589804,8.73113,3.6373982,0,1683900291.8517416
0.14243403,0.40132365,0.8480678,6.9213867,-4.5153236,-1.5662575,2.589804,8.73113,3.6373982,0,1683900291.8671083
0.14243403,0.40132365,0.8480678,6.908703,-4.161644,-1.7164612,2.589804,8.73113,3.6373982,0,1683900291.87224
0.14243403,0.40132365,0.8480678,6.3173676,-2.5200844,-1.9742775,2.589804,8.73113,3.6373982,0,1683900291.8876016
0.14243403,0.40132365,0.8480678,6.3173676,-2.5200844,-1.9742775,2.4817834,9.108162,2.655659,0,1683900291.8927293
0.05652168,0.34154138,0.55397916,6.3173676,-2.5200844,-1.9742775,2.4817834,9.108162,2.655659,0,1683900291.913273
-0.07917888,0.1990012,0.41339535,6.3173676,-2.5200844,-1.9742775,2.4817834,9.108162,2.655659,0,1683900291.928672
-0.07917888,0.1990012,0.41339535,6.3173676,-2.5200844,-1.9742775,2.420197,9.204701,2.3635795,0,1683900291.9338052
-0.07917888,0.1990012,0.41339535,5.961685,-2.0300865,-1.8698692,2.420197,9.204701,2.3635795,0,1683900291.949176
-0.07917888,0.1990012,0.41339535,4.828148,-1.1565018,-1.1252594,2.420197,9.204701,2.3635795,0,1683900291.9543014
-0.07917888,0.1990012,0.41339535,4.828148,-1.1565018,-1.1252594,2.2624907,9.407929,1.5944906,0,1683900291.9594264
-0.07966417,0.15532467,0.060009737,4.828148,-1.1565018,-1.1252594,2.2624907,9.407929,1.5944906,0,1683900291.9798791
0.01674267,0.32517785,0.03218111,4.828148,-1.1565018,-1.1252594,2.2624907,9.407929,1.5944906,0,1683900292.0054662
0.01674267,0.32517785,0.03218111,4.2827415,-1.0862732,-0.74287415,2.2624907,9.407929,1.5944906,0,1683900292.0106032
0.01674267,0.32517785,0.03218111,4.2827415,-1.0862732,-0.74287415,2.1981707,9.487039,1.1552216,0,1683900292.0157375
0.01674267,0.32517785,0.03218111,4.2827415,-1.0862732,-0.74287415,2.17226,9.515893,0.94839954,0,1683900292.0311043
0.01674267,0.32517785,0.03218111,4.1207886,-1.1299324,-0.67144394,2.17226,9.515893,0.94839954,0,1683900292.0413797
0.0848356,0.3983967,0.058781333,4.1207886,-1.1299324,-0.67144394,2.17226,9.515893,0.94839954,0,1683900292.0465505
0.0848356,0.3983967,0.058781333,4.060173,-1.3674545,-0.8600998,2.17226,9.515893,0.94839954,0,1683900292.0721872
0.18659586,0.4884644,0.22889233,4.060173,-1.3674545,-0.8600998,2.17226,9.515893,0.94839954,0,1683900292.077282
0.18659586,0.4884644,0.22889233,4.060173,-1.3674545,-0.8600998,2.0770204,9.57831,0.3351889,0,1683900292.082413
0.18659586,0.4884644,0.22889233,4.060173,-1.3674545,-0.8600998,2.0330813,9.592779,0.12468548,0,1683900292.0978088
0.18659586,0.4884644,0.22889233,4.150696,-1.404705,-0.9761238,2.0330813,9.592779,0.12468548,0,1683900292.1182144
0.21539506,0.49748784,0.25672096,4.150696,-1.404705,-0.9761238,2.0330813,9.592779,0.12468548,0,1683900292.123309
0.25176185,0.4564804,0.22719379,4.150696,-1.404705,-0.9761238,2.0330813,9.592779,0.12468548,0,1683900292.1335864
0.25176185,0.4564804,0.22719379,4.150696,-1.404705,-0.9761238,1.861818,9.613752,-0.5289563,0,1683900292.1540534
0.25176185,0.4564804,0.22719379,4.4372177,-1.2545013,-1.3107109,1.861818,9.613752,-0.5289563,0,1683900292.159175
0.25176185,0.4564804,0.22719379,4.56192,-1.0276604,-1.469326,1.861818,9.613752,-0.5289563,0,1683900292.1643107
0.22467633,0.4005957,0.1586004,4.56192,-1.0276604,-1.469326,1.861818,9.613752,-0.5289563,0,1683900292.1745713
0.22467633,0.4005957,0.1586004,4.56192,-1.0276604,-1.469326,1.720052,9.60497,-0.97794616,0,1683900292.1796994
0.22467633,0.4005957,0.1586004,4.56192,-1.0276604,-1.469326,1.6435857,9.592515,-1.205268,0,1683900292.2053223
0.22467633,0.4005957,0.1586004,4.6087837,-0.9082985,-1.5236664,1.6435857,9.592515,-1.205268,0,1683900292.2155526
0.20344467,0.38376203,0.09197853,4.6087837,-0.9082985,-1.5236664,1.6435857,9.592515,-1.205268,0,1683900292.2257721
0.1587824,0.35960343,-0.053716067,4.6087837,-0.9082985,-1.5236664,1.6435857,9.592515,-1.205268,0,1683900292.2462726
0.1587824,0.35960343,-0.053716067,4.6087837,-0.9082985,-1.5236664,1.404833,9.518633,-1.8953767,0,1683900292.2565305
0.1587824,0.35960343,-0.053716067,4.7493744,-0.667572,-1.580143,1.404833,9.518633,-1.8953767,0,1683900292.2719502
0.13779339,0.34105608,-0.118154116,4.7493744,-0.667572,-1.580143,1.404833,9.518633,-1.8953767,0,1683900292.2821658
0.0941017,0.38571838,-0.43567342,4.7493744,-0.667572,-1.580143,1.404833,9.518633,-1.8953767,0,1683900292.3230796
0.0941017,0.38571838,-0.43567342,4.44149,-0.081710815,-1.4864159,1.404833,9.518633,-1.8953767,0,1683900292.3282077
0.0941017,0.38571838,-0.43567342,4.44149,-0.081710815,-1.4864159,0.88002205,9.130047,-3.4696088,0,1683900292.3384657
-0.026949028,0.40376526,-0.95014656,4.44149,-0.081710815,-1.4864159,0.88002205,9.130047,-3.4696088,0,1683900292.3538325
-0.026949028,0.40376526,-0.95014656,3.8417435,0.49667358,-1.292553,0.88002205,9.130047,-3.4696088,0,1683900292.3589563
-0.026949028,0.40376526,-0.95014656,3.8417435,0.49667358,-1.292553,0.71011966,8.909911,-4.034798,0,1683900292.3640912
-0.026949028,0.40376526,-0.95014656,3.6116982,0.6468773,-1.2168503,0.71011966,8.909911,-4.034798,0,1683900292.3794363
-0.026949028,0.40376526,-0.95014656,3.6116982,0.6468773,-1.2168503,0.6682343,8.8355,-4.202117,0,1683900292.3845704
-0.03623029,0.41548818,-1.09023,3.6116982,0.6468773,-1.2168503,0.6682343,8.8355,-4.202117,0,1683900292.3896997
-0.04989437,0.526287,-1.481696,3.6116982,0.6468773,-1.2168503,0.6682343,8.8355,-4.202117,0,1683900292.4204433
-0.04989437,0.526287,-1.481696,3.6116982,0.6468773,-1.2168503,0.5189199,8.494872,-4.8721924,0,1683900292.4255788
-0.03623029,0.41548818,-1.09023,3.6116982,0.6468773,-1.2168503,0.5189199,8.494872,-4.8721924,0,1683900292.4563208
-0.03623029,0.41548818,-1.09023,3.6116982,0.6468773,-1.2168503,0.6682343,8.8355,-4.202117,0,1683900292.4665864
-0.03623029,0.41548818,-1.09023,2.3833656,0.53619385,-0.9132385,0.6682343,8.8355,-4.202117,0,1683900292.4768136
-0.04989437,0.5763179,-1.4424022,2.3833656,0.53619385,-0.9132385,0.6682343,8.8355,-4.202117,0,1683900292.4973352
-0.04989437,0.5763179,-1.4424022,2.1629333,0.44660568,-0.90055466,0.6682343,8.8355,-4.202117,0,1683900292.5024667
-0.060146224,0.67321,-1.2735198,2.1629333,0.44660568,-0.90055466,0.6682343,8.8355,-4.202117,0,1683900292.5127378
-0.060146224,0.67321,-1.2735198,2.1629333,0.44660568,-0.90055466,0.39975515,8.286794,-5.228731,0,1683900292.5281167
-0.060146224,0.67321,-1.2735198,1.7549133,0.32737732,-0.91537476,0.39975515,8.286794,-5.228731,0,1683900292.5332503
-0.060146224,0.67321,-1.2735198,1.7250061,0.33058167,-0.92285156,0.39975515,8.286794,-5.228731,0,1683900292.5640297
-0.060146224,0.67321,-1.2735198,1.7250061,0.33058167,-0.92285156,0.3687707,8.239201,-5.3056555,0,1683900292.5691607
-0.09040132,0.6871168,-1.1915201,1.7250061,0.33058167,-0.92285156,0.3687707,8.239201,-5.3056555,0,1683900292.5742948
-0.09040132,0.6871168,-1.1915201,1.8167305,-0.008144379,-0.94421387,0.3687707,8.239201,-5.3056555,0,1683900292.5896819
-0.12018629,0.74301666,-1.5707779,1.8167305,-0.008144379,-0.94421387,0.3687707,8.239201,-5.3056555,0,1683900292.5948164
-0.12018629,0.74301666,-1.5707779,-3.202877,-1.8702698,0.3596878,0.3687707,8.239201,-5.3056555,0,1683900292.6050656
0.004291826,0.45770884,-0.9110955,-3.202877,-1.8702698,0.3596878,0.3687707,8.239201,-5.3056555,0,1683900292.6101959
0.004291826,0.45770884,-0.9110955,-3.202877,-1.8702698,0.3596878,-1.1914804,8.968275,-3.784283,0,1683900292.6204083
0.004291826,0.45770884,-0.9110955,-3.2795143,-1.9053841,0.3586197,-1.1914804,8.968275,-3.784283,0,1683900292.635796
0.004291826,0.45770884,-0.9110955,-3.2795143,-1.9053841,0.3586197,-1.2093351,9.028025,-3.633547,0,1683900292.6409304
0.008189349,0.44721434,-0.8864516,-3.2795143,-1.9053841,0.3586197,-1.2093351,9.028025,-3.633547,0,1683900292.6460254
0.008189349,0.44721434,-0.8864516,-3.2795143,-1.9053841,0.3586197,-1.2604537,9.200723,-3.1509306,0,1683900292.661455
0.008189349,0.44721434,-0.8864516,-3.480854,-2.1334267,0.35007477,-1.2604537,9.200723,-3.1509306,0,1683900292.6717257
0.06140496,0.41548818,-0.77783656,-3.480854,-2.1334267,0.35007477,-1.2604537,9.200723,-3.1509306,0,1683900292.6871188
0.0831219,0.35227853,-0.59430414,-3.480854,-2.1334267,0.35007477,-1.2604537,9.200723,-3.1509306,0,1683900292.748706
0.0831219,0.35227853,-0.59430414,-3.480854,-2.1334267,0.35007477,-1.3180085,9.408026,-2.4335747,0,1683900292.7589736
0.0831219,0.35227853,-0.59430414,-3.8238525,-2.2228813,0.2957344,-1.3180085,9.408026,-2.4335747,0,1683900292.7641034
0.036745917,0.33201748,-0.47837934,-3.8238525,-2.2228813,0.2957344,-1.3180085,9.408026,-2.4335747,0,1683900292.779493
0.036745917,0.33201748,-0.47837934,-3.8238525,-2.2228813,0.2957344,-1.3366462,9.498829,-2.03863,0,1683900292.7897134
0.036745917,0.33201748,-0.47837934,-4.04335,-2.1674728,0.29146194,-1.3366462,9.498829,-2.03863,0,1683900292.7999372
-0.00034880562,0.34299725,-0.40980113,-4.04335,-2.1674728,0.29146194,-1.3366462,9.498829,-2.03863,0,1683900292.8050706
-0.00034880562,0.34299725,-0.40980113,-4.04335,-2.1674728,0.29146194,-1.3420836,9.540394,-1.8303236,0,1683900292.8255162
-0.00034880562,0.34299725,-0.40980113,-4.1604424,-2.1099281,0.30000687,-1.3420836,9.540394,-1.8303236,0,1683900292.8306491
-0.00034880562,0.34299725,-0.40980113,-4.449234,-1.8745422,0.38211823,-1.3420836,9.540394,-1.8303236,0,1683900292.851155
-0.06648539,0.3376287,-0.1720825,-4.449234,-1.8745422,0.38211823,-1.3420836,9.540394,-1.8303236,0,1683900292.866551
-0.06648539,0.3376287,-0.1720825,-4.449234,-1.8745422,0.38211823,-1.3362375,9.6441965,-1.1723171,0,1683900292.8716877
0.69424456,0.42574003,1.5902504,-4.449234,-1.8745422,0.38211823,-1.3362375,9.6441965,-1.1723171,0,1683900292.8870583
0.69424456,0.42574003,1.5902504,-4.449234,-1.8745422,0.38211823,0.94778675,6.5367327,7.24867,0,1683900292.8973103
0.69424456,0.42574003,1.5902504,-2.8939247,-1.26091,0.29893875,0.94778675,6.5367327,7.24867,0,1683900292.9177945
0.7018121,0.47015968,1.7115438,-2.8939247,-1.26091,0.29893875,0.94778675,6.5367327,7.24867,0,1683900292.9229295
0.7018121,0.47015968,1.7115438,-2.8939247,-1.26091,0.29893875,1.0809182,6.354221,7.3909326,0,1683900292.9434452
0.7018121,0.47015968,1.7115438,-2.0874977,-1.7157936,-0.056877136,1.0809182,6.354221,7.3909326,0,1683900292.9485743
0.67154187,0.48382375,1.7847626,-2.0874977,-1.7157936,-0.056877136,1.0809182,6.354221,7.3909326,0,1683900292.9742312
0.67154187,0.48382375,1.7847626,-1.3386154,-1.9575882,-0.3902626,1.0809182,6.354221,7.3909326,0,1683900292.9793239
0.67154187,0.48382375,1.7847626,-1.3386154,-1.9575882,-0.3902626,1.2152783,6.2293253,7.475895,0,1683900292.9844575
0.67154187,0.48382375,1.7847626,-0.273304,-1.7808151,-0.7386017,1.2152783,6.2293253,7.475895,0,1683900293.0254514
0.67154187,0.48382375,1.7847626,-0.273304,-1.7808151,-0.7386017,1.4348845,6.124164,7.523703,0,1683900293.040807
0.44189125,0.40719268,1.7156991,-0.273304,-1.7808151,-0.7386017,1.4348845,6.124164,7.523703,0,1683900293.0510771
0.44189125,0.40719268,1.7156991,-0.14019012,-1.6477013,-0.7236481,1.4348845,6.124164,7.523703,0,1683900293.0664632
0.38110808,0.38937324,1.6885984,-0.14019012,-1.6477013,-0.7236481,1.4348845,6.124164,7.523703,0,1683900293.081868
0.38110808,0.38937324,1.6885984,-0.14019012,-1.6477013,-0.7236481,1.4764708,6.116628,7.521787,0,1683900293.0869603
0.38110808,0.38937324,1.6885984,-0.14019012,-1.6477013,-0.7236481,1.5705128,6.1056004,7.5116916,0,1683900293.1074107
0.38110808,0.38937324,1.6885984,-0.0028038025,-1.0926819,-0.50001144,1.5705128,6.1056004,7.5116916,0,1683900293.122723
0.28665757,0.361302,1.6112394,-0.0028038025,-1.0926819,-0.50001144,1.5705128,6.1056004,7.5116916,0,1683900293.127849
0.28665757,0.361302,1.6112394,-0.0028038025,-1.0926819,-0.50001144,1.6080642,6.0944967,7.512764,0,1683900293.1381092
0.28665757,0.361302,1.6112394,-0.048599243,-0.6420708,-0.26342392,1.6080642,6.0944967,7.512764,0,1683900293.153458
0.26738226,0.35960343,1.5602227,-0.048599243,-0.6420708,-0.26342392,1.6080642,6.0944967,7.512764,0,1683900293.1585958
0.24712121,0.37253958,0.59547186,-0.048599243,-0.6420708,-0.26342392,1.6080642,6.0944967,7.512764,0,1683900293.1637273
0.24712121,0.37253958,0.59547186,-0.048599243,-0.6420708,-0.26342392,0.01735035,8.265539,5.2773995,0,1683900293.1739886
0.24712121,0.37253958,0.59547186,4.244423,1.256237,-0.69067,0.01735035,8.265539,5.2773995,0,1683900293.1842089
0.13242482,0.3669132,0.3213865,4.244423,1.256237,-0.69067,0.01735035,8.265539,5.2773995,0,1683900293.2560036
0.13242482,0.3669132,0.3213865,4.244423,1.256237,-0.69067,-0.41253304,8.9618435,3.9604995,0,1683900293.2662292
0.13242482,0.3669132,0.3213865,4.406376,1.0484886,-0.95596313,-0.41253304,8.9618435,3.9604995,0,1683900293.2867653
0.13242482,0.3669132,0.3213865,4.3946266,1.0272598,-0.9889412,-0.41253304,8.9618435,3.9604995,0,1683900293.3125343
0.124614604,0.3769224,0.28820446,4.3946266,1.0272598,-0.9889412,-0.41253304,8.9618435,3.9604995,0,1683900293.3228629
0.124614604,0.3769224,0.28820446,4.3946266,1.0272598,-0.9889412,-0.60423297,9.192725,3.3614106,0,1683900293.3433876
0.124614604,0.3769224,0.28820446,4.3520355,0.97826004,-1.0666466,-0.60423297,9.192725,3.3614106,0,1683900293.3484921
0.0709137,0.40670738,0.2132719,4.3520355,0.97826004,-1.0666466,-0.60423297,9.192725,3.3614106,0,1683900293.3638816
0.05310945,0.4189004,0.18642902,4.3520355,0.97826004,-1.0666466,-0.60423297,9.192725,3.3614106,0,1683900293.369042
0.05310945,0.4189004,0.18642902,4.329605,0.9836006,-1.0826683,-0.60423297,9.192725,3.3614106,0,1683900293.374312
0.05310945,0.4189004,0.18642902,4.2838097,0.94421387,-1.1231232,-0.60423297,9.192725,3.3614106,0,1683900293.4102178
0.05310945,0.4189004,0.18642902,4.2838097,0.94421387,-1.1231232,-0.8629881,9.43036,2.548321,0,1683900293.41532
0.040658604,0.45623776,0.13664082,4.2838097,0.94421387,-1.1231232,-0.8629881,9.43036,2.548321,0,1683900293.4307349
-0.574862,0.4476996,-1.0772938,4.2838097,0.94421387,-1.1231232,-0.8629881,9.43036,2.548321,0,1683900293.4358244
-0.574862,0.4476996,-1.0772938,2.2288895,1.5577126,-1.4139175,-0.8629881,9.43036,2.548321,0,1683900293.4409215
-0.61853856,0.44061735,-1.1029234,2.2288895,1.5577126,-1.4139175,-0.8629881,9.43036,2.548321,0,1683900293.456335
-0.61853856,0.44061735,-1.1029234,2.1032524,1.7825508,-1.2914848,-0.8629881,9.43036,2.548321,0,1683900293.4819868
-0.61853856,0.44061735,-1.1029234,2.1032524,1.7825508,-1.2914848,-2.777875,7.7886815,-5.271644,0,1683900293.4871228
-0.61853856,0.44061735,-1.1029234,1.913662,2.0061874,-0.89307785,-2.777875,7.7886815,-5.271644,0,1683900293.5076342
-0.6258635,0.45722353,-1.3547914,1.913662,2.0061874,-0.89307785,-2.777875,7.7886815,-5.271644,0,1683900293.5127609
-0.6258635,0.45722353,-1.3547914,1.913662,2.0061874,-0.89307785,-2.7450163,7.5669823,-5.6014333,0,1683900293.5178926
-0.6258635,0.45722353,-1.3547914,1.913662,2.0061874,-0.89307785,-2.6772985,7.296771,-5.9799323,0,1683900293.5640807
-0.48602274,0.5441065,-1.609101,1.913662,2.0061874,-0.89307785,-2.6772985,7.296771,-5.9799323,0,1683900293.5692427
-0.48602274,0.5441065,-1.609101,1.6792107,1.122055,-0.5766487,-2.6772985,7.296771,-5.9799323,0,1683900293.574369
-0.48602274,0.5441065,-1.609101,1.5546417,0.662899,-0.5607605,-2.6772985,7.296771,-5.9799323,0,1683900293.5949843
-0.48602274,0.5441065,-1.609101,1.5546417,0.662899,-0.5607605,-2.672208,7.172834,-6.1302657,0,1683900293.6103458
-0.43867618,0.59121037,-1.5444204,1.5546417,0.662899,-0.5607605,-2.672208,7.172834,-6.1302657,0,1683900293.6154406
-0.4298802,0.6017049,-1.4997581,1.5546417,0.662899,-0.5607605,-2.672208,7.172834,-6.1302657,0,1683900293.6358893
-0.4298802,0.6017049,-1.4997581,1.5546417,0.662899,-0.5607605,-2.6774938,7.1122513,-6.198169,0,1683900293.6511834
-0.4298802,0.6017049,-1.4997581,1.5184593,0.5030823,-0.5745125,-2.6774938,7.1122513,-6.198169,0,1683900293.6613593
-0.4298802,0.6017049,-1.4997581,1.5227318,0.3199005,-0.60869217,-2.6774938,7.1122513,-6.198169,0,1683900293.6716077
-0.4298802,0.6017049,-1.4997581,1.5227318,0.3199005,-0.60869217,-2.7099347,6.9278865,-6.389916,0,1683900293.6767535
-0.4935903,0.6021902,-1.4885356,1.5227318,0.3199005,-0.60869217,-2.7099347,6.9278865,-6.389916,0,1683900293.6819046
-0.09455666,0.46063575,-0.8325081,1.5227318,0.3199005,-0.60869217,-2.7099347,6.9278865,-6.389916,0,1683900293.7228956
-0.09455666,0.46063575,-0.8325081,1.5227318,0.3199005,-0.60869217,-2.8729634,8.553401,-3.841328,0,1683900293.7331223
-0.09455666,0.46063575,-0.8325081,-3.5565567,-2.0908356,1.515522,-2.8729634,8.553401,-3.841328,0,1683900293.738284
-0.09455666,0.46063575,-0.8325081,-3.9378738,-1.9575882,1.5378189,-2.8729634,8.553401,-3.841328,0,1683900293.7690017
-0.09455666,0.46063575,-0.8325081,-3.9378738,-1.9575882,1.5378189,-2.7364848,8.900019,-3.077614,0,1683900293.7792528
-0.042084157,0.4520976,-0.6682661,-3.9378738,-1.9575882,1.5378189,-2.7364848,8.900019,-3.077614,0,1683900293.7843988
-0.042084157,0.4520976,-0.6682661,-3.9378738,-1.9575882,1.5378189,-2.6476665,9.060139,-2.6597233,0,1683900293.804978
-0.042084157,0.4520976,-0.6682661,-4.2894173,-1.7136574,1.5091133,-2.6476665,9.060139,-2.6597233,0,1683900293.8101046
-0.016697174,0.4303655,-0.49375713,-4.2894173,-1.7136574,1.5091133,-2.6476665,9.060139,-2.6597233,0,1683900293.8203893
0.002820776,0.4320792,-0.4146844,-4.2894173,-1.7136574,1.5091133,-2.6476665,9.060139,-2.6597233,0,1683900293.8255281
0.002820776,0.4320792,-0.4146844,-4.4556427,-1.5794754,1.4675903,-2.6476665,9.060139,-2.6597233,0,1683900293.8306813
0.002820776,0.4320792,-0.4146844,-4.4556427,-1.5794754,1.4675903,-2.5487704,9.2050705,-2.2227972,0,1683900293.8511798
0.027722465,0.42598268,-0.3402523,-4.4556427,-1.5794754,1.4675903,-2.5487704,9.2050705,-2.2227972,0,1683900293.8666039
0.027722465,0.42598268,-0.3402523,-4.4556427,-1.5794754,1.4675903,-2.445259,9.330288,-1.771106,0,1683900293.882001
0.027722465,0.42598268,-0.3402523,-4.5557785,-1.5634537,1.3972282,-2.445259,9.330288,-1.771106,0,1683900293.892259
0.027722465,0.42598268,-0.3402523,-4.5557785,-1.5634537,1.3972282,-2.3422995,9.432404,-1.3091207,0,1683900293.9076416
0.036745917,0.40767795,-0.2621502,-4.5557785,-1.5634537,1.3972282,-2.3422995,9.432404,-1.3091207,0,1683900293.9127676
0.036745917,0.40767795,-0.2621502,-4.5791435,-1.6402245,1.3045692,-2.3422995,9.432404,-1.3091207,0,1683900293.9178994
0.036745917,0.40767795,-0.2621502,-4.531212,-1.8105888,1.2342072,-2.3422995,9.432404,-1.3091207,0,1683900293.9435134
0.038216967,0.39595506,-0.20308071,-4.531212,-1.8105888,1.2342072,-2.3422995,9.432404,-1.3091207,0,1683900293.9486566
0.038216967,0.39595506,-0.20308071,-4.531212,-1.8105888,1.2342072,-2.2397943,9.510126,-0.843336,0,1683900293.958916
0.038216967,0.39595506,-0.20308071,-4.457779,-2.0290184,1.2044334,-2.2397943,9.510126,-0.843336,0,1683900293.9640434
0.038216967,0.39595506,-0.20308071,-4.457779,-2.0290184,1.2044334,-2.1335993,9.56436,-0.37573493,0,1683900293.9845572
0.026494063,0.38059244,-0.07421977,-4.457779,-2.0290184,1.2044334,-2.1335993,9.56436,-0.37573493,0,1683900293.9896894
0.026494063,0.38059244,-0.07421977,-2.623291,-1.7530441,0.14019012,-2.1335993,9.56436,-0.37573493,0,1683900293.9948263
0.026494063,0.38059244,-0.07421977,-2.623291,-1.7530441,0.14019012,1.1155474,6.4045444,7.3421893,0,1683900294.0050983
0.785025,0.43671983,1.7413136,-2.623291,-1.7530441,0.14019012,1.1155474,6.4045444,7.3421893,0,1683900294.010233
0.785025,0.43671983,1.7413136,-2.623291,-1.7530441,0.14019012,1.3477004,6.192446,7.483829,0,1683900294.0206878
0.73353827,0.46234944,1.8611511,-1.2778664,-2.1760178,-0.34980774,1.3477004,6.192446,7.483829,0,1683900294.0263257
0.6449416,0.44721434,1.8142898,-0.58439255,-2.210064,-0.5969429,1.4901631,6.1278353,7.509956,0,1683900294.0376012
0.6449416,0.44721434,1.8142898,-0.12002945,-2.0961761,-0.7204437,1.4901631,6.1278353,7.509956,0,1683900294.0478806
0.5492779,0.40426573,1.7322901,-0.12002945,-2.0961761,-0.7204437,1.4901631,6.1278353,7.509956,0,1683900294.063533
0.5492779,0.40426573,1.7322901,-0.12002945,-2.0961761,-0.7204437,1.6145744,6.106049,7.5019803,0,1683900294.0687454
0.46873412,0.3691122,1.6222192,-0.12002945,-2.0961761,-0.7204437,1.6145744,6.106049,7.5019803,0,1683900294.073893
0.46873412,0.3691122,1.6222192,0.12403488,-1.8777466,-0.7120323,1.6145744,6.106049,7.5019803,0,1683900294.0790367
-0.6744385,0.49968684,-1.9905579,2.048912,0.927124,-1.061306,-2.3035557,7.272773,-6.1620455,0,1683900294.1006064
-0.6744385,0.49968684,-1.9905579,2.048912,0.927124,-1.061306,-2.3440342,7.197105,-6.235188,0,1683900294.1110613
-0.6744385,0.49968684,-1.9905579,0.5661011,0.12924194,-0.52978516,-2.3440342,7.197105,-6.235188,0,1683900294.1162944
-0.7954892,0.4745425,-2.034735,0.5661011,0.12924194,-0.52978516,-2.3440342,7.197105,-6.235188,0,1683900294.1266954
-0.7954892,0.4745425,-2.034735,0.5661011,0.12924194,-0.52978516,-2.376094,7.1499014,-6.277218,0,1683900294.1318536
-0.7954892,0.4745425,-2.034735,0.18892288,-0.009212494,-0.29973984,-2.376094,7.1499014,-6.277218,0,1683900294.1369996
-0.81355125,0.464048,-2.034735,0.18892288,-0.009212494,-0.29973984,-2.376094,7.1499014,-6.277218,0,1683900294.1576629
-0.81355125,0.464048,-2.034735,-0.13591766,-0.25741577,-0.04299164,-2.376094,7.1499014,-6.277218,0,1683900294.1783195
-0.81355125,0.464048,-2.034735,-0.13591766,-0.25741577,-0.04299164,-2.404658,7.1293106,-6.289748,0,1683900294.1885715
-0.7940181,0.45746619,-2.022284,-0.13591766,-0.25741577,-0.04299164,-2.404658,7.1293106,-6.289748,0,1683900294.198841
-0.7940181,0.45746619,-2.022284,-0.13591766,-0.25741577,-0.04299164,-2.418417,7.1289406,-6.2848907,0,1683900294.2142282
-0.7940181,0.45746619,-2.022284,-0.13591766,-0.25741577,-0.04299164,-2.0993786,9.505123,-1.1897992,0,1683900294.2193396
-0.7940181,0.45746619,-2.022284,-3.4829903,-2.619152,1.1511612,-2.0993786,9.505123,-1.1897992,0,1683900294.224508
-0.06795644,0.40743533,-0.22699665,-3.4829903,-2.619152,1.1511612,-2.0993786,9.505123,-1.1897992,0,1683900294.2399971
-0.06795644,0.40743533,-0.22699665,-3.4829903,-2.619152,1.1511612,-1.9485136,9.591712,-0.6105188,0,1683900294.265746
-0.024507387,0.42085674,-0.09472348,-3.4829903,-2.619152,1.1511612,-1.9485136,9.591712,-0.6105188,0,1683900294.2761297
-0.024507387,0.42085674,-0.09472348,-3.5373306,-2.5872421,1.3653183,-1.9485136,9.591712,-0.6105188,0,1683900294.281327
-0.024507387,0.42085674,-0.09472348,-3.5617638,-2.5094032,1.5048409,-1.9485136,9.591712,-0.6105188,0,1683900294.3070128
-0.024507387,0.42085674,-0.09472348,-3.5617638,-2.5094032,1.5048409,-1.8152825,9.634606,-0.22249995,0,1683900294.3172233
0.041629195,0.4525829,-0.031271182,-3.5617638,-2.5094032,1.5048409,-1.8152825,9.634606,-0.22249995,0,1683900294.322323
0.041629195,0.4525829,-0.031271182,-3.601284,-2.4114037,1.6113853,-1.8152825,9.634606,-0.22249995,0,1683900294.337674
0.11850292,0.47772723,0.0021686612,-3.601284,-2.4114037,1.6113853,-1.8152825,9.634606,-0.22249995,0,1683900294.3427906
0.11850292,0.47772723,0.0021686612,-3.601284,-2.4114037,1.6113853,-1.6587163,9.6639385,0.16531248,0,1683900294.353021
0.17732975,0.4884644,0.024856193,-3.601284,-2.4114037,1.6113853,-1.6587163,9.6639385,0.16531248,0,1683900294.3684835
0.17732975,0.4884644,0.024856193,-3.601284,-2.4114037,1.6113853,-1.39287,9.677872,0.7543836,0,1683900294.3839095
0.17732975,0.4884644,0.024856193,-3.601284,-2.4114037,1.6113853,-1.2997175,9.673164,0.9544727,0,1683900294.3994021
0.17732975,0.4884644,0.024856193,-3.7727165,-2.179222,1.6806793,-1.2997175,9.673164,0.9544727,0,1683900294.4046192
0.20709956,0.4967599,0.056597505,-3.7727165,-2.179222,1.6806793,-1.2997175,9.673164,0.9544727,0,1683900294.4149854
0.24150999,0.4889497,0.15591612,-3.7727165,-2.179222,1.6806793,-1.2997175,9.673164,0.9544727,0,1683900294.4458504
0.24150999,0.4889497,0.15591612,-3.7727165,-2.179222,1.6806793,-1.1112278,9.64721,1.366342,0,1683900294.4563148
0.24150999,0.4889497,0.15591612,-4.0572357,-1.7840195,1.6390228,-1.1112278,9.64721,1.366342,0,1683900294.4615042
0.24150999,0.4889497,0.15591612,-4.2637825,-1.4729309,1.5857506,-0.83676916,9.562872,2.005415,0,1683900294.487466
0.20490056,0.45698088,0.2245095,-4.2637825,-1.4729309,1.5857506,-0.83676916,9.562872,2.005415,0,1683900294.4874825
0.48752412,0.4752856,1.0032864,-3.378582,-0.6249809,1.0777283,0.96180683,7.9621334,5.643558,0,1683900294.5088103
0.46116656,0.47284395,1.0843154,-3.378582,-0.6249809,1.0777283,0.96180683,7.9621334,5.643558,0,1683900294.5140336
0.45359898,0.46503374,1.1470398,-3.378582,-0.6249809,1.0777283,0.96180683,7.9621334,5.643558,0,1683900294.5295756
0.45359898,0.46503374,1.1470398,-3.2816505,-0.593071,0.94875336,0.96180683,7.9621334,5.643558,0,1683900294.5399141
0.45359898,0.46503374,1.1470398,-2.6883125,-0.8849335,0.62604904,0.96180683,7.9621334,5.643558,0,1683900294.5659475
0.45359898,0.46503374,1.1470398,-2.6883125,-0.8849335,0.62604904,1.1240127,7.67797,5.9963136,0,1683900294.5763252
0.449201,0.47064495,1.3644973,-2.6883125,-0.8849335,0.62604904,1.1240127,7.67797,5.9963136,0,1683900294.5866528
0.449201,0.47064495,1.3644973,-1.7412949,-1.4836121,0.431118,1.1240127,7.67797,5.9963136,0,1683900294.6020777
0.449201,0.47064495,1.3644973,-1.7412949,-1.4836121,0.431118,1.3080019,7.4592905,6.230449,0,1683900294.61755
0.48923782,0.5133509,1.5089787,-1.7412949,-1.4836121,0.431118,1.3080019,7.4592905,6.230449,0,1683900294.6175737
0.48923782,0.5133509,1.5089787,-1.427002,-1.6434288,0.39052963,1.3080019,7.4592905,6.230449,0,1683900294.622851
0.53071535,0.5289713,1.5292398,-1.427002,-1.6434288,0.39052963,1.3080019,7.4592905,6.230449,0,1683900294.628017
0.6683723,0.6204949,1.5272834,-1.427002,-1.6434288,0.39052963,1.3080019,7.4592905,6.230449,0,1683900294.6384873
0.6683723,0.6204949,1.5272834,-1.427002,-1.6434288,0.39052963,1.59488,7.2894497,6.3632274,0,1683900294.6442852
0.6683723,0.6204949,1.5272834,-0.73352814,-1.7957687,0.26168823,1.59488,7.2894497,6.3632274,0,1683900294.6495304
0.74720234,0.6817482,1.57463,-0.73352814,-1.7957687,0.26168823,1.59488,7.2894497,6.3632274,0,1683900294.6911192
0.74720234,0.6817482,1.57463,-0.73352814,-1.7957687,0.26168823,1.837112,7.1926913,6.4078555,0,1683900294.7065961
0.74720234,0.6817482,1.57463,-0.45448303,-1.3706589,0.07102966,1.917835,7.151682,6.4300656,0,1683900294.7222488
0.74720234,0.6817482,1.57463,-0.43418884,-1.1949539,0.024166107,1.917835,7.151682,6.4300656,0,1683900294.7273746
0.74720234,0.6817482,1.57463,-0.36075592,-0.7933426,-0.04299164,1.917835,7.151682,6.4300656,0,1683900294.7325537
0.74134845,0.67736536,1.6561444,-0.36075592,-0.7933426,-0.04299164,1.917835,7.151682,6.4300656,0,1683900294.7325664
0.74134845,0.67736536,1.6561444,-0.36075592,-0.7933426,-0.04299164,1.94657,7.133151,6.442003,0,1683900294.737687
0.7274266,0.6707684,1.6827445,-0.36075592,-0.7933426,-0.04299164,1.94657,7.133151,6.442003,0,1683900294.7428164
0.6905745,0.65514797,1.7210677,-0.36075592,-0.7933426,-0.04299164,1.94657,7.133151,6.442003,0,1683900294.7633014
0.6905745,0.65514797,1.7210677,-0.36075592,-0.7933426,-0.04299164,1.9815055,7.102466,6.4652143,0,1683900294.7684023
0.6905745,0.65514797,1.7210677,-0.22857666,-0.38852692,-0.07810593,1.9815055,7.102466,6.4652143,0,1683900294.7734985
0.6905745,0.65514797,1.7210677,-0.1455307,-0.19145966,-0.08878708,1.9815055,7.102466,6.4652143,0,1683900294.7989707
0.6905745,0.65514797,1.7210677,-0.1455307,-0.19145966,-0.08878708,1.9885443,7.0910525,6.475574,0,1683900294.8091943
0.6781388,0.64709514,1.7271641,-0.1455307,-0.19145966,-0.08878708,1.9885443,7.0910525,6.475574,0,1683900294.8143141
0.6781388,0.64709514,1.7271641,0.19105911,0.31455994,-0.15060425,1.9885443,7.0910525,6.475574,0,1683900294.8194616
0.63957304,0.6119567,1.6825019,0.19105911,0.31455994,-0.15060425,1.9885443,7.0910525,6.475574,0,1683900294.8245783
0.63957304,0.6119567,1.6825019,0.19105911,0.31455994,-0.15060425,1.9710788,7.078921,6.4941597,0,1683900294.8501985
0.61761343,0.574862,1.5909784,0.19105911,0.31455994,-0.15060425,1.9710788,7.078921,6.4941597,0,1683900294.860496
0.61761343,0.574862,1.5909784,0.6544876,0.5819893,-0.26342392,1.9710788,7.078921,6.4941597,0,1683900294.8708053
0.61761343,0.574862,1.5909784,0.6544876,0.5819893,-0.26342392,1.9085866,7.111586,6.477116,0,1683900294.886268
0.61418605,0.5741189,1.5582817,0.6544876,0.5819893,-0.26342392,1.9085866,7.111586,6.477116,0,1683900294.9119215
0.61418605,0.5741189,1.5582817,0.6544876,0.5819893,-0.26342392,1.8816139,7.1343265,6.459977,0,1683900294.917065
0.61418605,0.5741189,1.5582817,0.82925797,0.611763,-0.31455994,1.8816139,7.1343265,6.459977,0,1683900294.9221838
0.61418605,0.5741189,1.5582817,1.1956215,0.6042862,-0.44139862,1.8816139,7.1343265,6.459977,0,1683900294.9273353
0.5729512,0.5562995,1.429906,1.1956215,0.6042862,-0.44139862,1.8816139,7.1343265,6.459977,0,1683900294.9479496
0.5729512,0.5562995,1.429906,1.3809395,0.5755806,-0.5096245,1.7878417,7.2418356,6.366305,0,1683900294.9533358
0.45628327,0.505298,1.248072,1.3809395,0.5755806,-0.5096245,1.7878417,7.2418356,6.366305,0,1683900294.9894722
0.45628327,0.505298,1.248072,1.3809395,0.5755806,-0.5096245,1.6426833,7.46272,6.1465263,0,1683900294.999957
0.45628327,0.505298,1.248072,3.1972694,2.104187,-0.15487671,1.6426833,7.46272,6.1465263,0,1683900295.0309246
0.45628327,0.505298,1.248072,3.1972694,2.104187,-0.15487671,0.08078323,9.217966,3.3455896,0,1683900295.0412679
0.20832796,0.49700254,0.3741168,3.1972694,2.104187,-0.15487671,0.08078323,9.217966,3.3455896,0,1683900295.0464084
0.20832796,0.49700254,0.3741168,3.336792,2.0669365,-0.23044586,0.08078323,9.217966,3.3455896,0,1683900295.0669
0.20832796,0.49700254,0.3741168,3.336792,2.0669365,-0.23044586,-0.037655957,9.37028,2.892544,0,1683900295.0720344
0.1770871,0.4933325,0.25549254,3.336792,2.0669365,-0.23044586,-0.037655957,9.37028,2.892544,0,1683900295.082281
0.15389912,0.485037,0.20985967,3.336792,2.0669365,-0.23044586,-0.037655957,9.37028,2.892544,0,1683900295.097629
0.15389912,0.485037,0.20985967,3.336792,2.0669365,-0.23044586,-0.076413505,9.417354,2.7345948,0,1683900295.1079128
0.15389912,0.485037,0.20985967,3.3634949,2.0605278,-0.24860382,-0.076413505,9.417354,2.7345948,0,1683900295.1182187
0.15389912,0.485037,0.20985967,3.3772469,2.020073,-0.2614212,-0.076413505,9.417354,2.7345948,0,1683900295.1284552
0.11997397,0.4896776,0.14299515,3.3772469,2.020073,-0.2614212,-0.076413505,9.417354,2.7345948,0,1683900295.1386836
0.11997397,0.4896776,0.14299515,3.3772469,2.020073,-0.2614212,-0.18349628,9.542697,2.2524743,0,1683900295.1540956
0.11997397,0.4896776,0.14299515,3.379383,1.9935036,-0.25287628,-0.18349628,9.542697,2.2524743,0,1683900295.1591752
0.1045962,0.4950462,0.12737472,3.379383,1.9935036,-0.25287628,-0.18349628,9.542697,2.2524743,0,1683900295.1849484
0.08409249,0.54287803,0.07343117,3.379383,1.9935036,-0.25287628,-0.18349628,9.542697,2.2524743,0,1683900295.2003179
0.08409249,0.54287803,0.07343117,3.4902,1.8943024,-0.21562576,-0.18349628,9.542697,2.2524743,0,1683900295.2054367
0.08409249,0.54287803,0.07343117,3.4902,1.8943024,-0.21562576,-0.2967094,9.673418,1.5834588,0,1683900295.225953
0.08409249,0.54287803,0.07343117,3.582859,1.835823,-0.1835823,-0.2967094,9.673418,1.5834588,0,1683900295.2464495
0.089218415,0.56094015,-0.031999126,3.582859,1.835823,-0.1835823,-0.2967094,9.673418,1.5834588,0,1683900295.2515478
0.089218415,0.56094015,-0.031999126,3.582859,1.835823,-0.1835823,-0.33873844,9.723193,1.2309183,0,1683900295.2566714
0.08653413,0.55605686,-0.07446242,3.582859,1.835823,-0.1835823,-0.33873844,9.723193,1.2309183,0,1683900295.2825909
0.08653413,0.55605686,-0.07446242,3.582859,1.835823,-0.1835823,-0.35597947,9.743644,1.0512205,0,1683900295.292882
0.14364725,0.5812012,-0.34269395,3.582859,1.835823,-0.1835823,-0.35597947,9.743644,1.0512205,0,1683900295.3082821
0.14364725,0.5812012,-0.34269395,3.3102226,2.001915,-0.117492676,-0.35597947,9.743644,1.0512205,0,1683900295.318553
0.14364725,0.5812012,-0.34269395,3.3102226,2.001915,-0.117492676,-0.41337574,9.797918,-0.017384753,0,1683900295.3237238
0.14364725,0.5812012,-0.34269395,3.3102226,2.001915,-0.117492676,-0.4171805,9.785496,-0.49032345,0,1683900295.3545656
0.15609811,0.5977922,-0.3622119,3.3102226,2.001915,-0.117492676,-0.4171805,9.785496,-0.49032345,0,1683900295.3699956
0.15609811,0.5977922,-0.3622119,3.0470657,2.1287537,-0.1260376,-0.4171805,9.785496,-0.49032345,0,1683900295.3751335
0.15609811,0.5977922,-0.3622119,2.8617477,2.285366,-0.1612854,-0.4171805,9.785496,-0.49032345,0,1683900295.3853955
0.15609811,0.5977922,-0.3622119,2.8617477,2.285366,-0.1612854,-0.41640016,9.776972,-0.63860655,0,1683900295.4007802
0.15218541,0.62025225,-0.31486532,2.8617477,2.285366,-0.1612854,-0.41640016,9.776972,-0.63860655,0,1683900295.405922
0.11656175,0.6463672,-0.27484366,2.8617477,2.285366,-0.1612854,-0.41640016,9.776972,-0.63860655,0,1683900295.4264097
0.11656175,0.6463672,-0.27484366,2.9618835,2.2810936,-0.18678665,-0.41640016,9.776972,-0.63860655,0,1683900295.4366322
0.11656175,0.6463672,-0.27484366,2.9618835,2.2810936,-0.18678665,-0.40715024,9.737913,-1.0852103,0,1683900295.4468813
0.009175105,0.57510465,-0.54647225,2.9618835,2.2810936,-0.18678665,-0.40715024,9.737913,-1.0852103,0,1683900295.5287993
0.009175105,0.57510465,-0.54647225,2.9618835,2.2810936,-0.18678665,-0.34164566,9.579146,-2.0721064,0,1683900295.544183
0.009175105,0.57510465,-0.54647225,3.3857918,2.0754814,-0.05153656,-0.34164566,9.579146,-2.0721064,0,1683900295.5492728
0.009175105,0.57510465,-0.54647225,3.3857918,2.0754814,-0.05153656,-0.40715024,9.737913,-1.0852103,0,1683900295.5543988
0.009175105,0.57510465,-0.54647225,3.3815193,2.021141,-0.01001358,-0.40715024,9.737913,-1.0852103,0,1683900295.56462
0.009903047,0.5838855,-0.61603624,3.3815193,2.021141,-0.01001358,-0.40715024,9.737913,-1.0852103,0,1683900295.5748641
0.009903047,0.5838855,-0.61603624,2.150116,-0.22443771,-0.069561005,-0.40715024,9.737913,-1.0852103,0,1683900295.5902457
-0.08283376,0.83014226,-1.9134415,2.150116,-0.22443771,-0.069561005,-0.40715024,9.737913,-1.0852103,0,1683900295.600491
-0.08283376,0.83014226,-1.9134415,2.150116,-0.22443771,-0.069561005,0.1998924,8.042406,-5.6080422,0,1683900295.610706
-0.08283376,0.83014226,-1.9134415,1.9902992,-0.34593582,-0.07062912,0.1998924,8.042406,-5.6080422,0,1683900295.615838
-0.08283376,0.83014226,-1.9134415,1.9902992,-0.34593582,-0.07062912,0.18610457,7.978558,-5.6989803,0,1683900295.631254
-0.065514795,0.85258716,-1.9746948,1.9902992,-0.34593582,-0.07062912,0.18610457,7.978558,-5.6989803,0,1683900295.6415186
-0.065514795,0.85258716,-1.9746948,1.9902992,-0.34593582,-0.07062912,0.13287123,7.8187814,-5.9177184,0,1683900295.6671407
-0.065514795,0.85258716,-1.9746948,1.321392,-0.4598236,-0.06528854,0.13287123,7.8187814,-5.9177184,0,1683900295.6722746
-0.10505116,0.8667517,-2.0286384,1.321392,-0.4598236,-0.06528854,0.13287123,7.8187814,-5.9177184,0,1683900295.6773696
-0.10505116,0.8667517,-2.0286384,1.0603714,-0.431118,-0.040855408,0.13287123,7.8187814,-5.9177184,0,1683900295.7029903
-0.10505116,0.8667517,-2.0286384,1.0603714,-0.431118,-0.040855408,0.11737554,7.779076,-5.9701414,0,1683900295.7081342
-0.07185396,0.8472186,-2.06085,1.0603714,-0.431118,-0.040855408,0.11737554,7.779076,-5.9701414,0,1683900295.718368
-0.11530301,0.81573504,-2.1047843,1.0603714,-0.431118,-0.040855408,0.11737554,7.779076,-5.9701414,0,1683900295.7285573
-0.11530301,0.81573504,-2.1047843,0.47023773,-0.38425446,0.006008148,0.11737554,7.779076,-5.9701414,0,1683900295.7439337
-0.11530301,0.81573504,-2.1047843,0.47023773,-0.38425446,0.006008148,0.079176284,7.7110553,-6.058361,0,1683900295.7490292
-0.122127466,0.8071969,-2.072315,0.47023773,-0.38425446,0.006008148,0.079176284,7.7110553,-6.058361,0,1683900295.7693987
-0.122127466,0.8071969,-2.072315,0.14633179,-0.3735733,0.03578186,0.079176284,7.7110553,-6.058361,0,1683900295.7898798
-0.122127466,0.8071969,-2.072315,0.14633179,-0.3735733,0.03578186,0.0550279,7.7295837,-6.0349727,0,1683900295.8051908
-0.1179873,0.780354,-1.9578612,0.14633179,-0.3735733,0.03578186,0.0550279,7.7295837,-6.0349727,0,1683900295.8154206
-0.1179873,0.780354,-1.9578612,-0.7825279,-0.36502838,0.17223358,0.0550279,7.7295837,-6.0349727,0,1683900295.8205516
-0.05818988,0.7808393,-1.697455,-0.7825279,-0.36502838,0.17223358,0.0550279,7.7295837,-6.0349727,0,1683900295.835917
-0.05818988,0.7808393,-1.697455,-1.5495682,-0.35648346,0.28718948,0.0550279,7.7295837,-6.0349727,0,1683900295.8410418
0.14340462,0.56533813,-0.3124237,-1.5495682,-0.35648346,0.28718948,0.0550279,7.7295837,-6.0349727,0,1683900295.8512576
0.14340462,0.56533813,-0.3124237,-1.5495682,-0.35648346,0.28718948,-0.69960624,9.6322365,-1.7032211,0,1683900295.8717582
0.14340462,0.56533813,-0.3124237,-3.4222412,-2.1888351,-0.021629333,-0.69960624,9.6322365,-1.7032211,0,1683900295.8820026
0.14340462,0.56533813,-0.3124237,-3.318901,-2.354927,-0.03551483,-0.69960624,9.6322365,-1.7032211,0,1683900295.9076324
0.13999239,0.56436753,-0.21601684,-3.318901,-2.354927,-0.03551483,-0.69960624,9.6322365,-1.7032211,0,1683900295.9127305
0.13999239,0.56436753,-0.21601684,-3.318901,-2.354927,-0.03551483,-0.7336,9.682998,-1.3681217,0,1683900295.9178634
0.13999239,0.56436753,-0.21601684,-3.318901,-2.354927,-0.03551483,-0.7487233,9.70391,-1.2016447,0,1683900295.9229732
0.13046847,0.56313914,-0.15621942,-3.318901,-2.354927,-0.03551483,-0.7487233,9.70391,-1.2016447,0,1683900295.933229
0.13046847,0.56313914,-0.15621942,-3.2688332,-2.4081993,-0.036582947,-0.7487233,9.70391,-1.2016447,0,1683900295.938365
0.13046847,0.56313914,-0.15621942,-3.2688332,-2.4081993,-0.036582947,-0.7800134,9.7498665,-0.7085716,0,1683900295.9742684
0.10166926,0.54215014,0.017061146,-3.2688332,-2.4081993,-0.036582947,-0.7800134,9.7498665,-0.7085716,0,1683900295.9844582
0.10166926,0.54215014,0.017061146,-3.165493,-2.354927,-0.0014686584,-0.7800134,9.7498665,-0.7085716,0,1683900295.9895518
0.028935703,0.591453,0.2215674,-3.165493,-2.354927,-0.0014686584,-0.7800134,9.7498665,-0.7085716,0,1683900296.0408242
0.055793736,0.5838855,0.21595618,-3.165493,-2.354927,-0.0014686584,-0.7800134,9.7498665,-0.7085716,0,1683900296.0510113
0.055793736,0.5838855,0.21595618,-3.165493,-2.354927,-0.0014686584,-0.7820533,9.775205,-0.06436992,0,1683900296.071494
0.055793736,0.5838855,0.21595618,-3.02063,-1.8862915,0.07209778,-0.7820533,9.775205,-0.06436992,0,1683900296.0766048
0.055793736,0.5838855,0.21595618,-2.855606,-1.7371559,0.14125824,-0.7820533,9.775205,-0.06436992,0,1683900296.0868614
0.055793736,0.5838855,0.21595618,-2.855606,-1.7371559,0.14125824,-0.7666901,9.773753,0.23733324,0,1683900296.0919514
0.032605745,0.60146224,0.19985047,-2.855606,-1.7371559,0.14125824,-0.7666901,9.773753,0.23733324,0,1683900296.0970871
0.032605745,0.60146224,0.19985047,-2.7724266,-1.710453,0.18278122,-0.7666901,9.773753,0.23733324,0,1683900296.102219
0.032605745,0.60146224,0.19985047,-2.7724266,-1.710453,0.18278122,-0.7541324,9.770161,0.38161752,0,1683900296.1278305
0.032605745,0.60146224,0.19985047,-2.7724266,-1.710453,0.18278122,0.85637385,8.072493,5.5019884,0,1683900296.1380637
0.44627407,0.74447256,1.6175785,-2.7724266,-1.710453,0.18278122,0.85637385,8.072493,5.5019884,0,1683900296.1431682
0.44627407,0.74447256,1.6175785,0.022830963,-1.2183189,-0.24219513,0.85637385,8.072493,5.5019884,0,1683900296.1534264
0.42651346,0.74398726,1.5765864,0.022830963,-1.2183189,-0.24219513,0.85637385,8.072493,5.5019884,0,1683900296.1688168
0.42651346,0.74398726,1.5765864,0.19960403,-1.1117744,-0.25928497,0.85637385,8.072493,5.5019884,0,1683900296.1841764
0.42651346,0.74398726,1.5765864,0.44353485,-0.56209564,-0.23258209,0.85637385,8.072493,5.5019884,0,1683900296.199497
0.42651346,0.74398726,1.5765864,0.44353485,-0.56209564,-0.23258209,0.9222269,8.089744,5.4658885,0,1683900296.2046332
0.38941875,0.7552097,1.4938436,0.44353485,-0.56209564,-0.23258209,0.9222269,8.089744,5.4658885,0,1683900296.2148895
0.39258832,0.75276804,1.4157414,0.44353485,-0.56209564,-0.23258209,0.9222269,8.089744,5.4658885,0,1683900296.2456627
0.39258832,0.75276804,1.4157414,0.48612595,-0.14245987,-0.17396927,0.9222269,8.089744,5.4658885,0,1683900296.2507944
0.39258832,0.75276804,1.4157414,0.48612595,-0.14245987,-0.17396927,0.926425,8.106346,5.4405212,0,1683900296.2661824
0.3974716,0.7542391,1.3762051,0.48612595,-0.14245987,-0.17396927,0.926425,8.106346,5.4405212,0,1683900296.2712755
0.3974716,0.7542391,1.3762051,0.48612595,-0.14245987,-0.17396927,0.92296654,8.115529,5.427403,0,1683900296.2917247
0.3974716,0.7542391,1.3762051,0.50855637,0.034446716,-0.14312744,0.92296654,8.115529,5.427403,0,1683900296.2968576
0.39868483,0.7337354,1.2678478,0.50855637,0.034446716,-0.14312744,0.92296654,8.115529,5.427403,0,1683900296.312249
0.39868483,0.7337354,1.2678478,0.6172371,0.4114914,-0.12496948,0.92296654,8.115529,5.427403,0,1683900296.3173845
0.39868483,0.7337354,1.2678478,0.6172371,0.4114914,-0.12496948,0.8940336,8.14918,5.3816323,0,1683900296.3378923
0.39258832,0.71347433,1.1704704,0.6172371,0.4114914,-0.12496948,0.8940336,8.14918,5.3816323,0,1683900296.3891795
0.39258832,0.71347433,1.1704704,0.7972145,0.60962677,-0.23044586,0.8940336,8.14918,5.3816323,0,1683900296.3943021
0.39258832,0.71347433,1.1704704,0.7972145,0.60962677,-0.23044586,0.81188405,8.217371,5.2901845,0,1683900296.3994334
0.39258832,0.71347433,1.1704704,2.8660202,1.2444878,-0.6320572,0.81188405,8.217371,5.2901845,0,1683900296.4096687
0.02259654,0.63635796,-0.20332335,2.8660202,1.2444878,-0.6320572,0.81188405,8.217371,5.2901845,0,1683900296.4301796
0.02259654,0.63635796,-0.20332335,2.793522,1.246624,-0.6544876,0.81188405,8.217371,5.2901845,0,1683900296.450628
0.02259654,0.63635796,-0.20332335,2.793522,1.246624,-0.6544876,-1.0993621,9.739375,0.32613108,0,1683900296.455748
0.02259654,0.63635796,-0.20332335,2.6199532,1.3713264,-0.66610336,-1.0993621,9.739375,0.32613108,0,1683900296.4863386
0.02259654,0.63635796,-0.20332335,2.6199532,1.3713264,-0.66610336,-1.1957726,9.73303,-0.09290537,0,1683900296.496525
-0.029390667,0.7237262,-0.1842907,2.6199532,1.3713264,-0.66610336,-1.1957726,9.73303,-0.09290537,0,1683900296.5016594
-0.010115364,0.6893158,-0.1633017,2.6199532,1.3713264,-0.66610336,-1.1957726,9.73303,-0.09290537,0,1683900296.511867
-0.010115364,0.6893158,-0.1633017,2.5357056,1.459713,-0.67358017,-1.1957726,9.73303,-0.09290537,0,1683900296.5169988
-0.010115364,0.6893158,-0.1633017,2.5357056,1.459713,-0.67358017,-1.2558333,9.719164,-0.36210623,0,1683900296.5221329
-0.022308396,0.6690547,-0.16354434,2.5357056,1.459713,-0.67358017,-1.2558333,9.719164,-0.36210623,0,1683900296.5425885
-0.022308396,0.6690547,-0.16354434,2.5198174,1.5044403,-0.6703758,-1.2558333,9.719164,-0.36210623,0,1683900296.5477228
-0.022308396,0.6690547,-0.16354434,2.5198174,1.5044403,-0.6703758,-1.2843854,9.709528,-0.4957904,0,1683900296.5630498
-0.042326804,0.7242115,-0.26434916,2.5198174,1.5044403,-0.6703758,-1.2843854,9.709528,-0.4957904,0,1683900296.5733125
-0.042326804,0.7242115,-0.26434916,2.5198174,1.5044403,-0.6703758,-1.3605914,9.669684,-0.90354896,0,1683900296.5886528
-0.042326804,0.7242115,-0.26434916,2.5879097,1.529007,-0.6459427,-1.3605914,9.669684,-0.90354896,0,1683900296.59375
-0.042326804,0.7242115,-0.26434916,2.6294327,1.4842796,-0.6448746,-1.3605914,9.669684,-0.90354896,0,1683900296.6142166
-0.05427719,0.72568256,-0.30608454,2.6294327,1.4842796,-0.6448746,-1.3605914,9.669684,-0.90354896,0,1683900296.6295238
-0.05427719,0.72568256,-0.30608454,2.6294327,1.4842796,-0.6448746,-1.3837631,9.652359,-1.0428566,0,1683900296.634658
-0.08283376,0.6978539,-0.43714446,2.6294327,1.4842796,-0.6448746,-1.3837631,9.652359,-1.0428566,0,1683900296.650038
-0.08283376,0.6978539,-0.43714446,2.618885,1.376667,-0.598011,-1.3837631,9.652359,-1.0428566,0,1683900296.6603172
-0.08283376,0.6978539,-0.43714446,2.422886,1.4436913,-0.52337646,-1.3837631,9.652359,-1.0428566,0,1683900296.6705801
-0.08283376,0.6978539,-0.43714446,2.422886,1.4436913,-0.52337646,-1.4460437,9.588214,-1.4647517,0,1683900296.6757183
-0.08283376,0.6978539,-0.43714446,1.6984367,0.10040283,-0.26556015,-1.4460437,9.588214,-1.4647517,0,1683900296.69108
-0.08283376,0.6978539,-0.43714446,1.6984367,0.10040283,-0.26556015,-1.5720022,7.7884326,-5.7480006,0,1683900296.7115562
-0.08283376,0.6978539,-0.43714446,1.4480972,-0.0166893,-0.24326324,-1.5720022,7.7884326,-5.7480006,0,1683900296.7218137
-0.3068883,0.76180667,-1.5600408,1.4480972,-0.0166893,-0.24326324,-1.5720022,7.7884326,-5.7480006,0,1683900296.7269537
-0.3068883,0.76180667,-1.5600408,1.4480972,-0.0166893,-0.24326324,-1.5834554,7.742999,-5.805947,0,1683900296.7474496
-0.3068883,0.76180667,-1.5600408,1.2989616,-0.050868988,-0.24433136,-1.5834554,7.742999,-5.805947,0,1683900296.7525873
-0.296136,0.77474284,-1.5751759,1.2989616,-0.050868988,-0.24433136,-1.5834554,7.742999,-5.805947,0,1683900296.7577195
-0.296136,0.77474284,-1.5751759,1.2989616,-0.050868988,-0.24433136,-1.6231099,7.6321855,-5.940173,0,1683900296.7628562
-0.296136,0.77474284,-1.5751759,0.8398056,-0.11148453,-0.26342392,-1.6231099,7.6321855,-5.940173,0,1683900296.7833087
-0.3276195,0.79524654,-1.5810298,0.8398056,-0.11148453,-0.26342392,-1.6231099,7.6321855,-5.940173,0,1683900296.7884457
-0.4542966,0.7232409,-1.6520497,0.8398056,-0.11148453,-0.26342392,-1.6231099,7.6321855,-5.940173,0,1683900296.849952
-0.4542966,0.7232409,-1.6520497,0.8398056,-0.11148453,-0.26342392,-1.680671,7.544643,-6.035238,0,1683900296.8601882
-0.4542966,0.7232409,-1.6520497,0.23057938,-0.21909714,-0.12496948,-1.680671,7.544643,-6.035238,0,1683900296.8653307
-0.4542966,0.7232409,-1.6520497,0.23057938,-0.21909714,-0.12496948,-1.7049576,7.5334063,-6.0424576,0,1683900296.875587
-0.46674743,0.70566416,-1.6647432,0.23057938,-0.21909714,-0.12496948,-1.7049576,7.5334063,-6.0424576,0,1683900296.8807192
-0.46674743,0.70566416,-1.6647432,-0.14339447,-0.34059525,0.018825531,-1.7049576,7.5334063,-6.0424576,0,1683900296.8909607
-0.46674743,0.70566416,-1.6647432,-0.3383255,-0.40121078,0.09119034,-1.7049576,7.5334063,-6.0424576,0,1683900296.9063277
-0.46674743,0.70566416,-1.6647432,-0.3383255,-0.40121078,0.09119034,-1.7156906,7.5375934,-6.0341926,0,1683900296.916542
-0.4559951,0.70103866,-1.6379002,-0.3383255,-0.40121078,0.09119034,-1.7156906,7.5375934,-6.0341926,0,1683900296.9318984
-0.4559951,0.70103866,-1.6379002,-0.8603668,-0.53339005,0.27450562,-1.7156906,7.5375934,-6.0341926,0,1683900296.9472485
-0.4559951,0.70103866,-1.6379002,-0.8603668,-0.53339005,0.27450562,-1.7411702,7.587821,-5.96353,0,1683900296.9575067
-0.09381355,0.5641097,-0.42810583,-0.8603668,-0.53339005,0.27450562,-1.7411702,7.587821,-5.96353,0,1683900296.9626465
-0.09381355,0.5641097,-0.42810583,-3.1070137,-1.8531799,0.6803894,-1.7411702,7.587821,-5.96353,0,1683900296.9780364
-0.09381355,0.5641097,-0.42810583,-3.1070137,-1.8531799,0.6803894,-1.9568375,9.315824,-2.3572438,0,1683900296.9883008
-0.09381355,0.5641097,-0.42810583,-3.2219696,-1.9618607,0.81884384,-1.9568375,9.315824,-2.3572438,0,1683900297.0344424
-0.09381355,0.5641097,-0.42810583,-3.1070137,-1.8531799,0.6803894,-1.9568375,9.315824,-2.3572438,0,1683900297.0395727
-0.09381355,0.5641097,-0.42810583,-3.1070137,-1.8531799,0.6803894,-1.8709524,9.503785,-1.53232,0,1683900297.044701
-0.038656764,0.58095855,-0.26653302,-3.1070137,-1.8531799,0.6803894,-1.8709524,9.503785,-1.53232,0,1683900297.0498354
-0.09381355,0.5641097,-0.42810583,-3.1070137,-1.8531799,0.6803894,-1.8709524,9.503785,-1.53232,0,1683900297.0651877
-0.09381355,0.5641097,-0.42810583,-3.2816505,-1.9939041,0.8954811,-1.8709524,9.503785,-1.53232,0,1683900297.0805273
-0.09381355,0.5641097,-0.42810583,-3.2816505,-1.9939041,0.8954811,-1.812346,9.564057,-1.1893629,0,1683900297.0907795
-0.019866755,0.57973015,-0.24091853,-3.2816505,-1.9939041,0.8954811,-1.812346,9.564057,-1.1893629,0,1683900297.1010444
0.007704055,0.5838855,-0.17038397,-3.2816505,-1.9939041,0.8954811,-1.812346,9.564057,-1.1893629,0,1683900297.1061761
0.007704055,0.5838855,-0.17038397,-3.3679008,-1.9778824,0.9605026,-1.812346,9.564057,-1.1893629,0,1683900297.1164012
0.007704055,0.5838855,-0.17038397,-3.3679008,-1.9778824,0.9605026,-1.739416,9.614767,-0.83730376,0,1683900297.1266372
0.007704055,0.5838855,-0.17038397,-3.4169006,-1.9511795,0.9860039,-1.739416,9.614767,-0.83730376,0,1683900297.152283
0.027965114,0.5887687,-0.121809,-3.4169006,-1.9511795,0.9860039,-1.739416,9.614767,-0.83730376,0,1683900297.1574168
0.027965114,0.5887687,-0.121809,-3.4169006,-1.9511795,0.9860039,-1.6978755,9.636109,-0.6580207,0,1683900297.1676803
0.027965114,0.5887687,-0.121809,-3.5170364,-1.7679977,0.99882126,-1.6978755,9.636109,-0.6580207,0,1683900297.177897
0.027965114,0.5887687,-0.121809,-3.5170364,-1.7679977,0.99882126,-1.558634,9.6814,-0.10742587,0,1683900297.1830456
0.046997767,0.6004765,0.08051344,-3.5170364,-1.7679977,0.99882126,-1.558634,9.6814,-0.10742587,0,1683900297.2188902
0.046997767,0.6004765,0.08051344,-3.5266495,-1.6412926,0.98386765,-1.558634,9.6814,-0.10742587,0,1683900297.2291443
0.046997767,0.6004765,0.08051344,-3.5266495,-1.6412926,0.98386765,-1.4584761,9.694102,0.26001143,0,1683900297.2342672
0.5194929,0.81280816,1.275658,-3.5266495,-1.6412926,0.98386765,-1.4584761,9.694102,0.26001143,0,1683900297.2445176
0.5194929,0.81280816,1.275658,-3.5266495,-1.6412926,0.98386765,1.0258815,8.318946,5.0904903,0,1683900297.2650504
0.5194929,0.81280816,1.275658,-0.26275635,-0.29159546,0.17543793,1.0258815,8.318946,5.0904903,0,1683900297.2701435
0.53023005,0.8125655,1.3051852,-0.26275635,-0.29159546,0.17543793,1.0258815,8.318946,5.0904903,0,1683900297.2854557
0.53023005,0.8125655,1.3051852,-0.26275635,-0.29159546,0.17543793,1.0410346,8.306429,5.1078243,0,1683900297.2957175
0.53023005,0.8125655,1.3051852,-0.26489258,-0.11148453,0.18491745,1.0410346,8.306429,5.1078243,0,1683900297.3059764
0.5548891,0.802071,1.3388677,-0.26489258,-0.11148453,0.18491745,1.0410346,8.306429,5.1078243,0,1683900297.3111167
0.5548891,0.802071,1.3388677,-0.15087128,0.3188324,0.17116547,1.0410346,8.306429,5.1078243,0,1683900297.3162472
0.5548891,0.802071,1.3388677,-0.15087128,0.3188324,0.17116547,1.0634943,8.272938,5.157311,0,1683900297.3213816
0.57392174,0.80329937,1.3313001,-0.15087128,0.3188324,0.17116547,1.0634943,8.272938,5.157311,0,1683900297.3418796
0.5643979,0.7840089,1.3239752,-0.15087128,0.3188324,0.17116547,1.0634943,8.272938,5.157311,0,1683900297.3674333
0.5643979,0.7840089,1.3239752,-0.15087128,0.3188324,0.17116547,1.0533589,8.258207,5.182935,0,1683900297.377702
0.5643979,0.7840089,1.3239752,0.12830734,0.5180359,0.029506683,1.0533589,8.258207,5.182935,0,1683900297.3827927
0.51192534,0.74667156,1.3032289,0.12830734,0.5180359,0.029506683,1.0533589,8.258207,5.182935,0,1683900297.4032586
0.51192534,0.74667156,1.3032289,0.12830734,0.5180359,0.029506683,1.0079087,8.274615,5.165776,0,1683900297.4237885
0.51192534,0.74667156,1.3032289,0.5171013,0.60855865,-0.19533157,1.0079087,8.274615,5.165776,0,1683900297.4288838
0.4863109,0.7395893,1.2893221,0.5171013,0.60855865,-0.19533157,1.0079087,8.274615,5.165776,0,1683900297.4596562
0.4863109,0.7395893,1.2893221,0.5171013,0.60855865,-0.19533157,0.9588353,8.304675,5.126733,0,1683900297.4647806
0.4863109,0.7395893,1.2893221,0.6523514,0.6320572,-0.26449203,0.9588353,8.304675,5.126733,0,1683900297.469913
0.3918604,0.68370456,1.2551544,0.6523514,0.6320572,-0.26449203,0.9588353,8.304675,5.126733,0,1683900297.4801693
0.3918604,0.68370456,1.2551544,1.0816002,0.6703758,-0.42964935,0.9588353,8.304675,5.126733,0,1683900297.4904249
0.3918604,0.68370456,1.2551544,1.0816002,0.6703758,-0.42964935,0.8980216,8.350102,5.0635695,0,1683900297.4955533
0.3918604,0.68370456,1.2551544,1.0816002,0.6703758,-0.42964935,-0.9888344,9.746714,0.4406371,0,1683900297.5313442
0.3918604,0.68370456,1.2551544,2.9266357,1.5439606,-1.1455536,-0.9888344,9.746714,0.4406371,0,1683900297.5364733
0.1150907,0.65002203,-0.09837835,2.9266357,1.5439606,-1.1455536,-0.9888344,9.746714,0.4406371,0,1683900297.541603
0.1150907,0.65002203,-0.09837835,2.9118156,1.5129852,-1.2499619,-0.9888344,9.746714,0.4406371,0,1683900297.551855
0.020640194,0.65637636,-0.10424739,2.9118156,1.5129852,-1.2499619,-0.9888344,9.746714,0.4406371,0,1683900297.5570333
0.020640194,0.65637636,-0.10424739,2.9118156,1.5129852,-1.2499619,-1.1096263,9.742688,0.13834587,0,1683900297.5621564
-0.039885167,0.64269716,-0.13230349,2.9118156,1.5129852,-1.2499619,-1.1096263,9.742688,0.13834587,0,1683900297.5826385
-0.039885167,0.64269716,-0.13230349,2.9032707,1.5279388,-1.2733269,-1.1096263,9.742688,0.13834587,0,1683900297.598042
-0.039885167,0.64269716,-0.13230349,2.9032707,1.5279388,-1.2733269,-1.171723,9.736389,-0.013529201,0,1683900297.6083174
-0.18949245,0.6302615,-0.2572669,2.9032707,1.5279388,-1.2733269,-1.171723,9.736389,-0.013529201,0,1683900297.613451
-0.18949245,0.6302615,-0.2572669,2.9032707,1.5279388,-1.2733269,-1.393839,9.687352,-0.6187261,0,1683900297.6185846
-0.18949245,0.6302615,-0.2572669,2.8170204,1.7175293,-1.0944176,-1.393839,9.687352,-0.6187261,0,1683900297.6390314
-0.18949245,0.6302615,-0.2572669,2.8170204,1.7175293,-1.0944176,-1.4380994,9.670168,-0.7681803,0,1683900297.664625
-0.2090104,0.6287904,-0.30120125,2.8170204,1.7175293,-1.0944176,-1.4380994,9.670168,-0.7681803,0,1683900297.6697211
-0.2090104,0.6287904,-0.30120125,2.7807045,1.7729378,-1.0176468,-1.4380994,9.670168,-0.7681803,0,1683900297.6799843
-0.22682983,0.6222086,-0.3927248,2.7807045,1.7729378,-1.0176468,-1.4380994,9.670168,-0.7681803,0,1683900297.6851137
-0.22682983,0.6222086,-0.3927248,2.6795006,1.8623924,-0.8408737,-1.4380994,9.670168,-0.7681803,0,1683900297.6953225
-0.22682983,0.6222086,-0.3927248,2.6795006,1.8623924,-0.8408737,-1.5096736,9.631209,-1.0635201,0,1683900297.705542
-0.22682983,0.6222086,-0.3927248,2.5538635,1.9465065,-0.67892075,-1.5096736,9.631209,-1.0635201,0,1683900297.7311747
-0.22682983,0.6222086,-0.3927248,2.5538635,1.9465065,-0.67892075,-1.5744975,9.564078,-1.4898801,0,1683900297.7414262
-0.20828246,0.6463672,-0.45617712,2.5538635,1.9465065,-0.67892075,-1.5744975,9.564078,-1.4898801,0,1683900297.7465625
-0.1997443,0.6615023,-0.48814592,2.5538635,1.9465065,-0.67892075,-1.5744975,9.564078,-1.4898801,0,1683900297.7823884
-0.1997443,0.6615023,-0.48814592,0.6247139,-0.41509628,-0.25608063,-1.5744975,9.564078,-1.4898801,0,1683900297.8028986
-0.37155384,0.82965696,-1.5463767,0.6247139,-0.41509628,-0.25608063,-1.5744975,9.564078,-1.4898801,0,1683900297.8079877
-0.37155384,0.82965696,-1.5463767,0.6247139,-0.41509628,-0.25608063,-1.4289035,8.10137,-5.3382034,0,1683900297.8182547
-0.38547572,0.81232285,-1.5651667,0.6247139,-0.41509628,-0.25608063,-1.4289035,8.10137,-5.3382034,0,1683900297.8233514
-0.38547572,0.81232285,-1.5651667,0.6247139,-0.41509628,-0.25608063,-1.4853973,8.059852,-5.3854227,0,1683900297.8387294
-0.38547572,0.81232285,-1.5651667,0.43712616,-0.7219124,-0.21242142,-1.4853973,8.059852,-5.3854227,0,1683900297.84901
-0.38547572,0.81232285,-1.5651667,0.30614853,-0.82738876,-0.1761055,-1.4853973,8.059852,-5.3854227,0,1683900297.859177
-0.38717425,0.79791564,-1.565652,0.30614853,-0.82738876,-0.1761055,-1.4853973,8.059852,-5.3854227,0,1683900297.864266
-0.38717425,0.79791564,-1.565652,0.30614853,-0.82738876,-0.1761055,-1.5476763,8.033108,-5.4077954,0,1683900297.8693647
-0.38717425,0.79791564,-1.565652,-0.2520752,-0.8945465,-0.021629333,-1.5476763,8.033108,-5.4077954,0,1683900297.9052224
-0.38717425,0.79791564,-1.565652,-0.2520752,-0.8945465,-0.021629333,-1.6271766,8.035316,-5.381112,0,1683900297.9103577
-0.39157224,0.7583793,-1.5224608,-0.2520752,-0.8945465,-0.021629333,-1.6271766,8.035316,-5.381112,0,1683900297.9154859
-0.39157224,0.7583793,-1.5224608,-0.47250748,-0.8582306,0.041122437,-1.6271766,8.035316,-5.381112,0,1683900297.9461234
-0.38303408,0.7469142,-1.4975591,-0.47250748,-0.8582306,0.041122437,-1.6271766,8.035316,-5.381112,0,1683900297.9511654
-0.38303408,0.7469142,-1.4975591,-0.47250748,-0.8582306,0.041122437,-1.6738251,8.09524,-5.275964,0,1683900297.96655
-0.3398277,0.74081767,-1.380421,-0.47250748,-0.8582306,0.041122437,-1.6738251,8.09524,-5.275964,0,1683900297.9716551
-0.3398277,0.74081767,-1.380421,-1.1128426,-0.7390022,0.21162033,-1.6738251,8.09524,-5.275964,0,1683900297.9870155
-0.30176237,0.72788155,-1.2744904,-1.1128426,-0.7390022,0.21162033,-1.6738251,8.09524,-5.275964,0,1683900298.0177526
-0.30176237,0.72788155,-1.2744904,-1.1128426,-0.7390022,0.21162033,-1.691013,8.162076,-5.166372,0,1683900298.0280032
-0.30176237,0.72788155,-1.2744904,-1.4590454,-0.7283211,0.30000687,-1.691013,8.162076,-5.166372,0,1683900298.0331442
-0.26953575,0.72788155,-1.1614925,-1.4590454,-0.7283211,0.30000687,-1.691013,8.162076,-5.166372,0,1683900298.0433538
-0.26953575,0.72788155,-1.1614925,-1.710453,-0.7805252,0.36502838,-1.691013,8.162076,-5.166372,0,1683900298.063857
-0.26953575,0.72788155,-1.1614925,-1.710453,-0.7805252,0.36502838,-1.5641077,9.6652975,0.5531579,0,1683900298.0740843
-0.06160211,0.6222086,0.20400581,-1.710453,-0.7805252,0.36502838,-1.5641077,9.6652975,0.5531579,0,1683900298.0893755
-0.06160211,0.6222086,0.20400581,-3.0803108,-1.6295433,0.5514145,-1.5641077,9.6652975,0.5531579,0,1683900298.0995939
-0.06160211,0.6222086,0.20400581,-2.8588104,-1.7168617,0.5813217,-1.5641077,9.6652975,0.5531579,0,1683900298.130398
-0.06160211,0.6222086,0.20400581,-2.8588104,-1.7168617,0.5813217,-1.4610335,9.643317,1.0208741,0,1683900298.1457849
-0.065514795,0.60731614,0.21888313,-2.8588104,-1.7168617,0.5813217,-1.4610335,9.643317,1.0208741,0,1683900298.1560462
-0.055505592,0.6112136,0.23450355,-2.8588104,-1.7168617,0.5813217,-1.4610335,9.643317,1.0208741,0,1683900298.1714065
-0.055505592,0.6112136,0.23450355,-2.766018,-1.7957687,0.6365967,-1.4610335,9.643317,1.0208741,0,1683900298.1816688
-0.055505592,0.6112136,0.23450355,-2.766018,-1.7957687,0.6365967,-1.3347349,9.604714,1.4623075,0,1683900298.1919386
-0.040855754,0.60414654,0.24988133,-2.766018,-1.7957687,0.6365967,-1.3347349,9.604714,1.4623075,0,1683900298.202162
-0.040855754,0.60414654,0.24988133,-2.7319717,-1.8287468,0.7080269,-1.3347349,9.604714,1.4623075,0,1683900298.212384
-0.040855754,0.60414654,0.24988133,-2.7319717,-1.8287468,0.7080269,-1.286161,9.588155,1.6073216,0,1683900298.2226334
-0.0037610347,0.61585426,0.31700367,-2.7319717,-1.8287468,0.7080269,-1.286161,9.588155,1.6073216,0,1683900298.2380211
-0.0037610347,0.61585426,0.31700367,-2.7319717,-1.8287468,0.7080269,-1.1812519,9.548818,1.8960804,0,1683900298.2585301
-0.0037610347,0.61585426,0.31700367,-2.761879,-1.7808151,0.7677078,-1.1812519,9.548818,1.8960804,0,1683900298.263661
-0.0037610347,0.61585426,0.31700367,-2.8256989,-1.6582489,0.8167076,-1.1812519,9.548818,1.8960804,0,1683900298.2739127
-0.0023051503,0.60194755,0.3387206,-2.8256989,-1.6582489,0.8167076,-1.1812519,9.548818,1.8960804,0,1683900298.289285
-0.0023051503,0.60194755,0.3387206,-2.8256989,-1.6582489,0.8167076,-1.1255099,9.52551,2.0416393,0,1683900298.304642
-0.01229919,0.5919383,0.39192104,-2.8256989,-1.6582489,0.8167076,-1.1255099,9.52551,2.0416393,0,1683900298.3200395
-0.01229919,0.5919383,0.39192104,-2.8256989,-1.6582489,0.8167076,-0.9513343,9.440147,2.4797127,0,1683900298.330263
-0.023536798,0.57436156,0.41827863,-2.8256989,-1.6582489,0.8167076,-0.9513343,9.440147,2.4797127,0,1683900298.3353581
-0.023536798,0.57436156,0.41827863,0.4531479,0.5244446,-0.2186966,-0.9513343,9.440147,2.4797127,0,1683900298.350674
0.48215556,0.697126,1.23368,0.4531479,0.5244446,-0.2186966,-0.9513343,9.440147,2.4797127,0,1683900298.3660295
0.48215556,0.697126,1.23368,0.4531479,0.5244446,-0.2186966,1.2036585,7.8579874,5.742267,0,1683900298.371173
0.48215556,0.697126,1.23368,0.4531479,0.5244446,-0.2186966,1.0982952,7.9192724,5.678843,0,1683900298.422482
0.38941875,0.65050733,1.196828,0.4531479,0.5244446,-0.2186966,1.0982952,7.9192724,5.678843,0,1683900298.432744
0.38941875,0.65050733,1.196828,0.7749176,0.7460785,-0.29119492,1.0982952,7.9192724,5.678843,0,1683900298.4481282
0.35109562,0.63318837,1.17364,0.7749176,0.7460785,-0.29119492,1.0982952,7.9192724,5.678843,0,1683900298.458398
0.35109562,0.63318837,1.17364,0.9666443,0.8195114,-0.28692245,1.0982952,7.9192724,5.678843,0,1683900298.4635174
0.35109562,0.63318837,1.17364,0.9666443,0.8195114,-0.28692245,1.0357002,7.965321,5.625955,0,1683900298.4788637
0.34572706,0.63635796,1.1616896,0.9666443,0.8195114,-0.28692245,1.0357002,7.965321,5.625955,0,1683900298.4993918
0.34572706,0.63635796,1.1616896,0.9666443,0.8195114,-0.28692245,1.0034078,7.991945,5.5939593,0,1683900298.5045376
0.34572706,0.63635796,1.1616896,1.0603714,0.8631706,-0.2751732,1.0034078,7.991945,5.5939593,0,1683900298.509673
0.323267,0.6195243,1.1194538,1.0603714,0.8631706,-0.2751732,1.0034078,7.991945,5.5939593,0,1683900298.5302033
0.323267,0.6195243,1.1194538,1.3149834,1.0591698,-0.25928497,1.0034078,7.991945,5.5939593,0,1683900298.5352976
0.323267,0.6195243,1.1194538,1.3149834,1.0591698,-0.25928497,0.8982059,8.085203,5.4765973,0,1683900298.5506837
0.31814107,0.6048745,1.0198926,1.3149834,1.0591698,-0.25928497,0.8982059,8.085203,5.4765973,0,1683900298.5865788
0.31814107,0.6048745,1.0198926,1.3149834,1.0591698,-0.25928497,0.4328327,8.498983,4.8734307,0,1683900298.591709
0.31814107,0.6048745,1.0198926,1.5854836,1.4139175,-0.22724152,0.4328327,8.498983,4.8734307,0,1683900298.5968451
0.31814107,0.6048745,1.0198926,1.5854836,1.4139175,-0.22724152,0.73186105,8.233217,5.2772064,0,1683900298.6070662
0.31814107,0.6048745,1.0198926,1.5854836,1.4139175,-0.22724152,-1.1376902,9.740431,0.0066743577,0,1683900298.617292
0.02820776,0.6009618,-0.23700584,1.5854836,1.4139175,-0.22724152,-1.1376902,9.740431,0.0066743577,0,1683900298.6275485
0.02820776,0.6009618,-0.23700584,3.4614944,1.6259384,-0.41683197,-1.1376902,9.740431,0.0066743577,0,1683900298.6480234
0.088975765,0.61536896,-0.31803492,3.4614944,1.6259384,-0.41683197,-1.1376902,9.740431,0.0066743577,0,1683900298.6582656
0.088975765,0.61536896,-0.31803492,3.4614944,1.6259384,-0.41683197,-1.1734898,9.729735,-0.3543358,0,1683900298.6633554
0.088975765,0.61536896,-0.31803492,3.4347916,1.5396881,-0.4392624,-1.1734898,9.729735,-0.3543358,0,1683900298.673586
0.088975765,0.61536896,-0.31803492,3.3900642,1.5236664,-0.4765129,-1.1734898,9.729735,-0.3543358,0,1683900298.6991932
0.11973133,0.6436829,-0.3324421,3.3900642,1.5236664,-0.4765129,-1.1734898,9.729735,-0.3543358,0,1683900298.7043328
0.11973133,0.6436829,-0.3324421,3.3900642,1.5236664,-0.4765129,-1.1907458,9.719596,-0.53099906,0,1683900298.7094665
0.11973133,0.6436829,-0.3324421,3.3720398,1.4896202,-0.7343292,-1.1907458,9.719596,-0.53099906,0,1683900298.7248688
0.15414175,0.7447152,-0.42053828,3.3720398,1.4896202,-0.7343292,-1.1907458,9.719596,-0.53099906,0,1683900298.7299936
0.15414175,0.7447152,-0.42053828,3.3720398,1.4896202,-0.7343292,-1.2559947,9.668148,-1.058196,0,1683900298.7556336
0.098257035,0.7388613,-0.53402144,3.3720398,1.4896202,-0.7343292,-1.2559947,9.668148,-1.058196,0,1683900298.7914872
0.098257035,0.7388613,-0.53402144,3.3720398,1.4896202,-0.7343292,-1.3608732,9.579475,-1.5975184,0,1683900298.8068812
0.098257035,0.7388613,-0.53402144,3.5349274,1.1370087,-1.0783958,-1.3608732,9.579475,-1.5975184,0,1683900298.8222764
-0.047210086,0.7508269,-0.68998307,3.5349274,1.1370087,-1.0783958,-1.3608732,9.579475,-1.5975184,0,1683900298.8324869
-0.047210086,0.7508269,-0.68998307,3.5349274,1.1370087,-1.0783958,-1.5222775,9.44152,-2.1704314,0,1683900298.8477776
-0.047210086,0.7508269,-0.68998307,3.9269257,0.62885284,-1.4427567,-1.5222775,9.44152,-2.1704314,0,1683900298.8529103
-0.10065317,0.7271536,-0.78320515,3.9269257,0.62885284,-1.4427567,-1.5222775,9.44152,-2.1704314,0,1683900298.8631978
-0.10065317,0.7271536,-0.78320515,4.0644455,0.4339218,-1.5343475,-1.5222775,9.44152,-2.1704314,0,1683900298.8734674
-0.10065317,0.7271536,-0.78320515,4.0644455,0.4339218,-1.5343475,-1.5890862,9.381753,-2.372321,0,1683900298.8837306
-0.10065317,0.7271536,-0.78320515,-0.9305954,-0.14673233,0.49814224,-1.5890862,9.381753,-2.372321,0,1683900298.8991349
-0.6322026,0.61316997,-1.4729152,-0.9305954,-0.14673233,0.49814224,-1.5890862,9.381753,-2.372321,0,1683900298.9093935
-0.6322026,0.61316997,-1.4729152,-0.9305954,-0.14673233,0.49814224,-2.935739,7.4993043,-5.595736,0,1683900298.9145238
-0.6322026,0.61316997,-1.4729152,-1.497364,-1.0191154,0.71336746,-2.935739,7.4993043,-5.595736,0,1683900298.9863038
-0.6322026,0.61316997,-1.4729152,-1.6304779,-1.1053658,0.7570267,-2.935739,7.4993043,-5.595736,0,1683900299.0119345
-0.6322026,0.61316997,-1.4729152,-1.6304779,-1.1053658,0.7570267,-2.9056444,7.771419,-5.228066,0,1683900299.037501
-0.43964675,0.6314747,-1.1580802,-1.6304779,-1.1053658,0.7570267,-2.9056444,7.771419,-5.228066,0,1683900299.0425937
-0.43964675,0.6314747,-1.1580802,-1.6304779,-1.1053658,0.7570267,-2.904715,7.8669553,-5.0837035,0,1683900299.047723
-0.4137745,0.6309894,-1.1048797,-1.6304779,-1.1053658,0.7570267,-2.904715,7.8669553,-5.0837035,0,1683900299.052848
-0.4137745,0.6309894,-1.1048797,-1.6997719,-1.1502266,0.77518463,-2.904715,7.8669553,-5.0837035,0,1683900299.058012
-0.4001104,0.63538736,-1.0804785,-1.6997719,-1.1502266,0.77518463,-2.904715,7.8669553,-5.0837035,0,1683900299.0631664
-0.4001104,0.63538736,-1.0804785,-1.6997719,-1.1502266,0.77518463,-2.9037333,7.9168854,-5.0061603,0,1683900299.083741
-0.3818057,0.61756796,-0.99212456,-1.6997719,-1.1502266,0.77518463,-2.9037333,7.9168854,-5.0061603,0,1683900299.109526
-0.3818057,0.61756796,-0.99212456,-1.8893623,-1.2844086,0.84007263,-2.9037333,7.9168854,-5.0061603,0,1683900299.1198602
-0.3818057,0.61756796,-0.99212456,-1.8893623,-1.2844086,0.84007263,-2.8986325,8.075036,-4.7499604,0,1683900299.1250055
-0.3818057,0.61219937,-0.9611263,-1.8893623,-1.2844086,0.84007263,-2.8986325,8.075036,-4.7499604,0,1683900299.1507154
-0.3818057,0.61219937,-0.9611263,-1.8893623,-1.2844086,0.84007263,0.16886748,8.898071,4.119004,0,1683900299.1609793
0.4062524,0.4306233,0.7260465,-1.8893623,-1.2844086,0.84007263,0.16886748,8.898071,4.119004,0,1683900299.1661415
0.4062524,0.4306233,0.7260465,-4.9189377,-0.43539047,2.233429,0.16886748,8.898071,4.119004,0,1683900299.1814437
0.4062524,0.4306233,0.7260465,-4.9189377,-0.43539047,2.233429,0.27878463,8.789109,4.340994,0,1683900299.1969202
0.4062524,0.4306233,0.7260465,-4.9189377,-0.43539047,2.233429,0.5806669,8.435384,4.967647,0,1683900299.2277594
0.6349324,0.49528885,1.069423,-4.9189377,-0.43539047,2.233429,0.5806669,8.435384,4.967647,0,1683900299.2483687
0.6349324,0.49528885,1.069423,-4.6099854,-0.52057266,1.7988396,0.5806669,8.435384,4.967647,0,1683900299.2535841
0.73523676,0.5628965,1.301773,-4.6099854,-0.52057266,1.7988396,0.5806669,8.435384,4.967647,0,1683900299.2690449
0.73523676,0.5628965,1.301773,-4.6099854,-0.52057266,1.7988396,0.7600418,8.1937685,5.334311,0,1683900299.2793305
0.73523676,0.5628965,1.301773,-4.1636467,-0.79961777,1.4260674,0.7600418,8.1937685,5.334311,0,1683900299.2844293
0.73523676,0.5628965,1.301773,-4.1636467,-0.79961777,1.4260674,0.84425133,8.078085,5.495651,0,1683900299.31006
0.76599234,0.5904673,1.4176978,-4.1636467,-0.79961777,1.4260674,0.84425133,8.078085,5.495651,0,1683900299.3203633
0.76599234,0.5904673,1.4176978,-3.854828,-0.9882736,1.2108421,0.84425133,8.078085,5.495651,0,1683900299.3306522
0.8099267,0.63196,1.6776186,-3.854828,-0.9882736,1.2108421,0.84425133,8.078085,5.495651,0,1683900299.3409555
0.8099267,0.63196,1.6776186,-3.854828,-0.9882736,1.2108421,1.0760483,7.781626,5.870161,0,1683900299.3614776
0.8099267,0.63196,1.6776186,-2.6861763,-1.5262032,0.54073334,1.0760483,7.781626,5.870161,0,1683900299.366659
0.8099267,0.63196,1.6776186,-2.6861763,-1.5262032,0.54073334,1.3083264,7.542156,6.1298084,0,1683900299.4027648
0.63785934,0.61488366,1.6944523,-2.6861763,-1.5262032,0.54073334,1.3083264,7.542156,6.1298084,0,1683900299.4130697
0.63785934,0.61488366,1.6944523,-1.209774,-1.6316795,-0.18785477,1.3083264,7.542156,6.1298084,0,1683900299.4233859
0.4079661,0.58584183,0.95716816,-1.209774,-1.6316795,-0.18785477,1.3083264,7.542156,6.1298084,0,1683900299.4440067
0.4079661,0.58584183,0.95716816,1.6633224,1.2551689,-0.18144608,1.3083264,7.542156,6.1298084,0,1683900299.4491978
0.4079661,0.58584183,0.95716816,1.7016411,1.3426208,-0.2113533,1.3083264,7.542156,6.1298084,0,1683900299.4543376
0.4079661,0.58584183,0.95716816,1.7016411,1.3426208,-0.2113533,1.0638413,7.9910126,5.584116,0,1683900299.4645972
0.36891505,0.5675371,0.91713136,1.7016411,1.3426208,-0.2113533,1.0638413,7.9910126,5.584116,0,1683900299.4748669
0.36891505,0.5675371,0.91713136,1.7804146,1.4832115,-0.2762413,1.0638413,7.9910126,5.584116,0,1683900299.479968
0.36891505,0.5675371,0.91713136,1.7804146,1.4832115,-0.2762413,0.96926194,8.084263,5.46586,0,1683900299.5004928
0.36891505,0.5675371,0.91713136,1.7804146,1.4832115,-0.2762413,0.81194335,8.229766,5.2708697,0,1683900299.5158675
0.36891505,0.5675371,0.91713136,1.9359589,1.5970993,-0.3466034,0.81194335,8.229766,5.2708697,0,1683900299.5210094
0.28544435,0.5709493,0.9002977,1.9359589,1.5970993,-0.3466034,0.81194335,8.229766,5.2708697,0,1683900299.5312502
0.26518327,0.5641097,0.9059089,2.0116615,1.6205978,-0.36369324,0.7567949,8.280685,5.198837,0,1683900299.551875
0.22344792,0.5477613,0.898584,2.0116615,1.6205978,-0.36369324,0.4866262,8.560332,4.7596536,0,1683900299.5570543
0.22344792,0.5477613,0.898584,2.5782967,1.6355515,-0.35301208,0.4866262,8.560332,4.7596536,0,1683900299.5622344
0.22344792,0.5477613,0.898584,2.3236847,1.6355515,-0.36462784,0.4866262,8.560332,4.7596536,0,1683900299.5673387
0.2112549,0.5255591,0.8578344,2.3236847,1.6355515,-0.36462784,0.4866262,8.560332,4.7596536,0,1683900299.5724754
0.2112549,0.5255591,0.8578344,2.701931,1.6631889,-0.35194397,0.43477318,8.621343,4.653365,0,1683900299.577644
0.2112549,0.5255591,0.8578344,3.0002022,1.8517113,-0.3891945,0.43477318,8.621343,4.653365,0,1683900299.5879033
0.24663591,0.5258018,0.72994405,3.0002022,1.8517113,-0.3891945,0.43477318,8.621343,4.653365,0,1683900299.598191
0.24663591,0.5258018,0.72994405,3.0002022,1.8517113,-0.3891945,0.27438828,8.810703,4.297278,0,1683900299.618679
0.24663591,0.5258018,0.72994405,3.0609512,1.3531685,-1.2200546,0.27438828,8.810703,4.297278,0,1683900299.623837
-0.10456587,0.73397803,-0.5801548,3.0609512,1.3531685,-1.2200546,0.27438828,8.810703,4.297278,0,1683900299.6444044
-0.10456587,0.73397803,-0.5801548,3.0609512,1.3531685,-1.2200546,-1.9392422,9.252122,-2.6092079,0,1683900299.6495392
-0.18045384,0.75204015,-0.82738215,3.0609512,1.3531685,-1.2200546,-1.9392422,9.252122,-2.6092079,0,1683900299.6598167
-0.18045384,0.75204015,-0.82738215,3.3261108,1.2211227,-1.4171219,-1.9392422,9.252122,-2.6092079,0,1683900299.680313
-0.18045384,0.75204015,-0.82738215,3.3261108,1.2211227,-1.4171219,-2.0678568,9.068834,-3.1065423,0,1683900299.6905794
-0.25879863,0.696398,-1.1048797,3.3261108,1.2211227,-1.4171219,-2.0678568,9.068834,-3.1065423,0,1683900299.7008185
-0.25879863,0.696398,-1.1048797,3.4135628,1.0016251,-1.520462,-2.168035,8.919194,-3.452244,0,1683900299.706054
-0.31225687,0.68370456,-1.2037282,3.4167671,0.81523895,-1.5460968,-2.2227187,8.838096,-3.6218739,0,1683900299.7112432
-0.46551904,0.64172655,-1.4755995,3.1664276,0.032310486,-1.5769386,-2.4762685,8.483111,-4.251506,0,1683900299.716558
-0.46551904,0.64172655,-1.4755995,2.6720238,-0.25007248,-1.4703941,-2.4762685,8.483111,-4.251506,0,1683900299.7216911
-0.46551904,0.64172655,-1.4755995,2.6720238,-0.25007248,-1.4703941,-2.6853158,8.215105,-4.6337366,0,1683900299.726828
-0.5758326,0.6329457,-1.4821965,2.6720238,-0.25007248,-1.4703941,-2.6853158,8.215105,-4.6337366,0,1683900299.731975
-0.61684,0.6405133,-1.4316652,2.6720238,-0.25007248,-1.4703941,-2.6853158,8.215105,-4.6337366,0,1683900299.7371154
-0.61684,0.6405133,-1.4316652,2.6720238,-0.25007248,-1.4703941,-2.813976,8.053148,-4.8372235,0,1683900299.7524946
-0.61684,0.6405133,-1.4316652,2.2502518,-0.23939133,-1.3394165,-2.813976,8.053148,-4.8372235,0,1683900299.7679036
-0.61684,0.6405133,-1.4316652,-2.201519,-1.8830872,1.2033653,-2.813976,8.053148,-4.8372235,0,1683900299.773049
-0.29248112,0.57242036,-0.88181096,-2.201519,-1.8830872,1.2033653,-2.813976,8.053148,-4.8372235,0,1683900299.783292
-0.29248112,0.57242036,-0.88181096,-2.201519,-1.8830872,1.2033653,-3.567295,8.199744,-4.0260377,0,1683900299.7986975
-0.29248112,0.57242036,-0.88181096,-2.201519,-1.8830872,1.2033653,-3.5303848,8.389788,-3.6494148,0,1683900299.814102
-0.317125,0.5209185,-0.7668568,-2.201519,-1.8830872,1.2033653,-3.5303848,8.389788,-3.6494148,0,1683900299.8243291
-0.317125,0.5209185,-0.7668568,-2.385769,-2.006588,1.2247276,-3.5303848,8.389788,-3.6494148,0,1683900299.834597
-0.317125,0.5209185,-0.7668568,-2.385769,-2.006588,1.2247276,-3.4939914,8.51714,-3.3794587,0,1683900299.8448858
-0.30273297,0.52116114,-0.7065741,-2.5178146,-2.025814,1.2949562,-3.4939914,8.51714,-3.3794587,0,1683900299.8500178
-0.2934517,0.5214038,-0.65410155,-2.6564026,-2.042904,1.3812065,-3.4939914,8.51714,-3.3794587,0,1683900299.860304
-0.2934517,0.5214038,-0.65410155,-2.6564026,-2.042904,1.3812065,-3.4439676,8.644852,-3.0945125,0,1683900299.8654323
-0.27490434,0.5150646,-0.58796495,-2.803402,-2.0523834,1.4909554,-3.4439676,8.644852,-3.0945125,0,1683900299.8756945
-0.27490434,0.5150646,-0.58796495,-2.803402,-2.0523834,1.4909554,-3.377623,8.7724905,-2.7938254,0,1683900299.8911014
-0.27490434,0.5150646,-0.58796495,-2.877903,-2.0523834,1.5517044,-3.377623,8.7724905,-2.7938254,0,1683900299.9013634
-0.27490434,0.5150646,-0.58796495,-2.877903,-2.0523834,1.5517044,-3.3374293,8.836237,-2.6368344,0,1683900299.9064953
-0.26539558,0.5187195,-0.543788,-2.877903,-2.0523834,1.5517044,-3.3374293,8.836237,-2.6368344,0,1683900299.9218833
-0.21829167,0.5294566,-0.44592527,-2.877903,-2.0523834,1.5517044,-3.3374293,8.836237,-2.6368344,0,1683900299.9372706
-0.21829167,0.5294566,-0.44592527,-2.877903,-2.0523834,1.5517044,-3.1845536,9.023536,-2.1458812,0,1683900299.942506
-0.21829167,0.5294566,-0.44592527,-3.110218,-1.9672012,1.7530441,-3.1845536,9.023536,-2.1458812,0,1683900299.9580193
-0.17118774,0.5267723,-0.39442334,-3.110218,-1.9672012,1.7530441,-3.1845536,9.023536,-2.1458812,0,1683900299.9785893
-0.17118774,0.5267723,-0.39442334,-3.110218,-1.9672012,1.7530441,-3.0535052,9.144048,-1.7980189,0,1683900299.9838145
-0.17118774,0.5267723,-0.39442334,-3.110218,-1.9672012,1.7530441,1.1444443,7.4995627,6.214274,0,1683900299.9889672
-0.17118774,0.5267723,-0.39442334,-3.110218,-1.9672012,1.7530441,1.2788069,7.3780665,6.3323913,0,1683900299.9992218
0.70668024,0.587783,1.549243,-3.110218,-1.9672012,1.7530441,1.2788069,7.3780665,6.3323913,0,1683900300.0094676
0.70668024,0.587783,1.549243,-1.5772057,-1.8127251,0.028438568,1.2788069,7.3780665,6.3323913,0,1683900300.0197337
0.70668024,0.587783,1.549243,-1.5772057,-1.8127251,0.028438568,1.392059,7.28724,6.413166,0,1683900300.0299602
0.70668024,0.587783,1.549243,-1.1160469,-1.7457008,-0.17183304,1.392059,7.28724,6.413166,0,1683900300.0402467
0.6246806,0.55411565,1.5819548,-1.1160469,-1.7457008,-0.17183304,1.392059,7.28724,6.413166,0,1683900300.050508
0.6246806,0.55411565,1.5819548,-0.9093666,-1.6849518,-0.23044586,1.392059,7.28724,6.413166,0,1683900300.081314
0.6246806,0.55411565,1.5819548,-0.9093666,-1.6849518,-0.23044586,1.4421113,7.252371,6.4415703,0,1683900300.086449
0.52584726,0.52238953,1.5741447,-0.9093666,-1.6849518,-0.23044586,1.4421113,7.252371,6.4415703,0,1683900300.096719
0.46750572,0.48919234,1.5394764,-0.9093666,-1.6849518,-0.23044586,1.4421113,7.252371,6.4415703,0,1683900300.1069822
0.27787676,0.38059244,0.9962192,1.8252754,1.5961647,0.09759903,1.1864518,7.4212255,6.299853,0,1683900300.112394
0.27787676,0.38059244,0.9962192,1.9008446,1.7889595,0.13605118,1.1864518,7.4212255,6.299853,0,1683900300.1174858
0.27787676,0.38059244,0.9962192,1.9008446,1.7889595,0.13605118,1.0915525,7.5283146,6.1889734,0,1683900300.122601
0.27787676,0.38059244,0.9962192,1.9445038,1.8741417,0.15727997,1.0915525,7.5283146,6.1889734,0,1683900300.1277716
0.26445535,0.37546653,0.9705896,1.9445038,1.8741417,0.15727997,1.0915525,7.5283146,6.1889734,0,1683900300.1277828
0.26445535,0.37546653,0.9705896,1.9445038,1.8741417,0.15727997,1.0417798,7.5832477,6.1302066,0,1683900300.1329029
0.22613221,0.39254284,0.9181171,1.9445038,1.8741417,0.15727997,1.0417798,7.5832477,6.1302066,0,1683900300.1533904
0.22613221,0.39254284,0.9181171,1.9445038,1.8741417,0.15727997,0.8925764,7.753682,5.937516,0,1683900300.1584916
0.22613221,0.39254284,0.9181171,2.117138,2.0179367,0.2381897,0.8925764,7.753682,5.937516,0,1683900300.1687562
0.2273606,0.4084059,0.8805219,2.117138,2.0179367,0.2381897,0.8925764,7.753682,5.937516,0,1683900300.179038
0.2273606,0.4084059,0.8805219,2.117138,2.0179367,0.2381897,0.79958844,7.875543,5.7885113,0,1683900300.2047
0.2273606,0.4084059,0.8805219,2.1959114,2.029686,0.27130127,0.79958844,7.875543,5.7885113,0,1683900300.2098253
0.2273606,0.4084059,0.8805219,2.1959114,2.029686,0.27130127,0.71627057,8.0051365,5.6191745,0,1683900300.2303426
0.2273606,0.4084059,0.8805219,2.4931145,1.9838905,0.33205032,0.71627057,8.0051365,5.6191745,0,1683900300.2405903
0.2273606,0.4084059,0.8805219,2.7477264,1.9220734,0.29893875,0.71627057,8.0051365,5.6191745,0,1683900300.2611039
0.2273606,0.4084059,0.8805219,2.7477264,1.9220734,0.29893875,0.6402874,8.144773,5.424306,0,1683900300.2662294
0.2273606,0.4084059,0.8805219,2.8744316,1.8975067,0.26062012,0.6402874,8.144773,5.424306,0,1683900300.2764575
0.32205376,0.4896776,0.77289265,2.8744316,1.8975067,0.26062012,0.6402874,8.144773,5.424306,0,1683900300.2917871
0.32205376,0.4896776,0.77289265,2.8744316,1.8975067,0.26062012,0.6035119,8.218022,5.316979,0,1683900300.302044
0.33913007,0.49090603,0.6372072,2.8744316,1.8975067,0.26062012,0.6035119,8.218022,5.316979,0,1683900300.3123264
0.33913007,0.49090603,0.6372072,3.856697,1.4447594,-0.3199005,0.6035119,8.218022,5.316979,0,1683900300.3277118
0.33913007,0.49090603,0.6372072,3.856697,1.4447594,-0.3199005,-0.07256702,9.426674,2.702396,0,1683900300.3379788
0.16098139,0.5477613,0.49418175,3.856697,1.4447594,-0.3199005,-0.07256702,9.426674,2.702396,0,1683900300.3431516
0.16098139,0.5477613,0.49418175,4.276333,1.5705299,-0.31669617,-0.07256702,9.426674,2.702396,0,1683900300.3482876
0.16098139,0.5477613,0.49418175,4.276333,1.5705299,-0.31669617,-0.14082989,9.536166,2.2830017,0,1683900300.3842082
0.16098139,0.5477613,0.49418175,4.5256042,1.7804146,-0.32844543,-0.14082989,9.536166,2.2830017,0,1683900300.389326
0.25493142,0.5758326,0.23768829,4.5256042,1.7804146,-0.32844543,-0.14082989,9.536166,2.2830017,0,1683900300.3998065
0.25493142,0.5758326,0.23768829,4.5256042,1.7804146,-0.32844543,-0.1745524,9.5855255,2.0633981,0,1683900300.4052193
0.25493142,0.5758326,0.23768829,4.6141243,1.8943024,-0.3476715,-0.1745524,9.5855255,2.0633981,0,1683900300.4103594
0.25493142,0.5758326,0.23768829,4.1389465,2.1489143,-0.7588959,-0.2089743,9.630819,1.8368561,0,1683900300.4476392
0.21807934,0.70372295,-0.6670377,3.6063576,1.8794823,-0.8952141,-0.43240786,9.785169,0.48363614,0,1683900300.4585254
0.21807934,0.70372295,-0.6670377,3.6063576,1.8794823,-0.8952141,-0.55285037,9.790445,-0.10921113,0,1683900300.4800344
0.19977464,0.738376,-0.6714357,3.6063576,1.8794823,-0.8952141,-0.55285037,9.790445,-0.10921113,0,1683900300.5006263
0.19977464,0.738376,-0.6714357,3.6063576,1.8794823,-0.8952141,-2.4563646,8.110685,-4.9349227,0,1683900300.5160449
-0.612442,0.6727247,-1.3474665,3.6063576,1.8794823,-0.8952141,-2.4563646,8.110685,-4.9349227,0,1683900300.5211859
-0.612442,0.6727247,-1.3474665,2.8521347,-0.7538223,-1.8634605,-2.4563646,8.110685,-4.9349227,0,1683900300.5317
-0.94069844,0.5182342,-1.773343,2.772293,-0.7283211,-1.8198013,-2.552143,8.012079,-5.04614,0,1683900300.5370278
-0.94069844,0.5182342,-1.773343,2.772293,-0.7283211,-1.8198013,-2.7995377,7.7367535,-5.336254,0,1683900300.5422423
-0.94069844,0.5182342,-1.773343,2.1235466,-0.45448303,-1.4416885,-2.7995377,7.7367535,-5.336254,0,1683900300.547385
-0.94069844,0.5182342,-1.773343,1.4236641,-0.32670975,-1.057167,-2.7995377,7.7367535,-5.336254,0,1683900300.5731635
-0.94069844,0.5182342,-1.773343,1.4236641,-0.32670975,-1.057167,-2.9198983,7.5962963,-5.471825,0,1683900300.588915
-1.0773696,0.46673226,-1.9380854,1.4236641,-0.32670975,-1.057167,-2.9198983,7.5962963,-5.471825,0,1683900300.5941262
-1.0773696,0.46673226,-1.9380854,1.4236641,-0.32670975,-1.057167,-3.0053518,7.5046945,-5.55138,0,1683900300.614865
-1.0917768,0.46160635,-1.9559048,1.4236641,-0.32670975,-1.057167,-3.0053518,7.5046945,-5.55138,0,1683900300.6200294
-1.0917768,0.46160635,-1.9559048,0.6970787,-0.3448677,-0.60014725,-3.0053518,7.5046945,-5.55138,0,1683900300.6251602
-1.0917768,0.46160635,-1.9559048,0.6970787,-0.3448677,-0.60014725,-3.0847337,7.4638147,-5.5629377,0,1683900300.635547
-1.0676031,0.47113025,-1.8824433,0.6970787,-0.3448677,-0.60014725,-3.0847337,7.4638147,-5.5629377,0,1683900300.645882
-1.0676031,0.47113025,-1.8824433,0.018558502,-0.52591324,-0.14419556,-3.0847337,7.4638147,-5.5629377,0,1683900300.651067
-0.32055238,0.6424545,-1.0646003,-1.4143181,-0.8370018,0.88279724,-3.1134567,7.521829,-5.467984,0,1683900300.672183
-0.32055238,0.6424545,-1.0646003,-1.4143181,-0.8370018,0.88279724,-3.0556903,8.144019,-4.528587,0,1683900300.6773813
-0.28686988,0.6490515,-1.0092008,-1.6103172,-2.2143364,1.0105705,-3.0633574,8.192421,-4.435141,0,1683900300.682683
-0.27490434,0.6473378,-0.9423363,-1.6103172,-2.2143364,1.0105705,-3.0633574,8.192421,-4.435141,0,1683900300.7033184
-0.27490434,0.6473378,-0.9423363,-1.6103172,-2.2143364,1.0105705,-3.0788972,8.289736,-4.239229,0,1683900300.7084584
-0.27490434,0.6473378,-0.9423363,-1.751976,-2.38163,1.0328674,-3.0788972,8.289736,-4.239229,0,1683900300.7291105
-0.27490434,0.6473378,-0.9423363,-1.751976,-2.38163,1.0328674,-3.089252,8.39007,-4.0290995,0,1683900300.759957
-0.26172554,0.6173253,-0.8986446,-1.751976,-2.38163,1.0328674,-3.089252,8.39007,-4.0290995,0,1683900300.770354
-0.26172554,0.6173253,-0.8986446,-2.0267487,-2.4081993,1.1107063,-3.089252,8.39007,-4.0290995,0,1683900300.7755477
-0.26172554,0.6173253,-0.8986446,-2.2409058,-2.424221,1.1703873,-3.0897148,8.49552,-3.801339,0,1683900300.7911725
-0.2422076,0.5904673,-0.8315375,-2.2409058,-2.424221,1.1703873,-3.0688612,8.663565,-3.4198139,0,1683900300.7963948
-0.2422076,0.5904673,-0.8315375,-2.456131,-2.4103355,1.2300682,-3.0688612,8.663565,-3.4198139,0,1683900300.8015616
-0.21389368,0.5721777,-0.75684756,-2.456131,-2.4103355,1.2300682,-3.0688612,8.663565,-3.4198139,0,1683900300.8118541
-0.21389368,0.5721777,-0.75684756,-2.456131,-2.4103355,1.2300682,-3.0551965,8.7215605,-3.2818508,0,1683900300.8221703
-0.21389368,0.5721777,-0.75684756,-2.456131,-2.4103355,1.2300682,-2.9952877,8.8953085,-2.841151,0,1683900300.8324564
-0.09601254,0.57436156,-0.65727115,-2.456131,-2.4103355,1.2300682,-2.9952877,8.8953085,-2.841151,0,1683900300.8478992
-0.09601254,0.57436156,-0.65727115,-2.7405167,-2.363472,1.2545013,-2.9952877,8.8953085,-2.841151,0,1683900300.8530626
-0.09601254,0.57436156,-0.65727115,-2.9024696,-2.3591995,1.1990929,-2.9952877,8.8953085,-2.841151,0,1683900300.8581827
-0.09601254,0.57436156,-0.65727115,-4.4374847,-1.5240669,1.9639969,-2.9952877,8.8953085,-2.841151,0,1683900300.8633163
0.07678273,0.4447727,0.08002815,-4.4374847,-1.5240669,1.9639969,-2.9952877,8.8953085,-2.841151,0,1683900300.8787484
0.15121482,0.38644633,0.27234137,-4.8082542,-1.3344765,2.07695,-1.4031017,9.480937,2.076905,0,1683900300.8943732
0.15121482,0.38644633,0.27234137,-4.8082542,-1.3344765,2.07695,-1.1729742,9.397159,2.5471425,0,1683900300.8995166
0.32156846,0.3974261,0.4705085,-4.8082542,-1.3344765,2.07695,-1.1729742,9.397159,2.5471425,0,1683900300.9099617
0.32156846,0.3974261,0.4705085,-4.8082542,-1.3344765,2.07695,-0.8102642,9.214165,3.257765,0,1683900300.9255135
0.47654432,0.43916145,0.62891173,-4.8955727,-1.3578415,2.099247,-0.56199104,9.056321,3.7198951,0,1683900300.9307463
0.47654432,0.43916145,0.62891173,-4.838028,-1.4282036,2.0320892,-0.56199104,9.056321,3.7198951,0,1683900300.9358623
0.47654432,0.43916145,0.62891173,-4.838028,-1.4282036,2.0320892,-0.43843395,8.967657,3.9445245,0,1683900300.951265
0.47654432,0.43916145,0.62891173,-4.778347,-1.4675903,1.9501114,-0.43843395,8.967657,3.9445245,0,1683900300.9615693
0.5675826,0.47113025,0.70944035,-4.778347,-1.4675903,1.9501114,-0.43843395,8.967657,3.9445245,0,1683900300.9719052
0.76867664,0.59169567,1.0225768,-4.778347,-1.4675903,1.9501114,-0.43843395,8.967657,3.9445245,0,1683900300.997685
0.76867664,0.59169567,1.0225768,-4.421463,-1.6049767,1.473999,-0.43843395,8.967657,3.9445245,0,1683900301.013118
0.76867664,0.59169567,1.0225768,-4.421463,-1.6049767,1.473999,-0.09274547,8.674956,4.5724072,0,1683900301.0182798
0.76867664,0.59169567,1.0225768,-4.421463,-1.6049767,1.473999,0.009818839,8.572164,4.7632246,0,1683900301.0234358
0.76867664,0.59169567,1.0225768,-4.2393494,-1.6466331,1.2502289,0.009818839,8.572164,4.7632246,0,1683900301.0286188
0.8150526,0.6195243,1.1240944,-4.2393494,-1.6466331,1.2502289,0.009818839,8.572164,4.7632246,0,1683900301.0439472
0.8150526,0.6195243,1.1240944,-0.04966736,-0.47691345,-0.10267258,0.009818839,8.572164,4.7632246,0,1683900301.0490851
0.8150526,0.6195243,1.1240944,-0.04966736,-0.47691345,-0.10267258,1.0082177,7.7287583,5.9514856,0,1683900301.0695322
0.52681786,0.59974855,1.2305105,-0.04966736,-0.47691345,-0.10267258,1.0082177,7.7287583,5.9514856,0,1683900301.0848534
0.52681786,0.59974855,1.2305105,-0.30000687,0.44553757,-0.0068092346,1.0082177,7.7287583,5.9514856,0,1683900301.0900037
0.52681786,0.59974855,1.2305105,-0.19239426,0.72151184,-0.073833466,1.0082177,7.7287583,5.9514856,0,1683900301.105363
0.48459718,0.57339096,1.2981181,-0.19239426,0.72151184,-0.073833466,1.0082177,7.7287583,5.9514856,0,1683900301.1104982
0.48459718,0.57339096,1.2981181,-0.19239426,0.72151184,-0.073833466,0.95851755,7.6911345,6.008168,0,1683900301.1156332
0.45067206,0.56533813,1.3139812,-0.19239426,0.72151184,-0.073833466,0.95851755,7.6911345,6.008168,0,1683900301.1518464
0.45067206,0.56533813,1.3139812,-0.19239426,0.72151184,-0.073833466,0.9354008,7.6833234,6.0217905,0,1683900301.1569939
0.45067206,0.56533813,1.3139812,-0.19239426,0.72151184,-0.073833466,0.8532257,7.681869,6.0358343,0,1683900301.1723185
0.45067206,0.56533813,1.3139812,0.2837181,0.8888054,-0.15167236,0.8532257,7.681869,6.0358343,0,1683900301.18768
0.37452626,0.5392232,1.3525318,0.2837181,0.8888054,-0.15167236,0.8532257,7.681869,6.0358343,0,1683900301.192809
0.33913007,0.52116114,1.3313001,0.2837181,0.8888054,-0.15167236,0.8532257,7.681869,6.0358343,0,1683900301.213329
0.33913007,0.52116114,1.3313001,0.2837181,0.8888054,-0.15167236,0.78846663,7.701447,6.0196686,0,1683900301.2235847
0.33913007,0.52116114,1.3313001,0.5628967,0.9974861,-0.16756058,0.78846663,7.701447,6.0196686,0,1683900301.2338526
0.33913007,0.52116114,1.3313001,0.6981468,1.0666466,-0.17503738,0.78846663,7.701447,6.0196686,0,1683900301.2491992
0.33913007,0.52116114,1.3313001,0.6981468,1.0666466,-0.17503738,0.7524759,7.7175665,6.0036097,0,1683900301.2594533
0.32645175,0.5133509,1.3059131,0.6981468,1.0666466,-0.17503738,0.7524759,7.7175665,6.0036097,0,1683900301.2645793
0.32645175,0.5133509,1.3059131,1.0635757,1.2350082,-0.16448975,0.7524759,7.7175665,6.0036097,0,1683900301.285057
0.32645175,0.5133509,1.3059131,1.0635757,1.2350082,-0.16448975,0.63446194,7.7881827,5.925543,0,1683900301.290149
0.27494985,0.5033417,1.2253846,1.0635757,1.2350082,-0.16448975,0.63446194,7.7881827,5.925543,0,1683900301.3003645
0.27055186,0.4845517,1.1651018,1.0635757,1.2350082,-0.16448975,0.63446194,7.7881827,5.925543,0,1683900301.3157697
0.27055186,0.4845517,1.1651018,1.0635757,1.2350082,-0.16448975,0.55096,7.8514085,5.849976,0,1683900301.3208606
0.29715207,0.4535535,0.6760005,1.0635757,1.2350082,-0.16448975,0.55096,7.8514085,5.849976,0,1683900301.325967
0.29715207,0.4535535,0.6760005,2.65934,2.3204803,-0.2261734,0.55096,7.8514085,5.849976,0,1683900301.3311114
0.29715207,0.4535535,0.6760005,2.65934,2.3204803,-0.2261734,-0.38987362,8.7347355,4.4410343,0,1683900301.341387
0.29715207,0.4535535,0.6760005,2.9756355,2.3097992,-0.41376114,-0.38987362,8.7347355,4.4410343,0,1683900301.3567977
0.32962132,0.46503374,0.567158,2.9756355,2.3097992,-0.41376114,-0.38987362,8.7347355,4.4410343,0,1683900301.3670528
0.32962132,0.46503374,0.567158,2.9756355,2.3097992,-0.41376114,-0.62509036,8.963013,3.9298935,0,1683900301.3824153
0.3213258,0.46941656,0.4519611,2.9756355,2.3097992,-0.41376114,-0.62509036,8.963013,3.9298935,0,1683900301.387546
0.3213258,0.46941656,0.4519611,2.9756355,2.3097992,-0.41376114,-0.74715453,9.073923,3.6436343,0,1683900301.4029422
0.3213258,0.46941656,0.4519611,3.1035423,2.2543907,-0.5329895,-0.74715453,9.073923,3.6436343,0,1683900301.4183528
0.30764657,0.48943496,0.42243397,3.1035423,2.2543907,-0.5329895,-0.74715453,9.073923,3.6436343,0,1683900301.4234934
0.30764657,0.48943496,0.42243397,3.1407928,2.216072,-0.5969429,-0.74715453,9.073923,3.6436343,0,1683900301.4491978
0.30764657,0.48943496,0.42243397,3.1407928,2.216072,-0.5969429,-0.8095504,9.1270485,3.4945657,0,1683900301.4542952
0.2305302,0.524816,0.39656168,3.1407928,2.216072,-0.5969429,-0.8095504,9.1270485,3.4945657,0,1683900301.4747424
0.2305302,0.524816,0.39656168,3.1407928,2.216072,-0.5969429,-1.001423,9.272022,3.0326807,0,1683900301.4798722
0.2305302,0.524816,0.39656168,3.2281113,2.1798897,-0.7471466,-1.001423,9.272022,3.0326807,0,1683900301.4850016
0.22419102,0.5326262,0.38094124,3.2281113,2.1798897,-0.7471466,-1.001423,9.272022,3.0326807,0,1683900301.5054936
0.2112549,0.57558995,0.3209012,3.2281113,2.1798897,-0.7471466,-1.001423,9.272022,3.0326807,0,1683900301.531151
0.2112549,0.57558995,0.3209012,3.3740425,2.409935,-0.8173752,-1.001423,9.272022,3.0326807,0,1683900301.5414078
0.2112549,0.57558995,0.3209012,3.3740425,2.409935,-0.8173752,-1.2602278,9.432177,2.3698652,0,1683900301.551659
0.16780584,0.59535056,0.2901608,3.3740425,2.409935,-0.8173752,-1.2602278,9.432177,2.3698652,0,1683900301.5772722
0.16780584,0.59535056,0.2901608,3.4869957,2.5590706,-0.8387375,-1.2602278,9.432177,2.3698652,0,1683900301.582408
0.16780584,0.59535056,0.2901608,3.4869957,2.5590706,-0.8387375,-1.3877456,9.496712,2.014203,0,1683900301.5875435
0.16780584,0.59535056,0.2901608,3.5892677,1.6280746,-2.446251,-1.3877456,9.496712,2.014203,0,1683900301.6080463
0.16780584,0.59535056,0.2901608,3.5892677,1.6280746,-2.446251,-3.0638032,8.82345,-2.988346,0,1683900301.6183038
-0.35155058,0.5838855,-0.95234555,3.5892677,1.6280746,-2.446251,-3.0638032,8.82345,-2.988346,0,1683900301.6234255
-0.3879022,0.5589838,-1.0289767,3.5892677,1.6280746,-2.446251,-3.0638032,8.82345,-2.988346,0,1683900301.638813
-0.3879022,0.5589838,-1.0289767,3.5892677,1.6280746,-2.446251,-3.3146312,8.517417,-3.5548885,0,1683900301.684873
-0.3879022,0.5589838,-1.0289767,3.6127663,1.2945557,-2.4238205,-3.3146312,8.517417,-3.5548885,0,1683900301.690012
-0.4621068,0.50822496,-1.1873647,3.6127663,1.2945557,-2.4238205,-3.3146312,8.517417,-3.5548885,0,1683900301.6951458
-0.4621068,0.50822496,-1.1873647,3.465767,0.7673073,-2.3578644,-3.3146312,8.517417,-3.5548885,0,1683900301.705402
-0.5533877,0.48919234,-1.3103718,3.465767,0.7673073,-2.3578644,-3.3146312,8.517417,-3.5548885,0,1683900301.715652
-0.5533877,0.48919234,-1.3103718,3.465767,0.7673073,-2.3578644,-3.5637352,8.1765785,-4.0759945,0,1683900301.7310536
-0.5533877,0.48919234,-1.3103718,3.465767,0.7673073,-2.3578644,-3.6471105,8.058707,-4.2339354,0,1683900301.7720842
-0.5533877,0.48919234,-1.3103718,3.465767,0.7673073,-2.3578644,-3.8947647,7.700004,-4.6595206,0,1683900301.7772214
-0.6707684,0.45234025,-1.3806638,3.465767,0.7673073,-2.3578644,-3.8947647,7.700004,-4.6595206,0,1683900301.7874653
-0.6707684,0.45234025,-1.3806638,3.0800438,0.19639969,-2.1660042,-3.8947647,7.700004,-4.6595206,0,1683900301.802859
-0.6707684,0.45234025,-1.3806638,2.9255676,0.12283325,-2.0915031,-3.8947647,7.700004,-4.6595206,0,1683900301.823414
-0.7083636,0.45379615,-1.3711398,2.9255676,0.12283325,-2.0915031,-3.8947647,7.700004,-4.6595206,0,1683900301.8336716
-0.8191624,0.46234944,-1.3552767,2.9255676,0.12283325,-2.0915031,-3.8947647,7.700004,-4.6595206,0,1683900301.8643453
-0.8191624,0.46234944,-1.3552767,2.5857735,0.1260376,-1.9295502,-3.8947647,7.700004,-4.6595206,0,1683900301.8746097
-0.8191624,0.46234944,-1.3552767,2.5857735,0.1260376,-1.9295502,-4.8458824,6.5526743,-5.454382,0,1683900301.895099
-0.8906676,0.37984934,-1.3118428,2.5857735,0.1260376,-1.9295502,-4.8458824,6.5526743,-5.454382,0,1683900301.900192
-0.8906676,0.37984934,-1.3118428,-0.7889366,-1.3472939,0.7964134,-4.8458824,6.5526743,-5.454382,0,1683900301.9053237
-0.8906676,0.37984934,-1.3118428,-0.7889366,-1.3472939,0.7964134,-4.8731384,6.68725,-5.2634206,0,1683900301.9309583
-0.8906676,0.37984934,-1.3118428,-1.1223221,-1.5719986,1.0925484,-4.8731384,6.68725,-5.2634206,0,1683900301.936085
-0.81280816,0.38888794,-1.2117811,-1.1223221,-1.5719986,1.0925484,-4.8731384,6.68725,-5.2634206,0,1683900301.946322
-0.74764216,0.3957124,-1.1407613,-1.1223221,-1.5719986,1.0925484,-4.8731384,6.68725,-5.2634206,0,1683900301.9668245
-0.74764216,0.3957124,-1.1407613,-1.3141823,-1.6988373,1.2662506,-4.8731384,6.68725,-5.2634206,0,1683900301.9719472
-0.72251296,0.40083835,-1.1187865,-1.3141823,-1.6988373,1.2662506,-4.8731384,6.68725,-5.2634206,0,1683900301.982212
-0.72251296,0.40083835,-1.1187865,-1.404705,-1.7446327,1.3428879,-4.8731384,6.68725,-5.2634206,0,1683900301.9873002
-0.72251296,0.40083835,-1.1187865,-1.404705,-1.7446327,1.3428879,-4.8802266,6.863333,-5.024783,0,1683900302.002678
-0.72251296,0.40083835,-1.1187865,-1.404705,-1.7446327,1.3428879,-4.8640985,7.071123,-4.7444854,0,1683900302.0385306
-0.72251296,0.40083835,-1.1187865,-1.6443634,-1.8937683,1.5367508,-4.8640985,7.071123,-4.7444854,0,1683900302.0436482
-0.6324605,0.4271959,-1.0255644,-1.6443634,-1.8937683,1.5367508,-4.8640985,7.071123,-4.7444854,0,1683900302.048783
-0.6021902,0.44184574,-0.9677233,-1.6443634,-1.8937683,1.5367508,-4.8640985,7.071123,-4.7444854,0,1683900302.0693004
-0.6021902,0.44184574,-0.9677233,-1.7115211,-1.9417,1.590023,-4.8640985,7.071123,-4.7444854,0,1683900302.0795608
-0.6021902,0.44184574,-0.9677233,-1.7115211,-1.9417,1.590023,-4.841104,7.221512,-4.536943,0,1683900302.0846825
-0.6021902,0.44184574,-0.9677233,-1.7115211,-1.9417,1.590023,-4.8076878,7.377866,-4.3155093,0,1683900302.089779
-0.6021902,0.44184574,-0.9677233,-1.876545,-2.0694733,1.7348862,-4.8076878,7.377866,-4.3155093,0,1683900302.1103694
-0.6021902,0.44184574,-0.9677233,-1.98843,-2.1824265,1.8307495,-4.8076878,7.377866,-4.3155093,0,1683900302.1155055
-0.5423928,0.47381455,-0.93892413,-1.98843,-2.1824265,1.8307495,-4.8076878,7.377866,-4.3155093,0,1683900302.1206384
-0.46893126,0.4896776,-0.8837673,-1.98843,-2.1824265,1.8307495,-4.8076878,7.377866,-4.3155093,0,1683900302.1462169
-0.46893126,0.4896776,-0.8837673,-1.98843,-2.1824265,1.8307495,-4.7635207,7.5395937,-4.078454,0,1683900302.1513758
-0.46893126,0.4896776,-0.8837673,-1.98843,-2.1824265,1.8307495,-1.0994015,9.107098,3.4673438,0,1683900302.17702
0.080194965,0.37058324,0.46221298,-1.98843,-2.1824265,1.8307495,-1.0994015,9.107098,3.4673438,0,1683900302.1923575
0.080194965,0.37058324,0.46221298,-4.8423004,-0.49186707,2.660675,-1.0994015,9.107098,3.4673438,0,1683900302.1974614
0.18709631,0.35056484,0.51688445,-4.8423004,-0.49186707,2.660675,-1.0994015,9.107098,3.4673438,0,1683900302.2128527
0.18709631,0.35056484,0.51688445,-4.906254,-0.42684555,2.670288,-1.0994015,9.107098,3.4673438,0,1683900302.2180088
0.18709631,0.35056484,0.51688445,-4.906254,-0.42684555,2.670288,-0.7068655,8.860977,4.141717,0,1683900302.233398
0.41381997,0.42525473,0.9500859,-4.906254,-0.42684555,2.670288,-0.7068655,8.860977,4.141717,0,1683900302.2796087
0.41381997,0.42525473,0.9500859,-4.6495056,-0.71229935,2.3240852,-0.7068655,8.860977,4.141717,0,1683900302.300048
0.41381997,0.42525473,0.9500859,-4.6495056,-0.71229935,2.3240852,-0.20537792,8.434206,4.9992375,0,1683900302.3051376
0.41381997,0.42525473,0.9500859,-4.6495056,-0.71229935,2.3240852,0.022217631,8.203821,5.3728213,0,1683900302.310259
0.41381997,0.42525473,0.9500859,-4.187145,-0.84968567,2.0215416,0.022217631,8.203821,5.3728213,0,1683900302.3153799
0.4294404,0.47210085,1.1653445,-4.187145,-0.84968567,2.0215416,0.022217631,8.203821,5.3728213,0,1683900302.3358753
0.4294404,0.47210085,1.1653445,-4.187145,-0.84968567,2.0215416,0.12886976,8.091224,5.5394845,0,1683900302.351247
0.4294404,0.47210085,1.1653445,-3.9048958,-0.8945465,1.8936348,0.12886976,8.091224,5.5394845,0,1683900302.356364
0.41503322,0.4723435,1.2363644,-3.9048958,-0.8945465,1.8936348,0.12886976,8.091224,5.5394845,0,1683900302.3665912
0.36354646,0.45892206,1.2671199,-3.9048958,-0.8945465,1.8936348,0.12886976,8.091224,5.5394845,0,1683900302.3819976
0.36354646,0.45892206,1.2671199,-3.1357193,-0.82525253,1.6347504,0.12886976,8.091224,5.5394845,0,1683900302.40761
0.3471981,0.4557525,1.2253846,-3.1357193,-0.82525253,1.6347504,0.12886976,8.091224,5.5394845,0,1683900302.42301
0.3471981,0.4557525,1.2253846,-3.1357193,-0.82525253,1.6347504,0.41976935,7.7779136,5.9580398,0,1683900302.4384198
0.041143898,0.16264959,1.1031054,-3.1357193,-0.82525253,1.6347504,0.41976935,7.7779136,5.9580398,0,1683900302.4435425
0.041143898,0.16264959,1.1031054,-0.5024147,2.877636,2.0545197,0.41976935,7.7779136,5.9580398,0,1683900302.4691887
0.041143898,0.16264959,1.1031054,-0.5024147,2.877636,2.0545197,1.3176317,6.430863,7.285481,0,1683900302.4743187
-0.0059600268,0.11724419,1.0862718,-0.5024147,2.877636,2.0545197,1.3176317,6.430863,7.285481,0,1683900302.4845774
-0.0059600268,0.11724419,1.0862718,-0.07516861,2.7944565,2.2899055,1.3176317,6.430863,7.285481,0,1683900302.4896657
-0.0059600268,0.11724419,1.0862718,-0.07516861,2.7944565,2.2899055,1.2146146,6.347791,7.3756795,0,1683900302.5101533
-0.057704587,0.021580454,1.0313576,-0.07516861,2.7944565,2.2899055,1.2146146,6.347791,7.3756795,0,1683900302.5152476
-0.057704587,0.021580454,1.0313576,0.28051376,2.7306366,2.6159477,1.2146146,6.347791,7.3756795,0,1683900302.535767
-0.057704587,0.021580454,1.0313576,0.28051376,2.7306366,2.6159477,1.1414199,6.305918,7.4231358,0,1683900302.5460303
-0.057704587,0.021580454,1.0313576,0.3476715,2.748661,2.7586746,1.1414199,6.305918,7.4231358,0,1683900302.5562313
-0.06331581,-0.0057628755,1.005,0.3476715,2.748661,2.7586746,1.1414199,6.305918,7.4231358,0,1683900302.5869956
-0.06331581,-0.0057628755,1.005,0.3476715,2.748661,2.7586746,1.1244661,6.2971716,7.433141,0,1683900302.5920947
-0.06331581,-0.0057628755,1.005,0.3476715,2.748661,2.7586746,1.0807415,6.247664,7.481249,0,1683900302.5972257
-0.06331581,-0.0057628755,1.005,0.34553528,3.1002045,3.499012,1.0807415,6.247664,7.481249,0,1683900302.6228378
-0.06331581,-0.0057628755,1.005,0.3476715,2.748661,2.7586746,1.0807415,6.247664,7.481249,0,1683900302.6432738
0.15609811,-0.10655254,0.8668578,0.3476715,2.748661,2.7586746,1.0807415,6.247664,7.481249,0,1683900302.6484082
0.15609811,-0.10655254,0.8668578,0.3476715,2.748661,2.7586746,1.1244661,6.2971716,7.433141,0,1683900302.6535358
0.15609811,-0.10655254,0.8668578,0.34980774,3.1876564,3.6044884,1.1244661,6.2971716,7.433141,0,1683900302.6689181
0.15609811,-0.10655254,0.8668578,0.34980774,3.1876564,3.6044884,1.0755866,6.2352266,7.4923587,0,1683900302.6792197
0.19246489,-0.10923683,0.861004,0.34980774,3.1876564,3.6044884,1.0755866,6.2352266,7.4923587,0,1683900302.6843474
0.13119641,0.8638247,1.1072607,0.34980774,3.1876564,3.6044884,1.0755866,6.2352266,7.4923587,0,1683900302.720268
0.13119641,0.8638247,1.1072607,0.34980774,3.1876564,3.6044884,-0.082257494,4.4850535,8.720546,0,1683900302.7356718
0.13119641,0.8638247,1.1072607,-1.4227295,2.071209,1.5176582,-0.082257494,4.4850535,8.720546,0,1683900302.7408123
0.06310349,0.8325839,1.175839,-1.4227295,2.071209,1.5176582,-0.082257494,4.4850535,8.720546,0,1683900302.7664387
0.06310349,0.8325839,1.175839,-1.4227295,2.071209,1.5176582,-0.18493019,4.379485,8.772474,0,1683900302.776708
0.06310349,0.8325839,1.175839,-1.2438202,1.9497108,1.5208626,-0.18493019,4.379485,8.772474,0,1683900302.78182
0.06310349,0.8325839,1.175839,-1.2438202,1.9497108,1.5208626,-0.28746152,4.2898088,8.813927,0,1683900302.7972023
0.06310349,0.8325839,1.175839,-1.0690498,1.9753456,1.5272713,-0.28746152,4.2898088,8.813927,0,1683900302.8074665
0.06310349,0.8325839,1.175839,-0.9956169,2.0562553,1.5133858,-0.28746152,4.2898088,8.813927,0,1683900302.8330998
0.16560686,0.7495985,1.2036676,-0.9956169,2.0562553,1.5133858,-0.28746152,4.2898088,8.813927,0,1683900302.8382332
0.16560686,0.7495985,1.2036676,-0.9956169,2.0562553,1.5133858,-0.34326544,4.249999,8.831199,0,1683900302.8484783
0.29765254,0.70957685,1.13606,-0.9956169,2.0562553,1.5133858,-0.34326544,4.249999,8.831199,0,1683900302.853617
0.29765254,0.70957685,1.13606,-0.9956169,2.0562553,1.5133858,-0.5377718,4.1476836,8.870057,0,1683900302.879219
0.29765254,0.70957685,1.13606,-0.8304596,2.2778893,1.3460922,-0.5377718,4.1476836,8.870057,0,1683900302.8843515
0.29765254,0.70957685,1.13606,-0.8304596,2.2778893,1.3460922,-0.6069428,4.119472,8.8787365,0,1683900302.8997328
0.29765254,0.70957685,1.13606,-0.76971054,2.2607994,1.2427521,-0.6069428,4.119472,8.8787365,0,1683900302.9099958
0.33034927,0.7232409,1.1177553,-0.76971054,2.2607994,1.2427521,-0.6069428,4.119472,8.8787365,0,1683900302.9151204
0.33034927,0.80011463,1.0582005,-0.76971054,2.2607994,1.2427521,-0.6069428,4.119472,8.8787365,0,1683900302.9355893
0.33034927,0.80011463,1.0582005,-0.48639297,2.103119,0.83272934,-0.6069428,4.119472,8.8787365,0,1683900302.945808
0.33034927,0.80011463,1.0582005,-0.48639297,2.103119,0.83272934,-0.81894517,4.060142,8.889036,0,1683900302.9560618
0.33034927,0.80011463,1.0582005,-0.26809692,1.8251419,0.52591324,-0.81894517,4.060142,8.889036,0,1683900302.961202
0.33034927,0.80011463,1.0582005,-0.26809692,1.8251419,0.52591324,-0.9546554,4.0446777,8.8825445,0,1683900302.9816723
0.24518003,0.818662,0.9698465,-0.26809692,1.8251419,0.52591324,-0.9546554,4.0446777,8.8825445,0,1683900302.9868038
-0.20681141,0.40156627,0.9649784,-0.26809692,1.8251419,0.52591324,-0.9546554,4.0446777,8.8825445,0,1683900302.9919388
-0.20681141,0.40156627,0.9649784,-0.26809692,1.8251419,0.52591324,-1.4956933,4.6711245,8.491989,0,1683900303.0021806
-0.20681141,0.40156627,0.9649784,-0.2946663,0.78546524,0.10187149,-1.4956933,4.6711245,8.491989,0,1683900303.0175009
-0.2024286,0.4708876,0.91787446,-0.2946663,0.78546524,0.10187149,-1.4956933,4.6711245,8.491989,0,1683900303.038
-0.2024286,0.4708876,0.91787446,-0.35114288,1.1071014,0.028438568,-1.4956933,4.6711245,8.491989,0,1683900303.04311
-0.2024286,0.4708876,0.91787446,-0.35114288,1.1071014,0.028438568,-1.5824898,4.6406097,8.49299,0,1683900303.0584993
-0.21389368,0.4796684,0.89737076,-0.35114288,1.1071014,0.028438568,-1.5824898,4.6406097,8.49299,0,1683900303.0687628
-0.21389368,0.4796684,0.89737076,-0.32978058,1.0783958,0.0028038025,-1.5824898,4.6406097,8.49299,0,1683900303.0790143
-0.21389368,0.4796684,0.89737076,-0.32978058,1.0783958,0.0028038025,-1.7190806,4.599295,8.488913,0,1683900303.0892155
-0.26685148,0.548004,0.8910164,-0.32978058,1.0783958,0.0028038025,-1.7190806,4.599295,8.488913,0,1683900303.1097274
-0.26685148,0.548004,0.8910164,-0.32978058,1.0783958,0.0028038025,-1.7605746,4.589574,8.485668,0,1683900303.1148593
-0.26685148,0.548004,0.8910164,-0.23712158,0.94314575,-0.022697449,-1.7605746,4.589574,8.485668,0,1683900303.1302614
-0.20584083,0.5484893,0.83123416,-0.23712158,0.94314575,-0.022697449,-1.7605746,4.589574,8.485668,0,1683900303.140485
-0.20584083,0.5484893,0.83123416,-0.23712158,0.94314575,-0.022697449,-1.8355101,4.5798035,8.475062,0,1683900303.155882
-0.20584083,0.5484893,0.83123416,-0.08798599,0.83660126,-0.036582947,-1.8355101,4.5798035,8.475062,0,1683900303.161017
-0.20584083,0.5484893,0.83123416,-0.08798599,0.83660126,-0.036582947,-1.8676739,4.5789037,8.468519,0,1683900303.176372
-0.20584083,0.5484893,0.83123416,-0.029373169,0.7396698,-0.050468445,-1.8676739,4.5789037,8.468519,0,1683900303.1815026
-0.15191244,0.5089529,0.7894988,-0.029373169,0.7396698,-0.050468445,-1.8676739,4.5789037,8.468519,0,1683900303.1968987
-0.15191244,0.5089529,0.7894988,-0.029373169,0.7396698,-0.050468445,-1.9369369,4.577808,8.453541,0,1683900303.2071652
-0.15191244,0.5089529,0.7894988,0.044059753,0.39974213,-0.15701294,-1.9369369,4.577808,8.453541,0,1683900303.2123003
-0.18168224,0.40987694,0.88003665,0.044059753,0.39974213,-0.15701294,-1.9369369,4.577808,8.453541,0,1683900303.227686
-0.25659963,0.4140171,0.91884506,0.044059753,0.39974213,-0.15701294,-1.9369369,4.577808,8.453541,0,1683900303.2430756
-0.25659963,0.4140171,0.91884506,0.0472641,0.47330856,-0.14099121,-1.9369369,4.577808,8.453541,0,1683900303.258414
-0.25659963,0.4140171,0.91884506,0.0472641,0.47330856,-0.14099121,-2.0091872,4.576578,8.437327,0,1683900303.263545
-0.35300648,0.4303655,0.8668578,0.0472641,0.47330856,-0.14099121,-2.0091872,4.576578,8.437327,0,1683900303.273799
-0.35300648,0.4303655,0.8668578,0.0472641,0.47330856,-0.14099121,-3.0301278,4.613678,8.1057205,0,1683900303.2789297
-0.35300648,0.4303655,0.8668578,0.16983032,0.2623558,-0.044059753,-3.0301278,4.613678,8.1057205,0,1683900303.2943292
-0.35300648,0.4303655,0.8668578,0.15060425,0.5681038,-0.016422272,-3.0301278,4.613678,8.1057205,0,1683900303.3250573
-0.37815082,0.3957124,0.81121576,0.15060425,0.5681038,-0.016422272,-3.0301278,4.613678,8.1057205,0,1683900303.3301501
-0.37815082,0.3957124,0.81121576,0.15060425,0.5681038,-0.016422272,-3.088021,4.6277804,8.075776,0,1683900303.3403778
-0.37815082,0.3957124,0.81121576,0.15701294,0.39880753,0.0166893,-3.1409981,4.6492324,8.042957,0,1683900303.3506742
