acc_x,acc_y,acc_z,gyr_x,gyr_y,gyr_z,grav_x,grav_y,grav_z,label,timestamp
0.42528507,-0.0033212362,0.71212465,-5.5821037,2.887249,6.7281914,-0.038831837,9.063444,3.7447112,0,1683807184.981281
0.9073041,0.047938026,1.0682096,-5.7429886,2.9180908,6.1166954,0.9098871,8.498916,4.8073816,0,1683807185.043781
1.0454311,0.1709451,1.2102494,-5.4084015,2.3801613,5.2857018,1.6516737,7.7014275,5.84212,0,1683807185.059406
1.0454311,0.1709451,1.2102494,-5.20813,2.0936394,4.9704742,2.0469184,7.0310564,6.5226345,0,1683807185.0750313
1.1608707,0.21829167,1.2859099,-5.20813,2.0936394,4.9704742,2.0469184,7.0310564,6.5226345,0,1683807185.0906558
1.412496,0.23585327,1.4594331,-4.4848824,1.2169838,3.6558914,2.256542,6.593881,6.8992124,0,1683807185.106281
1.6428897,0.32689154,1.7457116,-3.5432053,0.12496948,2.1581268,2.5792234,5.8373156,7.4460554,0,1683807185.1219058
1.5189121,0.24390614,1.9011728,-2.358532,-1.0681152,0.53899765,2.852165,5.3635793,7.6985426,0,1683807185.1687813
1.5189121,0.24390614,1.9011728,-2.358532,-1.0681152,0.53899765,3.0184712,5.238166,7.721453,0,1683807185.1844063
0.90534776,0.34374037,1.3452069,1.4507675,-0.9881401,-1.0556984,3.2189994,5.824445,7.203074,0,1683807185.2000313
0.95317966,0.37887874,1.3683949,1.616993,-1.0328674,-1.2549019,3.2247593,5.895501,7.1424346,0,1683807185.2156565
0.95317966,0.37887874,1.3683949,2.1251488,-0.86250305,-1.9505119,3.1867442,6.163123,6.9304376,0,1683807185.2312808
0.95317966,0.37887874,1.3683949,2.2976494,-0.74954987,-2.34478,3.1867442,6.163123,6.9304376,0,1683807185.262531
0.9256088,0.33470175,0.95129913,3.2138252,-0.85609436,-3.244934,2.9916804,6.6332107,6.5742483,0,1683807185.278156
0.7115635,0.49748784,0.7377542,3.4620285,-1.1607742,-4.2824745,2.2121592,7.8076625,5.5060997,0,1683807185.3094063
0.64639753,0.42525473,0.7597138,3.5238457,-0.83473206,-4.7990417,2.2121592,7.8076625,5.5060997,0,1683807185.3719063
0.64639753,0.42525473,0.7597138,3.5238457,-0.83473206,-4.7990417,0.80767936,8.781059,4.2908077,0,1683807185.387531
0.64639753,0.42525473,0.7597138,3.8028908,-0.7868004,-5.3061295,0.80767936,8.781059,4.2908077,0,1683807185.387531
0.64639753,0.42525473,0.7597138,4.296093,-1.3237953,-5.891056,0.5915008,8.88008,4.1188226,0,1683807185.403156
0.36744398,0.4084059,0.51908344,4.025593,-1.0223198,-5.5117416,1.4113753,8.45086,4.770889,0,1683807185.4187813
0.20612897,0.32909054,0.38216966,4.1362762,-1.1511612,-5.6289673,0.1441642,9.057299,3.7569869,0,1683807185.4344058
0.10314031,0.30176237,0.35654002,4.3632507,-1.4515686,-6.109352,-0.8435055,9.301863,2.9890175,0,1683807185.450031
-0.1482424,0.25221682,0.16007146,4.1651154,-1.5889549,-6.087055,-1.645411,9.360877,2.4159877,0,1683807185.465656
-0.9485087,0.12481175,-0.21675995,1.7203331,0.5755806,-4.1908836,-6.8883233,6.968276,-0.40560558,0,1683807185.496906
-1.1959788,0.062330052,-0.46007463,1.260109,0.4606247,-3.3588219,-7.4282303,6.3636556,-0.70404345,0,1683807185.512531
-1.2955551,0.0015620426,-0.52255636,1.260109,0.4606247,-3.3588219,-7.9732227,5.619581,-1.0091635,0,1683807185.5281544
-1.2955551,0.0015620426,-0.52255636,0.5794525,0.47330856,-2.7271652,-8.381735,4.9375124,-1.2401066,0,1683807185.543781
-1.68141,-0.07042841,-0.46007463,0.5794525,0.47330856,-2.7271652,-8.381735,4.9375124,-1.2401066,0,1683807185.543781
-1.68141,-0.07042841,-0.46007463,0.1511383,0.454216,-0.61576843,-8.679021,4.340386,-1.4163475,0,1683807185.5906563
-1.9044788,-0.16463625,-0.42639214,0.1511383,0.454216,-0.61576843,-8.679021,4.340386,-1.4163475,0,1683807185.5906563
-1.9694021,-0.21589552,-0.40980113,0.1511383,0.454216,-0.61576843,-8.679021,4.340386,-1.4163475,0,1683807185.6062672
-1.9694021,-0.21589552,-0.40980113,0.1511383,0.454216,-0.61576843,-8.752311,4.156973,-1.5122863,0,1683807185.6375194
-1.9694021,-0.21589552,-0.40980113,0.10854721,0.49146652,-0.37290573,-8.752311,4.156973,-1.5122863,0,1683807185.6687682
-1.5537775,-0.11070788,-0.34951842,-0.5988121,-0.8167076,2.9549408,-8.2639885,5.148381,-1.1709179,0,1683807185.7000182
-0.6780933,0.07282455,-0.10594592,-1.9495773,0.039787292,5.969696,-5.8205338,7.8901234,-0.1942383,0,1683807185.7781427
-0.48261052,0.14727181,-0.09813571,-1.9495773,0.039787292,5.969696,-4.8646617,8.514206,0.11720368,0,1683807185.7937682
-0.48261052,0.14727181,-0.09813571,-1.9495773,0.039787292,5.969696,-4.075825,8.911682,0.3741195,0,1683807185.8406434
0.03406163,0.25294474,0.09393487,-1.7908287,-0.47904968,6.276512,-2.0513954,9.536746,1.0062939,0,1683807185.8562675
0.8728937,0.32347932,0.52445203,-2.809143,2.8297043,6.3946724,2.4565146,9.078142,2.779073,0,1683807185.9187677
0.8728937,0.32347932,0.52445203,-2.809143,2.8297043,6.3946724,2.7071,8.951729,2.9510243,0,1683807185.9343927
1.3929781,0.4298802,0.70578545,-3.123436,2.765751,5.3624725,3.7613666,8.187974,3.870347,0,1683807185.9500177
1.5823643,0.4933325,0.7987649,-2.9764366,2.260933,4.687023,4.0796003,7.8607154,4.21146,0,1683807185.9968934
1.5342898,0.5150646,1.2566254,-0.14286041,-0.61216354,-0.5849266,4.8706923,6.839842,5.065897,0,1683807186.0125182
1.4500912,0.47502777,1.2073225,-0.14286041,-0.61216354,-0.5849266,4.8706923,6.839842,5.065897,0,1683807186.0437672
1.2277503,0.4210994,1.1167694,0.6231117,-0.79000473,-1.334877,4.8672857,6.853779,5.0503087,0,1683807186.0593932
1.1147525,0.42475426,1.152651,0.88293076,-0.7463455,-1.5180588,4.767199,7.0474424,4.876243,0,1683807186.0750177
0.95317966,0.6431976,0.72945875,1.793766,0.53619385,-1.7407608,4.192504,7.727128,4.3456626,0,1683807186.090643
0.78552544,0.7325222,0.5364024,2.0686722,-0.166893,-3.2725716,2.708833,8.756837,3.4857461,0,1683807186.168768
0.76990503,0.736177,0.54275674,2.0686722,-0.166893,-3.2725716,2.5709467,8.83581,3.3895547,0,1683807186.1843925
0.76990503,0.736177,0.54275674,2.1581268,-0.30107498,-3.4067535,2.5709467,8.83581,3.3895547,0,1683807186.2000244
0.76990503,0.736177,0.54275674,2.1581268,-0.30107498,-3.4067535,2.1202183,9.069758,3.0683117,0,1683807186.2625182
0.5019313,0.6451388,0.29577202,2.8718948,-0.6323242,-4.482746,2.1202183,9.069758,3.0683117,0,1683807186.2625182
0.52364826,0.64612454,0.23256236,2.8718948,-0.6323242,-4.482746,0.86006075,9.522647,2.1794205,0,1683807186.2781563
0.6219963,0.67785066,0.5552076,2.549057,-0.588665,-3.9500237,1.7905749,9.2158165,2.83425,0,1683807186.2937813
0.50655675,0.6463672,0.4939391,2.549057,-0.588665,-3.9500237,1.6176779,9.284392,2.711744,0,1683807186.309406
0.25030595,0.5084676,0.08832365,3.0039406,-1.269455,-5.331764,-0.51477903,9.703702,1.3204358,0,1683807186.3250308
0.25030595,0.5084676,0.08832365,3.0039406,-1.269455,-5.331764,-1.2743686,9.680757,0.91066855,0,1683807186.3406541
0.25030595,0.5084676,0.08832365,2.9038048,-1.4537048,-5.4809,-1.2743686,9.680757,0.91066855,0,1683807186.3406541
0.08532089,0.49968684,0.046103004,2.632103,-1.2917519,-5.637512,-1.2743686,9.680757,0.91066855,0,1683807186.356281
-0.023036338,0.4425737,0.13030165,2.6033974,-0.9072304,-5.730171,-2.853173,9.379677,0.2268421,0,1683807186.371906
-0.023036338,0.4425737,0.13030165,2.6033974,-0.9072304,-5.730171,-2.3213701,9.517742,0.44068733,0,1683807186.387532
-0.31859604,0.26636618,0.07587281,2.5725555,-0.56209564,-5.738716,-2.3213701,9.517742,0.44068733,0,1683807186.4031563
-0.5423928,0.15019874,-0.021747272,2.5278282,-0.1093483,-5.3861046,-5.372827,8.16337,-0.81394076,0,1683807186.418781
-0.5423928,0.15019874,-0.021747272,2.4936485,-0.0315094,-5.2965164,-5.5911775,8.0045595,-0.9144195,0,1683807186.4344058
-0.72079927,0.14311647,-0.13230349,2.4936485,-0.0315094,-5.2965164,-5.5911775,8.0045595,-0.9144195,0,1683807186.4344058
-0.72079927,0.14311647,-0.13230349,2.4936485,-0.0315094,-5.2965164,-6.197112,7.504138,-1.2058629,0,1683807186.450031
-0.8535729,0.11871524,-0.2357926,2.3179436,0.16342163,-4.9674034,-6.197112,7.504138,-1.2058629,0,1683807186.465656
-0.8535729,0.11871524,-0.2357926,2.2411728,0.20708084,-4.8417664,-6.3799915,7.3337083,-1.2972398,0,1683807186.4812813
-1.0844519,0.06525698,-0.43957093,1.9802856,0.35087585,-4.4422913,-6.3799915,7.3337083,-1.2972398,0,1683807186.4969068
-1.0844519,0.06525698,-0.43957093,1.9802856,0.35087585,-4.4422913,-6.7194467,6.989649,-1.4711374,0,1683807186.5125313
-1.1230025,0.039142057,-0.4793651,1.6073799,0.60014725,-4.0161133,-6.7194467,6.989649,-1.4711374,0,1683807186.5125313
-1.1230025,0.039142057,-0.4793651,1.6073799,0.60014725,-4.0161133,-7.2879186,6.312519,-1.7912927,0,1683807186.5437696
-1.1952507,0.059403118,-0.44079933,1.2057686,0.87919235,-3.633728,-7.2879186,6.312519,-1.7912927,0,1683807186.5594068
-1.1952507,0.059403118,-0.44079933,1.0279274,0.7822609,-2.8827095,-7.620793,5.8365474,-2.0071404,0,1683807186.575031
-1.9081488,-0.26397005,-0.61700684,-0.31549454,0.19853592,0.88947296,-8.598492,3.8339477,-2.745389,0,1683807186.5906563
-1.8427402,-0.26007253,-0.61920583,-0.3857231,-0.01241684,1.3048363,-8.522027,3.9853168,-2.7681594,0,1683807186.6062813
-1.7846413,-0.23468553,-0.6062697,-0.3857231,-0.01241684,1.3048363,-8.49891,4.0432534,-2.7551782,0,1683807186.6219063
-1.3914766,-0.06505983,-0.41589764,-0.48158646,-0.94020844,2.4362373,-8.131774,4.952135,-2.349678,0,1683807186.637531
-1.3914766,-0.06505983,-0.41589764,-0.5988121,-0.8858681,2.7835083,-8.131774,4.952135,-2.349678,0,1683807186.6531558
-1.3914766,-0.06505983,-0.41589764,-0.77451706,-0.76343536,3.5206413,-7.7799788,5.58727,-2.103504,0,1683807186.6687813
-1.2579751,-0.019426957,-0.38856947,-0.77451706,-0.76343536,3.5206413,-7.7799788,5.58727,-2.103504,0,1683807186.6687813
-1.2579751,-0.019426957,-0.38856947,-0.8331299,-0.7719803,3.8689804,-7.3690314,6.187341,-1.8933,0,1683807186.684406
-1.1513164,0.033773486,-0.40223357,-1.1921501,-0.8092308,4.909725,-7.247304,6.3463216,-1.8360748,0,1683807186.700031
-0.89139557,0.08723174,-0.39637968,-1.1921501,-0.8092308,4.909725,-7.247304,6.3463216,-1.8360748,0,1683807186.7156565
-0.89139557,0.08723174,-0.39637968,-1.1921501,-0.8092308,4.909725,-6.5174665,7.167448,-1.5233871,0,1683807186.7312808
-0.81086695,0.10553645,-0.33853862,-1.1921501,-0.8092308,4.909725,-6.346399,7.333167,-1.455427,0,1683807186.746906
-0.76546156,0.103094816,-0.3229182,-1.3072395,-0.7953453,5.1164055,-6.346399,7.333167,-1.455427,0,1683807186.762531
0.10069867,0.19266203,-0.113513485,-1.3849449,-0.46195984,6.7845345,-2.0717158,9.583527,-0.18549263,0,1683807186.7781558
0.10069867,0.19266203,-0.113513485,-1.3849449,-0.46195984,6.7845345,-1.4136852,9.704102,-0.047871675,0,1683807186.793781
0.3669587,0.2536727,-0.013209118,-1.6523743,0.08131027,6.777191,-1.4136852,9.704102,-0.047871675,0,1683807186.809406
0.3669587,0.2536727,-0.013209118,-1.6523743,0.08131027,6.777191,-0.7452484,9.7777195,0.10580573,0,1683807186.8250167
0.5812467,0.22535877,0.23524666,-2.1477127,0.9388733,6.7100334,1.25381,9.694753,0.7811045,0,1683807186.8406425
1.3222009,0.41181815,0.9774141,-2.3820305,3.9247894,6.6695786,3.4192798,8.988907,1.9179343,0,1683807186.8562675
1.6575396,0.5209185,0.8056045,-2.1210098,4.3595123,5.5584717,4.52843,8.211153,2.870657,0,1683807186.8718922
1.9262412,0.61633956,0.6189025,-1.9442368,3.827858,4.8021126,4.8369455,7.8991876,3.2213638,0,1683807186.8875175
2.109531,0.83672404,1.0269597,-0.16836166,-1.2384796,-0.92472076,5.4249115,7.2408175,3.7830248,0,1683807186.9343922
1.3653921,0.5511887,1.008655,0.8520889,-1.9160652,-2.4725533,5.255299,7.515548,3.474013,0,1683807186.9500172
0.95660704,0.5011427,0.9515569,1.056633,-1.7147255,-2.590847,5.131993,7.6695056,3.3183928,0,1683807186.9812675
1.0883949,0.7962171,0.5283495,1.0416794,0.75675964,-3.1405258,3.6487777,8.737234,2.5529487,0,1683807187.0437794
1.0154186,0.7635052,0.53079116,1.1514282,0.8973503,-3.5293198,3.3402674,8.877505,2.4905593,0,1683807187.059406
0.88752836,0.70957685,0.5105453,1.1514282,0.8973503,-3.5293198,3.3402674,8.877505,2.4905593,0,1683807187.1062813
0.88752836,0.70957685,0.5105453,1.1514282,0.8973503,-3.5293198,2.9942133,9.022524,2.4081397,0,1683807187.1219063
0.44554612,0.5277581,0.28209278,2.3286247,-0.09973526,-4.420929,1.820359,9.441811,1.9258513,0,1683807187.1375167
0.44554612,0.5277581,0.28209278,2.3286247,-0.09973526,-4.420929,1.411194,9.558126,1.6796217,0,1683807187.1531427
0.39160258,0.5714346,0.16885225,2.74292,-1.12566,-4.6105194,1.411194,9.558126,1.6796217,0,1683807187.1531427
0.39160258,0.5714346,0.16885225,2.74292,-1.12566,-4.6105194,0.9951433,9.653745,1.4090041,0,1683807187.168768
0.19075118,0.5106666,0.06122297,2.540512,-0.99882126,-5.3839684,-0.8902055,9.759294,0.3662279,0,1683807187.1843925
0.38110808,0.66320086,0.16471209,2.752533,-1.3450241,-4.869404,-0.8902055,9.759294,0.3662279,0,1683807187.200021
0.38110808,0.66320086,0.16471209,2.752533,-1.3450241,-4.869404,-2.215917,9.550938,-0.19919342,0,1683807187.2156456
-0.11114767,0.38327673,-0.009311594,2.4617386,-0.8826637,-5.5703545,-2.215917,9.550938,-0.19919342,0,1683807187.2156456
-0.69615537,0.16971669,-0.1208384,1.9993782,-0.5940056,-5.4372406,-5.4445305,8.054577,-1.2850102,0,1683807187.2625172
-0.9238648,0.13871849,-0.24237442,1.5647888,0.40628433,-4.5871544,-6.575203,7.0722194,-1.70904,0,1683807187.278141
-1.0114757,0.12384117,-0.27460104,1.5264702,0.4829216,-4.474201,-6.7317533,6.905572,-1.7795941,0,1683807187.293768
-1.4522446,-0.02820776,-0.5379341,1.2707901,0.48505783,-3.6080933,-7.89022,5.3044157,-2.4037442,0,1683807187.3562815
-1.5874448,-0.068229415,-0.5450164,0.7733154,0.45955658,-2.6451874,-8.104309,4.9064803,-2.533185,0,1683807187.3719063
-1.6660322,-0.07482639,-0.5830817,0.7733154,0.45955658,-2.6451874,-8.215919,4.6780124,-2.6048534,0,1683807187.387531
-1.6660322,-0.07482639,-0.5830817,0.7733154,0.45955658,-2.6451874,-8.304224,4.483141,-2.666775,0,1683807187.4187813
-1.7026416,-0.08971888,-0.62994295,0.49840927,0.375309,-1.8376923,-8.304224,4.483141,-2.666775,0,1683807187.4187813
-1.7080102,-0.08507825,-0.64800507,0.30241013,0.31576157,-1.4350128,-8.371591,4.261866,-2.733863,0,1683807187.4344058
-1.7080102,-0.08507825,-0.64800507,0.30241013,0.31576157,-1.4350128,-8.47594,4.0313807,-2.841972,0,1683807187.450031
-1.6465143,-0.108508885,-0.48497632,-0.3207016,0.47437668,-0.48051834,-8.47594,4.0313807,-2.841972,0,1683807187.450031
-1.6465143,-0.108508885,-0.48497632,-0.46770096,0.4531479,-0.008544922,-8.47594,4.0313807,-2.841972,0,1683807187.4656558
-1.4092809,-0.044070832,-0.41272807,-0.2845192,-1.3685226,2.5704193,-8.223053,4.823638,-2.2987626,0,1683807187.5125313
-1.2967836,0.008401666,-0.36758047,-0.57424545,-0.96157074,3.0114174,-8.058506,5.165605,-2.1324627,0,1683807187.559406
-1.2653,0.012056543,-0.37904558,-0.6647682,-0.8231163,3.1445312,-7.7429996,5.6958084,-1.9427073,0,1683807187.5750308
-1.2653,0.012056543,-0.37904558,-0.8534241,-0.8731842,4.039345,-7.5467076,5.986448,-1.8384856,0,1683807187.590656
-1.221851,0.010600658,-0.35268798,-0.8534241,-0.8731842,4.039345,-7.5467076,5.986448,-1.8384856,0,1683807187.590656
-1.221851,0.010600658,-0.35268798,-0.8534241,-0.8731842,4.039345,-7.438363,6.1371446,-1.7823017,0,1683807187.6062815
-1.221851,0.010600658,-0.35268798,-0.8555603,-1.0105705,4.529476,-7.438363,6.1371446,-1.7823017,0,1683807187.6219063
-0.9099429,0.044510633,-0.3832009,-1.1016273,-1.0116386,5.409336,-6.435024,7.2772202,-1.3427274,0,1683807187.637531
-0.7481426,0.09918212,-0.24384548,-1.1388779,-0.92538834,5.528698,-6.435024,7.2772202,-1.3427274,0,1683807187.653156
-0.17948325,0.21633533,-0.26239282,-1.3562393,-0.36502838,6.180649,-3.375759,9.194972,-0.47658822,0,1683807187.668781
0.32986397,0.27027887,0.1525039,-1.7683983,-0.05607605,6.147537,-0.39328516,9.792582,0.34794182,0,1683807187.715656
0.32986397,0.27027887,0.1525039,-1.5766716,0.3891945,6.0910606,0.8213094,9.748144,0.68520725,0,1683807187.731281
0.60711896,0.35300648,0.4756344,-1.5766716,0.3891945,6.0910606,0.8213094,9.748144,0.68520725,0,1683807187.731281
0.60711896,0.35300648,0.4756344,-1.6192627,2.317276,6.147537,2.5799634,9.3769455,1.2597823,0,1683807187.8094065
0.74328965,0.34129873,0.45074788,-1.6192627,2.317276,6.147537,2.5799634,9.3769455,1.2597823,0,1683807187.8094065
1.607994,0.5709493,0.1917976,-1.7056465,2.5175476,6.093197,2.5799634,9.3769455,1.2597823,0,1683807187.8250313
2.1112447,0.8777315,0.28307852,-1.93676,2.3567963,5.418949,2.5799634,9.3769455,1.2597823,0,1683807187.8406563
2.1112447,0.8777315,0.28307852,-1.93676,2.3567963,5.418949,3.6081119,8.946209,1.7655784,0,1683807187.8562808
2.161033,1.0558953,0.82854986,-1.0845375,-0.5098915,1.2868118,4.7307205,8.249973,2.3934505,0,1683807187.8719063
2.161033,1.0558953,0.82854986,-0.3271103,-0.95516205,0.11388779,4.942432,8.111908,2.4371495,0,1683807187.887531
1.8396009,0.91141397,0.87735236,0.4430008,-1.0296631,-0.8001518,4.929539,8.159882,2.2992072,0,1683807187.9031563
1.1694239,0.8303849,0.54592633,0.12563705,1.1199188,-1.3699913,4.4963717,8.424624,2.231308,0,1683807187.9187813
1.1357415,0.81305075,0.5586198,0.14686584,1.1562347,-1.5021706,4.4963717,8.424624,2.231308,0,1683807187.9500277
1.087667,0.846248,0.56740063,0.9767914,0.8685112,-2.7463913,3.770725,8.7616825,2.2770433,0,1683807187.965656
0.8492204,0.7320217,0.42340454,1.5348816,0.49253464,-3.546276,2.9181397,9.14012,2.0280688,0,1683807187.9812813
0.26616904,0.6222086,-0.012966471,2.3434448,-0.2946663,-4.7543144,-0.24461018,9.793678,0.44092703,0,1683807188.059406
0.26616904,0.6222086,-0.012966471,2.3434448,-0.2946663,-4.7543144,-0.47646183,9.789585,0.3277087,0,1683807188.0750184
0.22419102,0.5951079,-0.067637965,2.312603,-0.27557373,-4.8342896,-0.47646183,9.789585,0.3277087,0,1683807188.0750184
0.0721421,0.50993866,-0.18721764,2.0920372,-0.2520752,-5.0493813,-0.47646183,9.789585,0.3277087,0,1683807188.090656
-0.10041053,0.45746619,-0.08471427,2.0920372,-0.2520752,-5.0493813,-1.1987685,9.733105,0.0056969537,0,1683807188.1219058
-0.16606182,0.43744776,-0.07569082,2.0920372,-0.2520752,-5.0493813,-1.445615,9.69908,-0.09173821,0,1683807188.1375313
-0.16606182,0.43744776,-0.07569082,1.8236732,-0.34687042,-5.1612663,-1.445615,9.69908,-0.09173821,0,1683807188.153156
-0.16606182,0.43744776,-0.07569082,1.8290138,-0.27236938,-5.083561,-3.8693879,8.962877,-0.93009067,0,1683807188.1687813
-0.38571838,0.34959424,-0.15793313,1.8290138,-0.27236938,-5.083561,-3.8693879,8.962877,-0.93009067,0,1683807188.1687813
-0.76277727,0.2085251,-0.32511717,1.1131096,0.8611679,-4.595566,-5.153205,8.230118,-1.3711433,0,1683807188.200031
-0.8513739,0.18093914,-0.25848013,0.96717834,1.0251236,-4.4070435,-6.3753734,7.214068,-1.866075,0,1683807188.215656
-1.1247162,0.09893948,-0.36905152,1.2036324,0.74287415,-3.930931,-7.18503,6.270934,-2.2849758,0,1683807188.231281
-1.1247162,0.09893948,-0.36905152,1.1727905,0.22510529,-3.0200958,-7.616242,5.640983,-2.5184453,0,1683807188.3250313
-1.1718202,0.073309846,-0.38148722,1.1727905,0.22510529,-3.0200958,-7.616242,5.640983,-2.5184453,0,1683807188.3250313
-1.7617111,-0.1968477,-0.5926056,-0.14499664,0.49894333,-0.39640427,-8.429022,4.0261416,-2.985325,0,1683807188.3719046
-1.529361,-0.068472065,-0.4256642,-0.2622223,-0.3735733,0.96824646,-8.378336,4.1178555,-3.002855,0,1683807188.3875313
-1.3756136,0.0035183872,-0.6228607,-0.8534241,-0.41509628,3.332119,-7.757959,5.410649,-2.59024,0,1683807188.465656
-1.100315,0.05891782,-0.46178833,-1.0717201,-0.98493576,3.9744568,-7.3870306,5.9987345,-2.3700962,0,1683807188.481281
-0.60584503,0.13213667,-0.40126297,-1.3284683,-0.8965492,5.554199,-5.179756,8.204965,-1.4209416,0,1683807188.559406
-0.60584503,0.13213667,-0.40126297,-1.311512,-1.1299324,5.790653,-4.725842,8.498983,-1.2665325,0,1683807188.575031
-0.60584503,0.13213667,-0.40126297,-1.311512,-1.1299324,5.790653,-1.6188734,9.664212,-0.39068565,0,1683807188.637531
0.13363805,0.25734273,0.006809293,-1.4946938,-0.1455307,6.587467,-1.6188734,9.664212,-0.39068565,0,1683807188.637531
0.41553366,0.26172554,0.20596215,-1.9037819,1.1605072,6.839943,0.04181218,9.806519,0.028634157,0,1683807188.6531558
0.70254004,0.2883258,0.38411084,-2.3405075,2.4409103,6.9071007,1.4039893,9.692785,0.49911988,0,1683807188.6687813
1.2060333,0.4372051,0.5810647,-2.711277,3.4251785,6.536331,1.7381213,9.629908,0.6435888,0,1683807188.7000294
1.2060333,0.4372051,0.5810647,-2.711277,3.4251785,6.536331,3.769482,8.857414,1.8728597,0,1683807188.715656
1.5418574,0.64441085,0.67894256,-2.6803017,3.4656334,6.1304474,4.195379,8.57744,2.2353325,0,1683807188.731281
1.9706608,0.8686929,0.6074223,-1.9985771,2.09898,3.618641,5.032284,7.8455358,3.0486188,0,1683807188.7625315
1.8825495,0.7866932,0.7689951,-0.19826889,-1.5165901,0.13204575,5.3371468,7.6145496,3.1151044,0,1683807188.778156
1.3702754,0.6248929,0.73117244,0.48238754,-1.8457031,-1.3220596,5.3909,7.6434255,2.9473097,0,1683807188.8094063
1.09986,0.5624112,0.75093305,0.42711258,-1.1873436,-1.3966942,5.2712464,7.851298,2.596434,0,1683807188.8250308
0.9212108,0.5633818,0.72628915,0.35247803,0.46489716,-1.0280609,5.1135674,7.981869,2.5122907,0,1683807188.8719063
1.1491629,0.7696169,0.47099376,0.5591583,0.68639755,-1.6682625,4.590402,8.284872,2.5415525,0,1683807188.8875313
1.1459934,0.76132137,0.49906504,0.71790695,0.45207977,-2.0379639,4.4292197,8.380967,2.512327,0,1683807188.9031563
1.0971757,0.7866932,0.5676433,0.81697464,0.33058167,-2.2200775,3.2030728,9.051641,1.9946154,0,1683807188.950031
0.6493396,0.6497794,0.14445104,1.802311,0.24539948,-3.9585686,2.3371966,9.386994,1.6100444,0,1683807188.9813025
0.6493396,0.6497794,0.14445104,1.802311,0.24539948,-3.9585686,1.3210673,9.647497,1.1623147,0,1683807189.043781
0.48288348,0.6736953,0.09100794,1.904583,-0.31068802,-4.616928,1.3210673,9.647497,1.1623147,0,1683807189.043781
0.48288348,0.6736953,0.09100794,1.904583,-0.31068802,-4.616928,-1.3616722,9.711539,0.047368288,0,1683807189.059406
0.0941017,0.5070118,-0.04810485,2.131424,-0.64727783,-5.4180145,-1.3616722,9.711539,0.047368288,0,1683807189.059406
-0.06135946,0.42695326,-0.0893549,1.8684006,-0.37143707,-5.6054688,-1.3616722,9.711539,0.047368288,0,1683807189.0750313
-0.22902882,0.34616685,0.016803332,1.8684006,-0.37143707,-5.6054688,-3.2377272,9.240794,-0.5433453,0,1683807189.1066713
-0.36204508,0.25978437,0.08221197,1.9280815,-0.11468887,-5.738716,-4.0268507,8.907227,-0.7849664,0,1683807189.1219063
-0.36204508,0.25978437,0.08221197,2.1857643,-0.006008148,-5.626831,-4.0268507,8.907227,-0.7849664,0,1683807189.1378152
-0.51896214,0.13042298,-0.0015013808,2.345581,0.08558273,-5.514946,-4.7763557,8.500196,-1.0504563,0,1683807189.153156
-0.51896214,0.13042298,-0.0015013808,2.345581,0.08558273,-5.514946,-6.3067913,7.306509,-1.734847,0,1683807189.168781
-1.1090958,0.004003682,-0.41175747,2.4009895,0.16662598,-5.3850365,-6.3067913,7.306509,-1.734847,0,1683807189.168781
-0.61853856,0.119443186,-0.140599,2.2507858,0.23258209,-5.354061,-6.8589506,6.718571,-1.9964894,0,1683807189.1844065
-0.61853856,0.119443186,-0.140599,2.2507858,0.23258209,-5.354061,-7.6569104,5.615144,-2.4519916,0,1683807189.200031
-1.5071589,-0.07922438,-0.36636725,1.1248589,0.87278366,-3.8498878,-7.6569104,5.615144,-2.4519916,0,1683807189.200031
-1.554748,-0.06750147,-0.39125377,1.158905,0.74394226,-3.591137,-7.753872,5.4525213,-2.5135376,0,1683807189.2156563
-1.554748,-0.06750147,-0.39125377,1.158905,0.74394226,-3.591137,-7.9975595,5.0120783,-2.662423,0,1683807189.2937813
-1.6413883,-0.13510911,-0.64116544,0.6560898,0.189991,-1.4414215,-8.126804,4.760227,-2.7323377,0,1683807189.3254035
-1.7106946,-0.16318038,-0.68094444,0.11602402,0.39560318,-0.60401917,-8.413543,4.0945263,-2.9355652,0,1683807189.3562796
-1.7106946,-0.16318038,-0.68094444,0.11602402,0.39560318,-0.60401917,-8.447922,3.9635968,-3.0154433,0,1683807189.371906
-1.5781786,-0.07018576,-0.52939594,-0.1130867,0.37958145,-0.22377014,-8.438406,4.010342,-2.9800785,0,1683807189.38775
-1.7341251,-0.13924928,-0.6157936,-0.55194855,-0.21909714,1.1227226,-8.375582,4.1315804,-2.9916623,0,1683807189.4035532
-1.7341251,-0.13924928,-0.6157936,-0.569973,-0.42470932,1.3677216,-8.339765,4.241473,-2.9374526,0,1683807189.418781
-1.7341251,-0.13924928,-0.6157936,-0.5061531,-0.6430054,1.6724014,-8.29767,4.3692007,-2.8686478,0,1683807189.4344058
-1.7341251,-0.13924928,-0.6157936,-0.5061531,-0.6430054,1.6724014,-8.273723,4.4388,-2.8307166,0,1683807189.4502814
-1.4124657,-0.015756916,-0.37734705,-0.5348587,-0.58332443,1.5776062,-8.1886635,4.6652765,-2.7113402,0,1683807189.4659402
-1.3231411,0.02426474,-0.33048576,-0.44754028,-0.7251167,1.9366264,-8.1886635,4.6652765,-2.7113402,0,1683807189.4816518
-1.3285097,0.045011092,-0.40784478,-0.6275177,-0.8646393,2.7366447,-8.030317,5.0176277,-2.5510392,0,1683807189.4971294
-1.1684079,0.10822074,-0.39028317,-0.71804047,-0.9605026,3.0955315,-7.66874,5.682684,-2.251207,0,1683807189.5281446
-1.1178918,0.1465287,-0.43371707,-0.8192444,-0.96797943,3.3257103,-7.508406,5.935402,-2.1366396,0,1683807189.5439973
-0.80743957,0.16898875,-0.2140605,-1.4882851,-0.36823273,5.0631332,-6.616099,7.054414,-1.6226172,0,1683807189.559407
-0.715188,0.15092668,-0.20723605,-1.4882851,-0.36823273,5.0631332,-5.6048884,7.954031,-1.220246,0,1683807189.5750296
-0.715188,0.15092668,-0.20723605,-1.4882851,-0.36823273,5.0631332,-4.7455463,8.530676,-0.93687886,0,1683807189.5906436
-0.5834002,0.1770416,-0.12742022,-1.3988304,-0.7176399,5.9142876,-4.25572,8.800053,-0.78632784,0,1683807189.6062713
-0.5834002,0.1770416,-0.12742022,-1.3487625,-0.7580948,6.042061,-4.25572,8.800053,-0.78632784,0,1683807189.6218915
-0.51847684,0.17948325,-0.087155916,-1.3487625,-0.7580948,6.042061,-3.9949152,8.927748,-0.71157384,0,1683807189.6375184
-0.51847684,0.17948325,-0.087155916,-1.2155151,-0.62711716,6.347809,-3.9949152,8.927748,-0.71157384,0,1683807189.6687684
-0.087959684,0.26051232,0.07098953,-1.181469,-0.5034828,6.418171,-3.15815,9.270614,-0.5021794,0,1683807189.6843932
-0.087959684,0.26051232,0.07098953,-1.1974907,0.089855194,6.5662384,-3.15815,9.270614,-0.5021794,0,1683807189.7000182
0.11973133,0.25050312,-0.10814492,-1.3721275,0.52337646,6.636467,-1.9353373,9.610148,-0.26437378,0,1683807189.715644
0.11973133,0.25050312,-0.10814492,-1.5053749,0.6885338,6.655693,-0.96724755,9.758527,-0.07726572,0,1683807189.7312694
0.5077852,0.30370355,0.15274654,-2.2712135,1.7346191,6.7793274,0.6930455,9.773848,0.4024695,0,1683807189.7468927
0.701069,0.39889717,0.3299398,-2.5801659,2.3578644,6.689739,1.3494581,9.689881,0.6749434,0,1683807189.762518
0.747445,0.4167014,0.4910122,-2.7964592,2.8669548,6.4787865,2.26507,9.469743,1.1678294,0,1683807189.8093922
0.7520856,0.4084059,0.5510523,-2.2872353,2.6720238,5.745926,1.9701494,9.555021,0.9952264,0,1683807189.8250194
1.063008,0.4520976,0.7145663,-2.6291656,2.9629517,6.0325813,1.9701494,9.555021,0.9952264,0,1683807189.8406436
1.1149951,0.6222086,0.5376308,1.1524963,0.50107956,-2.0187378,4.813415,7.9507794,3.1283424,0,1683807189.8562677
1.0312818,0.6727247,0.5376308,1.2324715,0.41696548,-3.054142,4.4238153,8.220822,3.0030506,0,1683807189.8718927
1.0312818,0.6727247,0.5376308,1.2324715,0.41696548,-3.054142,3.9022586,8.539859,2.8308249,0,1683807189.887518
0.65178126,0.5894967,0.40925518,2.18256,-0.3596878,-4.2899513,2.5370052,9.213354,2.201839,0,1683807189.9031432
0.6376167,0.6060877,0.39412004,2.5011253,-0.57598114,-4.7532463,2.5370052,9.213354,2.201839,0,1683807189.9500172
0.62029773,0.6100004,0.3475014,2.5011253,-0.57598114,-4.7532463,2.5370052,9.213354,2.201839,0,1683807189.9656417
0.15537016,0.42354104,0.057568096,2.7418518,-1.2140465,-5.6225586,-0.76163566,9.768599,0.40592825,0,1683807189.9812675
0.10606725,0.39157224,0.045845192,2.2156715,-0.6729126,-5.6469917,-1.8525447,9.6298685,-0.0641413,0,1683807190.0125177
-0.26685148,0.26026967,0.10394408,1.9993782,-0.2659607,-5.625763,-3.4498487,9.158917,-0.619005,0,1683807190.0281427
-0.35788974,0.26588088,0.122734085,1.9865608,0.25821686,-5.5596733,-3.9576924,8.936783,-0.8006204,0,1683807190.0437675
-0.4630774,0.24025126,0.057568096,2.1453094,0.41376114,-5.493717,-3.9576924,8.936783,-0.8006204,0,1683807190.0750172
-0.5692356,0.2107241,-0.04225098,2.1453094,0.41376114,-5.493717,-4.4455404,8.68388,-0.99890256,0,1683807190.0906427
-0.6314747,0.16386282,-0.12328004,2.1453094,0.41376114,-5.493717,-4.9109507,8.40158,-1.2109488,0,1683807190.1062667
-0.6314747,0.16386282,-0.12328004,2.3605347,0.39346695,-5.167675,-4.9109507,8.40158,-1.2109488,0,1683807190.1375616
-0.7227556,0.13310726,-0.19258621,2.3605347,0.39346695,-5.167675,-5.766376,7.7613525,-1.6372901,0,1683807190.153184
-1.4502883,-0.06505983,-0.60651237,2.3286247,-0.29787064,-4.0182495,-8.067281,4.8471866,-2.7557516,0,1683807190.1688087
-1.4502883,-0.06505983,-0.60651237,1.241951,-0.24246216,-2.531166,-8.209984,4.572841,-2.8027997,0,1683807190.184434
-1.7692786,-0.13363805,-0.7807635,1.241951,-0.24246216,-2.531166,-8.209984,4.572841,-2.8027997,0,1683807190.184434
-1.7692786,-0.13363805,-0.7807635,1.241951,-0.24246216,-2.531166,-8.390884,4.1669745,-2.898236,0,1683807190.2000623
-1.9635483,-0.23272918,-0.7270778,0.55381775,0.22096634,-1.8173981,-8.390884,4.1669745,-2.898236,0,1683807190.2000623
-2.0184624,-0.26738226,-0.7029192,-0.055541992,0.773716,-0.9908104,-8.428045,4.0455594,-2.9617379,0,1683807190.2313077
-2.0086958,-0.2764209,-0.67337686,-0.37397385,1.0070992,-0.4421997,-8.428045,4.0455594,-2.9617379,0,1683807190.2469344
-1.976727,-0.2830027,-0.6467766,-0.5849266,1.0954857,0.04579544,-8.428045,4.0455594,-2.9617379,0,1683807190.2625587
-1.8913,-0.2520045,-0.6575138,-0.5849266,1.0954857,0.04579544,-8.378247,3.9944165,-3.1654363,0,1683807190.2781842
-1.8913,-0.2520045,-0.6575138,-0.6690407,0.9484863,0.47397614,-8.426311,3.9679322,-3.0697217,0,1683807190.309434
-1.7226601,-0.18538262,-0.68949777,-0.66797256,0.7876015,0.65502167,-8.357615,4.0209236,-3.1863508,0,1683807190.340687
-1.7226601,-0.18538262,-0.68949777,-0.5721092,0.07703781,1.0897446,-8.297219,4.1369877,-3.195602,0,1683807190.3563087
-1.580863,-0.11045007,-0.5557535,-0.45288086,-1.2183189,1.9334221,-8.188799,4.507769,-2.9654653,0,1683807190.3719342
-1.5235072,-0.07018576,-0.48229203,-0.45288086,-1.2183189,1.9334221,-8.188799,4.507769,-2.9654653,0,1683807190.4031842
-1.5235072,-0.07018576,-0.48229203,-0.58172226,-1.2715912,2.52676,-8.188799,4.507769,-2.9654653,0,1683807190.4188077
-1.349256,-0.00868981,-0.31290898,-0.86610794,-0.801754,3.1956673,-8.188799,4.507769,-2.9654653,0,1683807190.4344337
-1.2357577,-0.008204515,-0.30534142,-0.86610794,-0.801754,3.1956673,-7.968488,5.0985737,-2.5842087,0,1683807190.4500601
-1.2950698,-0.009417752,-0.30340025,-1.0227203,-0.5248451,3.5249138,-7.6750083,5.6240044,-2.3738616,0,1683807190.481311
-1.0097619,0.08331905,-0.3302431,-1.222992,-0.5321884,4.5635223,-6.381864,7.21492,-1.8404157,0,1683807190.4969368
-0.76863116,0.09796889,-0.20772134,-1.2561035,-0.75595856,5.6181526,-6.0336494,7.5415754,-1.7000333,0,1683807190.5125601
-0.8115949,0.09772624,-0.27605692,-1.2454224,-0.8869362,5.3614044,-6.0336494,7.5415754,-1.7000333,0,1683807190.543809
-0.8562572,0.08893027,-0.3224329,-1.214447,-0.77825546,4.9139977,-5.65007,7.8632393,-1.5545268,0,1683807190.5594358
-0.57339096,0.1052938,-0.19234356,-1.3370132,-0.43632507,6.1315155,-3.9902527,8.892724,-1.0806154,0,1683807190.5750592
-0.6451388,0.0847901,-0.16965602,-1.3370132,-0.43632507,6.1315155,-5.2283907,8.175295,-1.413816,0,1683807190.5906847
-0.6451388,0.0847901,-0.16965602,-1.2719917,-0.67718506,5.748062,-5.2283907,8.175295,-1.413816,0,1683807190.60631
-0.4315939,0.12896709,-0.18404806,-1.2719917,-0.67718506,5.748062,-5.002281,8.32686,-1.3457215,0,1683807190.6219351
-0.4315939,0.12896709,-0.18404806,-1.2719917,-0.67718506,5.748062,-3.4207604,9.142024,-0.94455457,0,1683807190.637566
-0.4315939,0.12896709,-0.18404806,-1.571331,-0.12216568,6.553421,-3.4207604,9.142024,-0.94455457,0,1683807190.6688108
-0.4315939,0.12896709,-0.18404806,-1.571331,-0.12216568,6.553421,-3.1249683,9.254397,-0.87239933,0,1683807190.6844347
-0.3686269,0.12188482,-0.1650154,-1.571331,-0.12216568,6.553421,-3.1249683,9.254397,-0.87239933,0,1683807190.7000628
-0.10505116,0.11407461,0.023400309,-1.8312836,0.19105911,6.7408752,-3.1249683,9.254397,-0.87239933,0,1683807190.746934
0.13779339,0.22854352,0.25940523,-1.8312836,0.19105911,6.7408752,-2.1882262,9.538628,-0.6297825,0,1683807190.7781854
0.13779339,0.22854352,0.25940523,-2.0176697,0.8823967,6.8463516,-0.8613249,9.76536,-0.25742984,0,1683807190.79381
0.13779339,0.22854352,0.25940523,-2.3085976,1.9817543,6.790943,-0.8613249,9.76536,-0.25742984,0,1683807190.8250594
0.39331627,0.1045507,0.4038866,-2.3085976,1.9817543,6.790943,-0.8613249,9.76536,-0.25742984,0,1683807190.8875597
0.39331627,0.1045507,0.4038866,-2.369213,2.3332977,6.8240547,-0.8613249,9.76536,-0.25742984,0,1683807190.9031842
0.39331627,0.1045507,0.4038866,-2.354393,2.4398422,6.880398,-0.8613249,9.76536,-0.25742984,0,1683807190.9188085
0.2200357,0.20705406,0.3509288,-2.354393,2.4398422,6.880398,1.1488452,9.72838,0.4573383,0,1683807190.9344337
0.8889994,0.27002105,0.35117146,-2.132759,2.5431824,6.9454193,1.1488452,9.72838,0.4573383,0,1683807190.9969344
0.8889994,0.27002105,0.35117146,-2.132759,2.5431824,6.9454193,2.4789772,9.436116,0.99235886,0,1683807191.0281856
1.2965713,0.42231265,0.23133397,-2.0933723,2.5005913,6.8293953,2.4789772,9.436116,0.99235886,0,1683807191.0281856
1.2965713,0.42231265,0.23133397,-2.0944405,2.2832298,6.432991,2.4789772,9.436116,0.99235886,0,1683807191.0438097
1.2965713,0.42231265,0.23133397,-2.0944405,2.2832298,6.432991,3.3937984,9.094406,1.3943856,0,1683807191.059435
1.2965713,0.42231265,0.23133397,-2.1614647,1.9551849,5.469017,3.9251678,8.831829,1.6620021,0,1683807191.07506
1.6262987,0.5995059,0.25280827,-2.1614647,1.9551849,5.469017,3.9251678,8.831829,1.6620021,0,1683807191.07506
1.6262987,0.5995059,0.25280827,-2.1860313,1.7559814,5.469017,3.9251678,8.831829,1.6620021,0,1683807191.1063092
1.6262987,0.5995059,0.25280827,-2.1860313,1.7559814,5.469017,4.163583,8.695847,1.7936617,0,1683807191.1219347
1.8088454,0.5799728,0.63256663,-2.1284866,1.0518265,4.2066383,4.9162927,8.177898,2.2632778,0,1683807191.153184
1.8210536,0.5531299,0.6994311,-2.1284866,1.0518265,4.2066383,4.9162927,8.177898,2.2632778,0,1683807191.1688094
1.8581483,0.58095855,0.8346464,-1.2103081,0.10374069,1.9514465,5.5871134,7.593413,2.7008586,0,1683807191.1844342
1.8581483,0.58095855,0.8346464,-1.2103081,0.10374069,1.9514465,5.7748713,7.397225,2.8464541,0,1683807191.2156847
1.9020827,0.62951833,0.72677445,-1.2103081,0.10374069,1.9514465,5.7748713,7.397225,2.8464541,0,1683807191.2156847
1.9020827,0.62951833,0.72677445,-0.89387894,0.39133072,1.2686539,5.7748713,7.397225,2.8464541,0,1683807191.2313087
1.8920734,0.64124125,0.7199348,-0.89387894,0.39133072,1.2686539,5.7748713,7.397225,2.8464541,0,1683807191.2469342
1.8920734,0.64124125,0.7199348,-0.6200409,0.23044586,0.20654678,5.7748713,7.397225,2.8464541,0,1683807191.278184
1.5494097,0.56265384,0.85222316,-0.22377014,-0.123233795,-0.49013138,5.8785167,7.2311244,3.0535655,0,1683807191.2938097
1.8264221,0.6344016,0.7533747,-0.7787895,0.41376114,0.750885,5.8785167,7.2311244,3.0535655,0,1683807191.3094354
1.8264221,0.6344016,0.7533747,-0.22377014,-0.123233795,-0.49013138,5.8785167,7.2311244,3.0535655,0,1683807191.3250587
1.8264221,0.6344016,0.7533747,-0.22377014,-0.123233795,-0.49013138,5.8697033,7.271772,2.9729295,0,1683807191.3406842
1.3810126,0.5955932,0.82318133,0.44193268,-0.2381897,-1.1442184,5.764752,7.3425007,3.0042813,0,1683807191.3563104
1.2948726,0.6129273,0.80536187,0.6092262,-0.06889343,-1.3476944,5.68392,7.421395,2.964177,0,1683807191.3719347
1.2248234,0.63563,0.7335989,0.7881355,0.3401947,-1.603241,5.5806255,7.513661,2.9277804,0,1683807191.3875592
1.2248234,0.63563,0.7335989,0.83192825,0.47758102,-1.6971016,5.3833,7.6732354,2.8830416,0,1683807191.4344335
1.044218,0.60071915,0.5635031,0.83192825,0.47758102,-1.6971016,5.0415583,7.9213696,2.8293068,0,1683807191.4500608
1.044218,0.60071915,0.5635031,1.0726547,0.875988,-2.2519875,4.9453177,7.988175,2.8112776,0,1683807191.4656842
1.2009075,0.633431,0.69553363,0.9340668,0.78653336,-1.9943047,4.632649,8.20052,2.7313783,0,1683807191.4813092
1.0139476,0.6100004,0.5542218,0.9340668,0.78653336,-1.9943047,5.2218947,7.7933645,2.8575618,0,1683807191.4969337
0.9766103,0.6485662,0.48223138,0.9340668,0.78653336,-1.9943047,4.632649,8.20052,2.7313783,0,1683807191.5281856
0.9766103,0.6485662,0.48223138,1.3591766,0.7482147,-2.6078033,4.632649,8.20052,2.7313783,0,1683807191.543809
0.9788093,0.66320086,0.46612567,1.3591766,0.7482147,-2.6078033,4.632649,8.20052,2.7313783,0,1683807191.543809
0.9788093,0.66320086,0.46612567,1.5306091,0.6022835,-2.8401184,4.632649,8.20052,2.7313783,0,1683807191.5594332
0.8443371,0.68980104,0.38753822,1.9163322,0.33164978,-3.3311844,4.024841,8.590426,2.485081,0,1683807191.590684
0.8443371,0.68980104,0.38753822,1.9163322,0.33164978,-3.3311844,3.743693,8.756327,2.3413446,0,1683807191.621935
0.8443371,0.68980104,0.38753822,2.1570587,0.050468445,-3.6613655,3.2811697,9.00507,2.0767846,0,1683807191.6531842
0.69375926,0.68321925,0.30089796,2.1570587,0.050468445,-3.6613655,3.2811697,9.00507,2.0767846,0,1683807191.6688092
0.6366461,0.6785786,0.28552017,2.1570587,0.050468445,-3.6613655,3.1160524,9.0858555,1.9768271,0,1683807191.6844354
0.6366461,0.6785786,0.28552017,2.218876,-0.04966736,-3.7529564,3.1160524,9.0858555,1.9768271,0,1683807191.7156844
0.554146,0.6531916,0.20156416,2.313671,-0.21055222,-3.9095688,3.1160524,9.0858555,1.9768271,0,1683807191.73131
0.554146,0.6531916,0.20156416,2.354126,-0.45555115,-4.1215897,3.1160524,9.0858555,1.9768271,0,1683807191.7469342
0.48118496,0.6861462,0.1481059,2.354126,-0.45555115,-4.1215897,3.1160524,9.0858555,1.9768271,0,1683807191.7625594
0.48118496,0.6861462,0.1481059,2.354126,-0.45555115,-4.1215897,2.0364065,9.503584,1.3058796,0,1683807191.7781842
0.36792928,0.6571043,0.112239584,2.3658752,-0.5301857,-4.2046356,1.4316243,9.655071,0.9489163,0,1683807191.809435
0.36792928,0.6571043,0.112239584,2.396717,-0.62604904,-4.4337463,1.4316243,9.655071,0.9489163,0,1683807191.8250587
0.36792928,0.6571043,0.112239584,2.3977852,-0.6217766,-4.5700645,1.4316243,9.655071,0.9489163,0,1683807191.840684
0.36792928,0.6571043,0.112239584,2.4212837,-0.6249809,-4.8417664,0.33035317,9.794743,0.35249877,0,1683807191.8563097
0.20881325,0.612442,-0.00027297833,2.4212837,-0.6249809,-4.8417664,0.33035317,9.794743,0.35249877,0,1683807191.8563097
0.02917835,0.55240196,-0.036882404,2.3509216,-0.7655716,-5.026016,-0.13975663,9.804976,0.11525896,0,1683807191.8875592
-0.024750035,0.53506786,-0.009311594,2.322216,-0.8209801,-5.0782204,-1.3616164,9.701454,-0.44518292,0,1683807191.918809
-0.024750035,0.53506786,-0.009311594,2.3190117,-0.8315277,-5.1005173,-1.3616164,9.701454,-0.44518292,0,1683807191.9344344
0.16342302,0.5924236,-0.018335044,2.373352,-0.7803917,-5.175152,-0.622271,9.786204,-0.115609124,0,1683807191.9500592
0.16342302,0.5924236,-0.018335044,2.373352,-0.7803917,-5.175152,-1.6088897,9.658111,-0.5502338,0,1683807191.9656842
-0.20975351,0.47821254,0.009493579,2.373352,-0.7803917,-5.175152,-1.6088897,9.658111,-0.5502338,0,1683807191.9656842
-0.20975351,0.47821254,0.009493579,2.373352,-0.7803917,-5.175152,-2.3581378,9.479813,-0.86181307,0,1683807191.9813104
-0.26246867,0.43843353,0.00045496388,2.3881721,-0.74741364,-5.1804924,-2.6065009,9.404622,-0.9641731,0,1683807191.996934
-0.26246867,0.43843353,0.00045496388,2.414875,-0.65582275,-5.114403,-2.6065009,9.404622,-0.9641731,0,1683807192.0125597
-0.26246867,0.43843353,0.00045496388,2.414875,-0.65582275,-5.114403,-3.3395352,9.133128,-1.2664361,0,1683807192.0438085
-0.37278223,0.3808351,-0.016378699,2.414875,-0.65582275,-5.114403,-3.3395352,9.133128,-1.2664361,0,1683807192.059434
-0.40523633,0.37058324,-0.0390814,2.414875,-0.65582275,-5.114403,-3.3395352,9.133128,-1.2664361,0,1683807192.090687
-0.40523633,0.37058324,-0.0390814,2.3413086,-0.49173355,-4.872608,-4.9075875,8.269786,-1.9226568,0,1683807192.13756
-0.66394395,0.29175317,-0.23969014,2.3413086,-0.49173355,-4.872608,-4.9075875,8.269786,-1.9226568,0,1683807192.13756
-0.66394395,0.29175317,-0.23969014,2.3413086,-0.49173355,-4.872608,-5.498879,7.8281803,-2.156919,0,1683807192.1531827
-0.66394395,0.29175317,-0.23969014,2.3413086,-0.49173355,-4.872608,-5.856852,7.523173,-2.295552,0,1683807192.184434
-0.88945436,0.21682061,-0.27972695,2.3413086,-0.49173355,-4.872608,-5.856852,7.523173,-2.295552,0,1683807192.184434
-0.6092725,0.30713093,-0.22309911,2.2678757,-0.4320526,-4.8246765,-4.4838605,8.544584,-1.7479934,0,1683807192.2000587
-0.6092725,0.30713093,-0.22309911,2.0047188,-0.23284912,-4.6276093,-4.4838605,8.544584,-1.7479934,0,1683807192.215684
-0.81623554,0.25050312,-0.27654222,2.0047188,-0.23284912,-4.6276093,-4.4838605,8.544584,-1.7479934,0,1683807192.2313101
-0.9270344,0.20487024,-0.2787412,1.8459702,-0.14659882,-4.3143845,-6.0238924,7.369539,-2.360721,0,1683807192.2781842
-0.9270344,0.20487024,-0.2787412,1.8459702,-0.14659882,-4.3143845,-6.858876,6.458207,-2.723557,0,1683807192.293809
-1.2035463,0.13457832,-0.35318846,1.7308807,0.004673004,-3.7785912,-6.858876,6.458207,-2.723557,0,1683807192.293809
-1.2579751,0.14458752,-0.3841715,1.6510391,0.048332214,-3.4546852,-7.071198,6.176563,-2.8317146,0,1683807192.340684
-1.2579751,0.14458752,-0.3841715,1.4954948,0.13031006,-2.878437,-7.071198,6.176563,-2.8317146,0,1683807192.356309
-1.2579751,0.14458752,-0.3841715,1.4954948,0.13031006,-2.878437,-7.490966,5.5347476,-3.069591,0,1683807192.371935
-1.3182578,0.1360342,-0.45910403,0.91176987,0.0014686584,-1.8270111,-7.2560377,5.908315,-2.93464,0,1683807192.387559
-1.3182578,0.1360342,-0.45910403,1.3101768,0.069561005,-2.4629402,-7.2560377,5.908315,-2.93464,0,1683807192.4188106
-1.4344252,0.0940562,-0.59698844,0.61029434,0.028038025,-1.3081741,-7.818806,4.9548364,-3.2382474,0,1683807192.4344337
-1.5759797,-0.009903047,-0.60724026,0.61029434,0.028038025,-1.3081741,-7.818806,4.9548364,-3.2382474,0,1683807192.4500604
-1.5759797,-0.009903047,-0.60724026,0.61029434,0.028038025,-1.3081741,-7.85543,4.884905,-3.2558103,0,1683807192.4656835
-1.5637715,-0.037489023,-0.5808827,0.61029434,0.028038025,-1.3081741,-7.9350357,4.722385,-3.302223,0,1683807192.4969342
-1.5637715,-0.037489023,-0.5808827,0.33538818,0.1399231,-0.8001518,-7.9350357,4.722385,-3.302223,0,1683807192.5125597
-1.5342443,-0.016985318,-0.53670573,0.08611679,0.2113533,-0.23979187,-7.981639,4.606866,-3.352702,0,1683807192.5438097
-1.5342443,-0.016985318,-0.53670573,-0.0630188,-0.029506683,0.4793167,-7.972582,4.6021867,-3.380562,0,1683807192.559434
-1.5286331,-0.013315276,-0.5379341,0.020160675,0.18571854,0.011615753,-7.985689,4.5816517,-3.3775167,0,1683807192.57506
-1.5286331,-0.013315276,-0.5379341,-0.0630188,-0.029506683,0.4793167,-7.985689,4.5816517,-3.3775167,0,1683807192.5906842
-1.5286331,-0.013315276,-0.5379341,-0.0630188,-0.029506683,0.4793167,-7.972582,4.6021867,-3.380562,0,1683807192.6063092
-1.5286331,-0.013315276,-0.5379341,-0.10026932,-0.39907455,1.0544968,-7.972582,4.6021867,-3.380562,0,1683807192.6375582
-1.5649999,-0.017955907,-0.6211622,-0.23124695,-0.8965492,1.6073799,-7.899599,4.795306,-3.2820365,0,1683807192.6531837
-1.4595696,0.012541837,-0.49668407,-0.861969,-0.49066544,2.9347801,-7.584609,5.495065,-2.9066033,0,1683807192.6688092
-1.2523639,0.06038887,-0.38905478,-1.1196518,-0.100803375,3.2893944,-6.987628,6.3270836,-2.7039678,0,1683807192.6844342
-1.2523639,0.06038887,-0.38905478,-1.1196518,-0.100803375,3.2893944,-6.8610168,6.480108,-2.6655297,0,1683807192.700059
-1.1254442,0.040613107,-0.5660054,-1.1196518,-0.100803375,3.2893944,-6.8610168,6.480108,-2.6655297,0,1683807192.700059
-1.1254442,0.040613107,-0.5660054,-1.1196518,-0.100803375,3.2893944,-6.4391513,6.9584546,-2.507512,0,1683807192.7156842
0.73695046,0.37716505,0.66160846,-2.795391,3.0278397,6.6695786,2.6213691,9.37524,1.1847737,0,1683807192.7313087
0.915357,0.34935158,0.60572374,-2.7985954,3.8034248,6.043129,2.9006402,9.266458,1.3745706,0,1683807192.746934
0.915357,0.34935158,0.60572374,-2.7059364,3.4092903,5.410404,4.843168,7.9387493,3.1129353,0,1683807192.76256
1.776634,0.4525829,1.1382589,-2.8411865,2.2055244,3.4417343,5.6534185,6.587416,4.562366,0,1683807192.7781842
1.7397819,0.45892206,1.3066562,-2.8411865,2.2055244,3.4417343,5.6534185,6.587416,4.562366,0,1683807192.793809
1.7397819,0.45892206,1.3066562,-2.8411865,2.2055244,3.4417343,5.477393,7.019027,4.111182,0,1683807192.8250585
1.7397819,0.45892206,1.3066562,-2.6973915,1.7740059,2.678032,5.477393,7.019027,4.111182,0,1683807192.8406835
1.6336236,0.4411178,1.4113586,-0.5401993,-0.47691345,-0.029907227,5.7395153,6.400279,4.718557,0,1683807192.8563087
1.0454311,0.51847684,0.7846155,1.2175179,-0.9018898,-1.2133789,5.7388496,6.60353,4.4305058,0,1683807192.871934
0.48239818,0.6165822,0.13175754,2.529831,-1.4537048,-4.9876976,1.6764219,9.630805,0.77948195,0,1683807192.8875585
0.30814704,0.593652,0.16666843,2.529831,-1.4537048,-4.9876976,0.984427,9.749492,0.38561612,0,1683807192.9031837
0.21466713,0.5670518,0.11296753,2.5278282,-1.371727,-5.034561,0.00028075624,9.805996,-0.11328382,0,1683807192.9188085
0.025523473,0.42402634,0.09197853,2.6215553,-1.1299324,-5.506401,0.00028075624,9.805996,-0.11328382,0,1683807192.9344351
-0.16826081,0.3298185,-0.021504626,2.7046013,-0.87638855,-5.6321716,-2.6646261,9.349375,-1.2881637,0,1683807192.9813087
-0.30101925,0.29395217,-0.10400474,2.7046013,-0.87638855,-5.6321716,-3.2012262,9.145086,-1.5132575,0,1683807192.9969342
-0.6214655,0.1714304,-0.14939497,2.1144676,-0.116825104,-5.1890373,-5.1460233,8.037152,-2.2567708,0,1683807193.0125587
-0.6214655,0.1714304,-0.14939497,2.0132637,0.11548996,-4.9791527,-5.7422,7.5455213,-2.502525,0,1683807193.0281832
-0.88212943,0.07795048,-0.19137298,2.0132637,0.11548996,-4.9791527,-5.7422,7.5455213,-2.502525,0,1683807193.0281832
-1.0488131,0.03817147,-0.25579587,1.9546509,0.3252411,-4.4688606,-6.253502,7.0382404,-2.7435863,0,1683807193.0438085
-1.6721439,-0.08703459,-0.7322037,0.11068344,0.8269882,-0.7905388,-7.884346,4.5009484,-3.7079551,0,1683807193.059434
-1.6721439,-0.08703459,-0.7322037,0.11068344,0.8269882,-0.7905388,-7.8885665,4.3807383,-3.8405805,0,1683807193.0750585
-1.656766,-0.08409249,-0.80687845,-0.14286041,0.7482147,-0.264225,-7.8885665,4.3807383,-3.8405805,0,1683807193.0906973
-1.656766,-0.080194965,-0.8056652,-0.2706337,-0.32564163,0.6560898,-7.860743,4.412938,-3.8607116,0,1683807193.137558
-1.6711582,-0.080194965,-0.7878458,-0.3122902,-0.66329956,0.98213196,-7.872753,4.3689947,-3.8861332,0,1683807193.1531851
-1.6711582,-0.080194965,-0.7878458,-0.3122902,-0.66329956,0.98213196,-7.8526134,4.474813,-3.8056412,0,1683807193.1688085
-1.6240542,-0.05627903,-0.7087731,-0.3122902,-0.66329956,0.98213196,-7.837652,4.5664244,-3.7268445,0,1683807193.2000592
-1.6167445,-0.045299236,-0.6257876,-0.38999557,-0.8826637,1.3229942,-7.837652,4.5664244,-3.7268445,0,1683807193.215684
-1.6167445,-0.045299236,-0.6257876,-0.38999557,-0.8826637,1.3229942,-7.808117,4.688252,-3.6364799,0,1683807193.2313094
-1.6167445,-0.045299236,-0.6257876,-0.4911995,-0.894413,1.6691971,-7.808117,4.688252,-3.6364799,0,1683807193.2469344
-1.6167445,-0.045299236,-0.6257876,-0.5615616,-0.81884384,1.8555832,-7.808117,4.688252,-3.6364799,0,1683807193.262559
-1.5469378,-0.014543679,-0.5757568,-0.5615616,-0.81884384,1.8555832,-7.7843103,4.761457,-3.5921352,0,1683807193.2781842
-1.5469378,-0.014543679,-0.5757568,-0.94608307,-0.41830063,2.6151466,-7.6151786,5.1394506,-3.4300852,0,1683807193.2938092
-1.538157,-0.018441202,-0.5598937,-0.94608307,-0.41830063,2.6151466,-7.6151786,5.1394506,-3.4300852,0,1683807193.3094354
-1.1459478,-0.00868981,-0.5364631,-1.8706703,-0.31282425,4.9884987,-6.4994597,6.7600574,-2.8686283,0,1683807193.3250577
-0.93777156,0.073067196,-0.42200932,-1.8706703,-0.31282425,4.9884987,-6.1941147,7.097669,-2.7251482,0,1683807193.3406842
-0.93777156,0.073067196,-0.42200932,-1.8706703,-0.31282425,4.9884987,-5.855947,7.4324007,-2.5763724,0,1683807193.3563087
-0.846248,0.060631517,-0.40955848,-1.8706703,-0.31282425,4.9884987,-5.855947,7.4324007,-2.5763724,0,1683807193.3719335
-0.8040273,0.058432527,-0.36196926,-1.9527817,-0.23605347,5.071678,-5.4829836,7.762729,-2.4181232,0,1683807193.4031842
-0.5321409,0.11236091,-0.14768128,-2.260666,0.21562576,5.4572678,-4.636479,8.388607,-2.07478,0,1683807193.4344335
-0.3261636,0.18509448,-0.28459507,-2.260666,0.21562576,5.4572678,-4.636479,8.388607,-2.07478,0,1683807193.4656835
0.9658731,0.71934336,0.56594473,1.4028358,0.55114746,-2.8581429,3.9279408,8.783389,1.895719,0,1683807193.4813087
-1.1410645,0.0852754,-0.56306326,1.8694687,-0.14232635,-4.132271,-6.777709,6.3551173,-3.1377604,0,1683807193.4969337
-1.6735997,-0.14974378,-0.5699029,-0.56049347,-0.21268845,0.19693375,-8.28131,3.9452093,-3.467796,0,1683807193.512559
-1.6723865,-0.13143906,-0.50814915,-0.45181274,-0.13378143,-0.14286041,-8.22596,4.1904235,-3.3082201,0,1683807193.5281832
-1.5530343,-0.14120562,-0.5379341,-0.72444916,-0.3319168,0.922451,-8.268477,4.0193353,-3.4128594,0,1683807193.5438082
-1.5530343,-0.14120562,-0.5379341,-0.72444916,-0.3319168,0.922451,-3.3420389,9.2193165,-0.07326512,0,1683807193.559434
-0.23024206,0.049151264,0.08465361,-2.7654839,0.34873962,7.1318054,-3.3420389,9.2193165,-0.07326512,0,1683807193.559434
-0.15728101,0.0620874,0.12687425,-2.640915,0.022697449,6.9890785,-3.0102038,9.333079,0.051812693,0,1683807193.5750597
0.36792928,0.043297395,0.54227144,-3.3418655,1.6334152,7.205372,-0.9567203,9.71642,0.91992503,0,1683807193.5906835
0.5426809,0.35423487,1.0125676,-0.9407425,5.3181458,1.9088554,3.7596095,7.7336416,4.714499,0,1683807193.6063087
0.18489732,0.24878941,0.93446547,-0.7117653,5.4694176,2.3562622,3.7078993,7.6702423,4.8568773,0,1683807193.621934
0.18489732,0.24878941,0.93446547,-0.7117653,5.4694176,2.3562622,3.545163,7.4766426,5.263271,0,1683807193.637559
0.3996706,0.10967662,0.7182363,-0.46463013,4.1271973,3.4108925,2.2344263,6.0952945,7.350178,0,1683807193.653184
0.45555532,0.16313487,0.65623987,-0.46463013,4.1271973,3.4108925,2.2344263,6.0952945,7.350178,0,1683807193.668809
0.45555532,0.16313487,0.65623987,-0.9120369,3.8992882,3.120098,2.2344263,6.0952945,7.350178,0,1683807193.6844337
0.48556778,0.40132365,0.75801533,-0.9120369,3.8992882,3.120098,2.2344263,6.0952945,7.350178,0,1683807193.700059
0.48556778,0.40132365,0.75801533,-0.9120369,3.8992882,3.120098,2.009606,5.7402835,7.6929193,0,1683807193.7156844
0.48556778,0.40132365,0.75801533,-1.8238068,2.623024,2.8015327,2.009606,5.7402835,7.6929193,0,1683807193.7156844
0.45456958,0.40499368,1.1253228,-1.4542389,2.8148842,2.9581451,2.009606,5.7402835,7.6929193,0,1683807193.7313082
0.4653219,0.3066305,1.3686374,-1.9260788,3.073635,2.6992607,1.8342408,5.2229557,8.094855,0,1683807193.7469473
0.4653219,0.3066305,1.3686374,-1.7471695,3.786335,2.5725555,1.6842145,5.0171247,8.256044,0,1683807193.762572
0.46994734,0.32517785,1.178038,-1.7471695,3.786335,2.5725555,1.593897,4.918642,8.332877,0,1683807193.7781847
0.42308608,0.7603356,1.2558823,-1.404171,2.9927254,0.84568024,0.4583913,4.128709,8.883356,0,1683807193.7938225
0.3122872,0.8855417,1.4132998,-0.60201645,2.4770927,0.6134987,0.069106705,3.974312,8.964957,0,1683807193.8094475
0.2874007,1.0141599,1.1536216,-0.2717018,1.6952324,0.61136246,-0.5050249,3.9005878,8.983359,0,1683807193.8406973
0.2874007,1.0141599,1.1536216,0.105342865,0.5383301,-0.0064086914,-0.8301363,4.160491,8.841469,0,1683807193.856322
-0.09649784,0.52969927,0.938363,0.105342865,0.5383301,-0.0064086914,-0.8301363,4.160491,8.841469,0,1683807193.856322
-0.09649784,0.52969927,0.938363,0.1436615,0.519104,0.051002502,-0.8301363,4.160491,8.841469,0,1683807193.8719473
-0.09649784,0.52969927,0.938363,0.1436615,0.519104,0.051002502,-0.8504119,4.169263,8.835408,0,1683807193.9188223
-0.004003682,0.51090926,0.8622172,0.09252548,0.5265808,0.123500824,-1.0224588,4.174498,8.814677,0,1683807193.9500723
-0.004003682,0.51090926,0.8622172,0.09252548,0.5265808,0.123500824,-0.9094101,4.1919384,8.818788,0,1683807193.9656973
-0.06697068,0.4459859,1.0042721,0.17036438,0.9026909,0.079841614,-1.2237673,4.147094,8.801953,0,1683807193.9813335
-0.06697068,0.4459859,1.0042721,0.17036438,0.9026909,0.079841614,-1.3280548,4.174015,8.774068,0,1683807193.9969473
-0.024507387,0.4735719,0.8512374,0.18945694,0.8121681,0.0084114075,-1.3280548,4.174015,8.774068,0,1683807193.9969473
