acc_x,acc_y,acc_z,gyr_x,gyr_y,gyr_z,grav_x,grav_y,grav_z,label,timestamp
-1.7597548,-0.22858901,-0.61749214,-1.1846733,0.19212723,2.5811005,-8.287961,4.588776,-2.534408,0,1683807206.342888
-1.7597548,-0.22858901,-0.61749214,-1.1239243,-0.32030106,3.1083488,-8.287961,4.588776,-2.534408,0,1683807206.421353
-1.427343,-0.16732055,-0.5235269,-1.1857414,-0.9327316,3.8529587,-7.4621425,6.0359635,-2.0134456,0,1683807206.4369226
-1.598925,-0.17196117,-0.6440924,-1.1069679,-0.52591324,3.2893944,-7.4621425,6.0359635,-2.0134456,0,1683807206.4527097
-1.1559571,-0.15634075,-0.42859113,-1.8728065,-0.44914246,5.231495,-6.855274,6.7973747,-1.7237461,0,1683807206.4678884
-0.7954892,-0.09874233,-0.37002212,-1.8728065,-0.44914246,5.231495,-6.855274,6.7973747,-1.7237461,0,1683807206.4991393
-0.7191007,-0.09874233,-0.33438328,-2.6248932,0.24219513,6.2626266,-4.750794,8.532575,-0.89191484,0,1683807206.51505
-0.7191007,-0.09874233,-0.33438328,-3.458023,0.8175087,7.115917,-1.6001419,9.66478,0.4494185,0,1683807206.5307083
-0.11506037,0.011813895,-0.1020484,-3.458023,0.8175087,7.115917,-1.6001419,9.66478,0.4494185,0,1683807206.5307083
0.7313393,0.03572983,0.8417287,-4.809723,3.3154297,7.1403503,1.7381718,9.291253,2.6118515,0,1683807206.5463529
1.2201828,0.20803982,1.1484957,-4.6627235,3.7416077,6.5917397,3.18466,8.278134,4.183397,0,1683807206.5772636
1.2201828,0.20803982,1.1484957,-4.379406,3.7341309,5.8323097,3.18466,8.278134,4.183397,0,1683807206.5928867
1.2201828,0.20803982,1.1484957,-4.379406,3.7341309,5.8323097,3.353231,8.080579,4.430628,0,1683807206.608512
1.2650877,0.23024206,1.1741253,-4.379406,3.7341309,5.8323097,3.353231,8.080579,4.430628,0,1683807206.608512
1.5042622,0.33373117,1.2051234,-3.8659096,2.9745674,4.8010445,3.755564,7.486832,5.100342,0,1683807206.624139
1.7927396,0.4762562,1.3959808,-2.6473236,1.2253952,2.8952599,4.258352,6.5855317,5.887919,0,1683807206.6553752
1.7927396,0.4762562,1.3959808,-2.6473236,1.2253952,2.8952599,4.312442,6.494438,5.9494123,0,1683807206.6709998
1.7592998,0.4625921,1.4362451,-2.0007133,0.4616928,1.8694687,4.312442,6.494438,5.9494123,0,1683807206.6709998
1.7592998,0.4625921,1.4362451,0.6443405,-0.71870804,-1.0109711,4.5004144,6.3481727,5.9680276,0,1683807206.686625
1.227265,0.25952655,1.5687761,0.6443405,-0.71870804,-1.0109711,4.5004144,6.3481727,5.9680276,0,1683807206.686625
1.227265,0.25952655,1.5687761,0.6443405,-0.71870804,-1.0109711,4.488389,6.387047,5.9355183,0,1683807206.70225
1.1755205,0.26271132,1.513862,0.6443405,-0.71870804,-1.0109711,4.488389,6.387047,5.9355183,0,1683807206.70225
1.1755205,0.26271132,1.513862,0.829792,-0.5727768,-1.0834694,4.488389,6.387047,5.9355183,0,1683807206.7178752
0.9326911,0.37765035,1.2453878,1.1781311,-0.004940033,-1.1878777,4.488389,6.387047,5.9355183,0,1683807206.7335005
0.9002218,0.57167727,0.8900458,1.7884254,0.4754448,-1.8099213,3.774737,7.1749115,5.5174623,0,1683807206.749126
0.6676443,0.53946584,0.7623981,2.929306,-0.34152985,-3.1948662,2.8971736,8.18425,4.5601335,0,1683807206.8116252
0.45115733,0.610971,0.45928603,3.28619,-0.51843643,-3.624115,2.0826151,8.821946,3.7425067,0,1683807206.8272505
0.46994734,0.61585426,0.4104684,3.3032799,-0.6376648,-3.675251,1.9349688,8.918064,3.5908809,0,1683807206.8428748
0.5177944,0.6597886,0.44318032,3.3683014,-1.0713196,-3.9863396,1.9349688,8.918064,3.5908809,0,1683807206.8585007
0.50754255,0.6497794,0.4541601,3.3683014,-1.0713196,-3.9863396,0.13037345,9.613079,1.9344493,0,1683807206.9053752
0.3708714,0.55068827,0.3291967,3.3683014,-1.0713196,-3.9863396,0.7562156,9.46472,2.453082,0,1683807206.9210002
0.15194277,0.46160635,0.13859716,3.6920738,-1.6614532,-5.267811,-1.0403965,9.692049,1.0733798,0,1683807206.9366252
0.11557599,0.44697168,0.12737472,3.7145042,-1.8159294,-5.4477882,-1.5409908,9.656475,0.74042,0,1683807206.9522498
-0.25978437,0.27320582,0.0028966034,3.703823,-1.8563843,-5.617218,-2.3307018,9.521972,0.26508078,0,1683807206.967875
-0.526287,0.19706002,-0.089840196,3.1051445,-1.0872078,-5.5425835,-3.6689413,9.083645,-0.4434604,0,1683807206.9835002
-0.39597023,0.2444066,-0.076418765,3.1051445,-1.0872078,-5.5425835,-3.1376195,9.289503,-0.17566667,0,1683807206.999125
-0.74130297,0.16826081,-0.19894053,2.6960564,-0.46836853,-5.228424,-4.8972106,8.436574,-1.0059503,0,1683807207.0147502
-0.8067116,0.14116013,-0.2694751,2.200718,0.5532837,-4.7394943,-5.9093666,7.676386,-1.5240941,0,1683807207.0303779
-1.0820103,0.036958233,-0.36953682,1.9760132,0.80575943,-4.2227936,-7.1004753,6.3588185,-2.3063087,0,1683807207.061625
-1.6186856,-0.14193356,-0.70536083,2.1155357,-0.061416626,-3.0797768,-7.7220683,5.3798814,-2.756253,0,1683807207.07725
-1.7133788,-0.17171854,-0.7710121,2.1155357,-0.061416626,-3.0797768,-7.8089004,5.2266893,-2.8059182,0,1683807207.0928752
-2.047747,-0.24687856,-0.89474714,1.7926979,-0.7144356,-2.1678734,-8.035282,4.8200293,-2.8934317,0,1683807207.1241386
-2.047747,-0.24687856,-0.89474714,1.7926979,-0.7144356,-2.1678734,-8.153234,4.606535,-2.911186,0,1683807207.1397543
-1.9337633,-0.20392998,-0.8820536,1.4411545,-0.79214096,-1.6043091,-8.199951,4.521695,-2.912981,0,1683807207.1553752
-1.9337633,-0.20392998,-0.8820536,0.5208397,-0.22016525,-0.37504196,-8.282485,4.3631306,-2.9212885,0,1683807207.1710002
-1.869583,-0.24713637,-0.82421255,-0.8001518,0.5276489,1.3591766,-8.175497,4.495753,-3.0199094,0,1683807207.1866286
-1.869583,-0.24713637,-0.82421255,-0.95142365,0.17930984,1.8885612,-8.175497,4.495753,-3.0199094,0,1683807207.20225
-1.7114376,-0.18197039,-0.7314758,-0.9854698,-0.34152985,2.4531937,-8.05968,4.7104783,-3.0038872,0,1683807207.217875
-1.5557187,-0.09117476,-0.6199338,-0.9982872,-0.5248451,2.7397156,-7.758195,5.29878,-2.8113582,0,1683807207.2335
-1.496179,-0.06505983,-0.6253024,-1.0845375,-0.7868004,3.2564163,-7.4709926,5.7990336,-2.5934255,0,1683807207.2491274
-1.2084296,-0.05310945,-0.50840694,-1.7003059,-0.65475464,4.609318,-6.643697,6.9016542,-2.0973403,0,1683807207.2803893
-0.9338589,-0.046997767,-0.37783232,-1.7003059,-0.65475464,4.609318,-6.7941656,6.728902,-2.1752195,0,1683807207.2960138
-0.45282555,0.09748359,-0.2882651,-2.3405075,-0.24993896,5.8939934,-4.8054214,8.452666,-1.2770028,0,1683807207.3119228
0.84946305,0.14921299,0.2110729,-3.2427979,1.8666649,6.851692,-2.6860342,9.422743,-0.40930957,0,1683807207.4210136
0.84946305,0.14921299,0.2110729,-0.514698,-0.2807808,0.92565536,4.0302963,8.567356,2.554899,0,1683807207.4835134
1.711468,0.81841934,0.46806684,-0.514698,-0.2807808,0.92565536,4.0302963,8.567356,2.554899,0,1683807207.4835134
1.7300153,0.8686929,0.5818078,-0.46770096,-0.76877594,0.3280449,4.2358346,8.450292,2.611641,0,1683807207.4991388
1.6707183,0.8657659,0.78657186,-0.3559494,-0.996685,-0.25888443,4.27489,8.430771,2.6110919,0,1683807207.5147636
1.2899894,0.7176297,0.9224999,0.47397614,-0.72725296,-1.1005592,4.1810317,8.509173,2.5066552,0,1683807207.5460136
0.9690427,0.7395893,0.71286774,0.68159103,0.073833466,-1.0141754,4.0390673,8.60841,2.3982513,0,1683807207.5616384
0.9690427,0.7395893,0.71286774,0.68159103,0.3401947,-0.97372055,3.998826,8.632001,2.380827,0,1683807207.5772636
1.0176177,0.85601455,0.42658928,0.66783905,1.3734627,-1.0131073,3.7618105,8.745446,2.3529437,0,1683807207.6710134
0.97588235,0.83720934,0.49638075,0.66890717,1.0655785,-0.91617584,3.6398125,8.797989,2.348946,0,1683807207.7022636
0.68789023,0.7945034,0.3724031,1.3144493,0.57985306,-2.5140762,2.3920975,9.317723,1.904811,0,1683807207.7178886
0.9492821,0.8474612,0.48295933,1.1024284,0.6331253,-2.2637367,3.4129522,8.897572,2.314166,0,1683807207.7335134
0.42479977,0.7254399,0.046345655,1.9163322,0.5393982,-3.44841,1.1672031,9.653572,1.271444,0,1683807207.7491384
-0.35252118,0.4635627,-0.22090013,2.3147392,-0.66970825,-4.8939705,-3.6060708,9.064578,-1.000037,0,1683807207.8116386
-0.54386383,0.3161544,-0.17746624,1.811924,-0.26916504,-4.6190643,-4.716578,8.4815645,-1.409733,0,1683807207.858512
-0.73446333,0.28345767,-0.26067913,1.5211296,0.29333115,-4.439087,-6.237477,7.31407,-1.941303,0,1683807207.8741386
-0.8381951,0.20999616,-0.31730697,1.2526321,0.88666916,-4.335747,-6.5455484,6.9994273,-2.0818715,0,1683807207.8897636
-1.0131894,0.09649784,-0.37246376,1.1248589,1.1689186,-4.133339,-7.0808973,6.349646,-2.390242,0,1683807207.9053886
-1.436139,-0.053837392,-0.48399058,1.3176537,0.834465,-3.2693672,-7.4106655,5.8607783,-2.6274884,0,1683807207.9522634
-1.4588265,-0.0621329,-0.5323229,1.362381,0.6831932,-3.0701637,-7.7576175,5.245374,-2.9113257,0,1683807207.9835136
-1.7773316,-0.15242806,-0.8124896,1.2366104,0.13885498,-2.3244858,-8.071427,4.6008034,-3.1392756,0,1683807207.9991395
-1.8766654,-0.18903749,-0.84471625,-0.10667801,0.06542206,0.4654312,-8.286133,4.090049,-3.2835789,0,1683807208.0147638
-1.7790301,-0.17928609,-0.839105,-0.44006348,-0.16582489,1.0715866,-8.230553,4.2302113,-3.2455683,0,1683807208.0303895
-1.7287565,-0.16122404,-0.8120044,-0.54553986,-0.23284912,1.2622452,-8.20874,4.289327,-3.2231429,0,1683807208.0460134
-1.7287565,-0.16122404,-0.8120044,-0.54553986,-0.23284912,1.2622452,-7.864927,5.1252255,-2.8364365,0,1683807208.0928888
-1.4627392,-0.06116231,-0.6223754,-1.3147163,-0.66329956,2.7728271,-7.864927,5.1252255,-2.8364365,0,1683807208.0928888
-1.2906718,-0.01771326,-0.57185924,-1.6513062,-0.7516861,3.4492111,-7.577922,5.665824,-2.5775843,0,1683807208.1085136
-1.1830425,0.01229919,-0.5252406,-1.7822838,-0.7964134,3.7326622,-7.394741,5.967824,-2.423484,0,1683807208.1241388
-0.9943842,0.03817147,-0.41932502,-2.1199417,-0.579052,4.2194557,-6.9377995,6.608878,-2.0880723,0,1683807208.1866386
-0.47040233,0.22267449,-0.016863994,-2.396984,-0.64727783,5.1696777,-5.021979,8.36942,-0.950217,0,1683807208.2178886
-0.04769538,0.34422567,0.17153655,-2.0880318,0.10908127,5.4945183,-2.8859618,9.372344,-0.027597548,0,1683807208.2335134
0.03723121,0.40376526,0.1822737,-2.0933723,0.3604889,5.5137444,-2.3638937,9.516025,0.16639711,0,1683807208.2491384
0.09020417,0.4140171,0.1620278,-2.108326,0.49146652,5.519085,-2.0985777,9.5758505,0.26353174,0,1683807208.2647636
0.20417263,0.42818168,0.19326866,-2.2893715,0.8952141,5.532837,-1.0280898,9.729319,0.67362934,0,1683807208.2960138
0.7127919,0.50725436,0.42804518,-2.2893715,0.8952141,5.532837,0.059119344,9.73893,1.1489731,0,1683807208.3272636
0.7127919,0.50725436,0.42804518,-2.6120758,1.5589142,5.5648804,0.059119344,9.73893,1.1489731,0,1683807208.342887
0.5287742,0.4603931,0.34800187,-2.5045967,1.1870766,5.610676,1.3562559,9.532789,1.8592695,0,1683807208.3585134
0.5287742,0.4603931,0.34800187,-2.9646873,2.4111366,5.179291,1.5893631,9.46324,2.0227227,0,1683807208.3741386
1.2643598,0.673938,0.66649175,-2.9646873,2.4111366,5.179291,1.5893631,9.46324,2.0227227,0,1683807208.3897636
1.2643598,0.673938,0.66649175,-2.9242325,2.2162056,4.6764755,2.22494,9.212533,2.5197747,0,1683807208.4053893
1.2672867,0.7796261,1.0667386,0.1862526,-0.7538223,-0.5327225,3.5906014,8.385748,3.5996118,0,1683807208.4210136
1.1213343,0.7481426,0.99646187,0.38972855,-0.22871017,-0.8981514,3.5370374,8.427533,3.5547774,0,1683807208.4366384
1.0246999,0.72471195,0.93031013,0.48345566,0.094127655,-1.0578346,3.4641378,8.469067,3.5277526,0,1683807208.4522636
0.86728245,0.7481426,0.8248798,0.7348633,0.6671715,-1.3241959,3.1941056,8.601974,3.4603655,0,1683807208.4835136
0.8086983,0.81793404,0.5891175,1.1471558,0.44567108,-1.8366241,2.8223524,8.788698,3.3111174,0,1683807208.4991388
0.7996748,0.8154924,0.5542218,1.5264702,-0.34793854,-2.4085999,2.4606194,8.98097,3.0753725,0,1683807208.5147636
0.7996748,0.8154924,0.5542218,1.5264702,-0.34793854,-2.4085999,2.3600252,9.034198,2.9973226,0,1683807208.5303886
0.7996748,0.8154924,0.5542218,1.9696045,-0.8231163,-3.012619,1.7568629,9.31077,2.5285149,0,1683807208.5616398
0.49630493,0.74178827,0.42463294,2.1155357,-0.1455307,-3.656025,1.1339656,9.504172,2.1342986,0,1683807208.5772636
0.43553692,0.7142175,0.37435943,2.1155357,-0.1455307,-3.656025,1.1339656,9.504172,2.1342986,0,1683807208.5928886
0.3061907,0.69127214,0.26281747,2.1857643,0.12283325,-3.8350677,0.052620463,9.688603,1.5161103,0,1683807208.6085136
0.24762167,0.7169017,0.1895986,2.1857643,0.12283325,-3.8350677,0.052620463,9.688603,1.5161103,0,1683807208.6241386
0.24762167,0.7169017,0.1895986,2.3924446,-0.14873505,-3.9863396,-0.13702005,9.705149,1.40061,0,1683807208.6397636
0.10508149,0.6851756,0.061723433,2.5725555,-0.61964035,-4.146023,-0.13702005,9.705149,1.40061,0,1683807208.6553884
0.10508149,0.6851756,0.061723433,2.600193,-0.9806633,-4.318657,-1.93919,9.607617,0.32190508,0,1683807208.6710134
0.10508149,0.6851756,0.061723433,2.2753525,-0.59293747,-4.5860863,-3.0074732,9.332301,-0.18340512,0,1683807208.6866388
-0.108463384,0.5963363,0.060980324,2.2753525,-0.59293747,-4.5860863,-3.0074732,9.332301,-0.18340512,0,1683807208.6866388
-0.31518382,0.47991106,-0.03322753,2.0505142,-0.21909714,-4.074726,-6.949351,6.5767417,-2.1502035,0,1683807208.7960117
-0.93508726,0.25391534,-0.39076847,1.3549042,0.8312607,-3.3044815,-7.2514005,6.1594114,-2.3768106,0,1683807208.811637
-1.0978733,0.16313487,-0.4400714,1.6531754,0.26569366,-3.0851173,-7.6959476,5.4429097,-2.7050886,0,1683807208.8272636
-1.5383997,-0.02259654,-0.61040986,1.709652,-0.5503464,-2.6078033,-8.095438,4.722136,-2.8871617,0,1683807208.8585136
-1.6899482,-0.092403166,-0.66972196,1.4785385,-0.7101631,-2.0433044,-8.2905,4.3501596,-2.9178956,0,1683807208.8741386
-1.8322457,-0.14925848,-0.70461774,0.39186478,-0.08371353,-0.5273819,-8.5018015,3.911049,-2.9314578,0,1683807208.8897636
-1.8322457,-0.14925848,-0.70461774,0.39186478,-0.08371353,-0.5273819,-8.509226,3.8875177,-2.941201,0,1683807208.9835136
-1.2979968,0.06868438,-0.4037046,-1.1101723,-0.72084427,2.4777603,-8.016523,5.0712266,-2.487649,0,1683807208.9991395
-1.2979968,0.06868438,-0.4037046,-1.1101723,-0.72084427,2.4777603,-7.9611907,5.1823177,-2.4358566,0,1683807209.0303893
-1.2872596,0.05574824,-0.5318376,-1.7045784,-0.082645416,3.3246422,-7.578374,5.820274,-2.2052305,0,1683807209.0460134
-0.88310003,0.14311647,-0.31827757,-1.7822838,-0.17436981,3.474846,-7.1643095,6.4112,-1.9337958,0,1683807209.0616279
-0.8176914,0.15995014,-0.2372485,-2.0326233,-0.9380722,4.2609787,-6.3654237,7.335873,-1.3552638,0,1683807209.0928886
-0.8176914,0.15995014,-0.2372485,-2.0326233,-0.9380722,4.2609787,-5.6850815,7.9344354,-0.94602996,0,1683807209.1085138
-0.70737785,0.17435732,-0.18087848,-2.3075294,-0.43418884,4.822407,-5.6850815,7.9344354,-0.94602996,0,1683807209.1085138
-0.46699008,0.19094834,-0.13377455,-2.6313019,-0.37984848,5.3614044,-4.877332,8.491835,-0.520356,0,1683807209.1397645
-0.46699008,0.19094834,-0.13377455,-2.5568008,-0.2734375,5.194111,-4.4285054,8.745222,-0.28252092,0,1683807209.1556125
-0.4088912,0.20168549,-0.0893549,-2.5568008,-0.2734375,5.194111,-4.4285054,8.745222,-0.28252092,0,1683807209.2335134
0.08824783,0.35397705,0.46489725,-2.8007317,0.6406021,5.775833,-1.8452574,9.576832,1.0245516,0,1683807209.2491386
0.23736982,0.34055564,0.5630178,-2.809143,1.412983,5.8109474,-0.7513041,9.652365,1.5613465,0,1683807209.2647867
0.28617227,0.35007954,0.56106144,-2.8166199,0.8515549,5.7831764,0.32079533,9.575056,2.094224,0,1683807209.2806795
0.47483063,0.4027947,0.45220375,-2.6195526,1.7069817,5.6096077,0.32079533,9.575056,2.094224,0,1683807209.2962322
0.049439408,0.35129276,0.41365317,-2.7367783,-0.23925781,5.629902,-3.194424,9.264503,0.36749458,0,1683807209.3119285
0.7457313,0.44941333,0.45952868,-2.613144,1.621666,5.503063,1.777495,9.199368,2.895259,0,1683807209.3272636
1.333666,0.7395893,0.67234564,-0.5934715,-0.2818489,0.8351326,3.7655342,8.102027,4.043304,0,1683807209.3428884
1.3641789,0.71665907,0.84417033,-0.4698372,-0.54927826,0.23965836,3.8753443,8.028164,4.086647,0,1683807209.3741386
1.335137,0.73276484,1.064297,-0.09706497,-0.6515503,-0.40481567,3.8753443,8.028164,4.086647,0,1683807209.389764
1.358325,0.7076205,0.9771714,-0.30801773,-0.66970825,-0.09813309,3.9378183,7.994332,4.0932417,0,1683807209.4053886
1.2389728,0.7437446,1.1299483,0.13511658,-0.52057266,-0.70949554,3.804869,8.097285,4.015885,0,1683807209.436639
1.2389728,0.7437446,1.1299483,0.7519531,0.2614212,-1.437149,3.697925,8.166462,3.9755032,0,1683807209.4522634
1.0515429,0.7442299,0.9483722,0.7519531,0.2614212,-1.437149,3.697925,8.166462,3.9755032,0,1683807209.4522634
1.0515429,0.7442299,0.9483722,0.7519531,0.2614212,-1.437149,3.5631785,8.249409,3.9270098,0,1683807209.4835155
0.97051376,0.7330075,0.8470972,0.7519531,0.2614212,-1.437149,3.5631785,8.249409,3.9270098,0,1683807209.4835155
0.9095031,0.7188429,0.68919444,0.89574814,0.40521622,-1.6714668,3.3226414,8.395464,3.8270931,0,1683807209.4991395
0.91243005,0.7268958,0.7453218,1.0343361,0.3977394,-1.8963051,3.4067469,8.344087,3.8653185,0,1683807209.5147622
0.95660704,0.7871785,0.6252417,1.3506317,-0.11362076,-2.4064636,2.8513687,8.68879,3.5418918,0,1683807209.5303771
0.95660704,0.7871785,0.6252417,1.8598557,-0.74207306,-3.3429337,2.369873,8.957059,3.2132826,0,1683807209.5460143
0.7542846,0.7525254,0.6989458,1.9332886,-0.7570267,-3.4600258,2.2323525,9.024456,3.1218872,0,1683807209.5616388
0.7542846,0.7525254,0.6989458,2.373352,-0.3032112,-3.9010239,1.7785344,9.218923,2.8317256,0,1683807209.577252
0.058478024,0.587783,0.026084596,2.8250313,-1.0786629,-4.4880867,-1.326219,9.683868,0.7963774,0,1683807209.5928745
-0.20462759,0.51530725,0.058781333,2.4702835,-0.4309845,-4.698906,-3.5208855,9.146254,-0.34611732,0,1683807209.6397502
-0.3376287,0.44061735,-0.088141665,2.5118065,-0.1455307,-4.870472,-3.9617796,8.95249,-0.5723815,0,1683807209.6710005
-0.3376287,0.44061735,-0.088141665,2.5118065,-0.1455307,-4.870472,-4.8223133,8.480116,-1.001657,0,1683807209.6866252
-0.4420884,0.33738604,-0.18673234,2.5118065,-0.1455307,-4.870472,-4.8223133,8.480116,-1.001657,0,1683807209.6866252
-0.677608,0.18606506,-0.25750956,2.335968,0.06849289,-4.962063,-5.642981,7.8979373,-1.3963268,0,1683807209.7022512
-0.677608,0.18606506,-0.25750956,2.335968,0.06849289,-4.962063,-5.8400626,7.735568,-1.4916555,0,1683807209.7178762
-0.677608,0.18606506,-0.25750956,2.335968,0.06849289,-4.962063,-7.3202353,6.099736,-2.318999,0,1683807209.7335005
-1.3075206,0.0042463294,-0.37880293,2.1857643,0.5244446,-4.236679,-7.3202353,6.099736,-2.318999,0,1683807209.7335005
-1.6130744,-0.049682055,-0.67069256,2.191105,-0.15834808,-3.513298,-7.773671,5.381853,-2.6030893,0,1683807209.7491255
-1.6599357,-0.057734914,-0.6846145,2.0228767,-0.7645035,-2.8944588,-8.052257,4.900131,-2.7055995,0,1683807209.76475
-1.7072823,-0.06798677,-0.7378149,2.0228767,-0.7645035,-2.8944588,-8.052257,4.900131,-2.7055995,0,1683807209.7803752
-1.7072823,-0.06798677,-0.7378149,1.6287422,-0.9572983,-2.1774864,-8.27417,4.5021653,-2.7274537,0,1683807209.7959998
-1.7072823,-0.06798677,-0.7378149,1.210041,-0.77518463,-1.7003059,-8.384899,4.295158,-2.723135,0,1683807209.8272507
-1.7150925,-0.08532089,-0.73928595,0.7200432,-0.3660965,-1.2315369,-8.384899,4.295158,-2.723135,0,1683807209.8428755
-1.5462099,-0.0604192,-0.6377532,-1.0334015,0.40842056,0.84674835,-8.405135,4.132185,-2.9067383,0,1683807209.8585002
-1.4659088,0.007415911,-0.3841715,-0.94608307,-1.0105705,2.1549225,-8.173556,4.8130684,-2.4895244,0,1683807209.9053752
-1.4002575,0.015726585,-0.37831762,-1.1356735,-0.77518463,2.84626,-7.9754405,5.246988,-2.243179,0,1683807209.921001
-1.4002575,0.015726585,-0.37831762,-1.2197876,-0.6877327,3.0199623,-7.9754405,5.246988,-2.243179,0,1683807209.9991252
-1.3743852,0.025477977,-0.43908563,-1.2197876,-0.6877327,3.0199623,-7.6621575,5.783522,-2.0031495,0,1683807210.0147512
-1.2191666,0.029633313,-0.39565176,-1.673603,-0.6451416,3.8433456,-7.4620657,6.0841427,-1.8631107,0,1683807210.045999
-1.2191666,0.029633313,-0.39565176,-1.673603,-0.6451416,3.8433456,-7.349866,6.2412963,-1.7877586,0,1683807210.0616276
-1.2191666,0.029633313,-0.39565176,-1.987896,-0.4320526,4.450569,-7.349866,6.2412963,-1.7877586,0,1683807210.0616276
-1.1791451,0.025720624,-0.350489,-1.987896,-0.4320526,4.450569,-6.9616942,6.72998,-1.5532475,0,1683807210.0772505
-1.0363622,0.035972476,-0.27801326,-2.1466446,-0.2584839,4.6945,-6.9616942,6.72998,-1.5532475,0,1683807210.0928752
-0.91898155,0.07381031,-0.21357521,-2.1466446,-0.2584839,4.6945,-6.656787,7.065806,-1.3899543,0,1683807210.1085007
-0.91898155,0.07381031,-0.21357521,-2.2861671,-0.041122437,4.896908,-6.3188586,7.398988,-1.2236823,0,1683807210.1241295
-0.7366623,0.08991603,-0.15597679,-2.3895073,0.10908127,5.092907,-5.9481225,7.7254004,-1.0528132,0,1683807210.1397512
-0.7366623,0.08991603,-0.15597679,-2.4256897,0.13458252,5.183563,-5.751418,7.8843303,-0.96380234,0,1683807210.1553798
-0.27149212,0.24537718,0.16812432,-2.4128723,-0.010280609,5.3933144,-4.1852775,8.864891,-0.25988752,0,1683807210.1710002
-0.21145204,0.28808314,0.1813031,-2.1156693,-0.07209778,5.6489944,-3.68616,9.0873375,-0.053956013,0,1683807210.186627
-0.0847901,0.32567832,0.15518817,-2.1700096,0.45848846,5.643654,-3.4289205,9.187532,0.046314552,0,1683807210.2022517
-0.030603902,0.35007954,0.14420839,-2.1700096,0.45848846,5.643654,-2.6419582,9.437995,0.33865607,0,1683807210.2335055
-0.030603902,0.35007954,0.14420839,-2.1700096,0.45848846,5.643654,-2.1072497,9.562431,0.53832746,0,1683807210.2803752
0.17830034,0.4101196,0.18423004,-2.7207565,1.53862,5.685177,-2.1072497,9.562431,0.53832746,0,1683807210.2960005
0.17830034,0.4101196,0.18423004,-2.8379822,1.6738701,5.671425,-2.1072497,9.562431,0.53832746,0,1683807210.311626
0.17830034,0.4101196,0.18423004,-3.1202316,1.9263458,5.578766,0.031065404,9.681019,1.5643859,0,1683807210.3272512
0.36744398,0.46063575,0.32382813,-3.17564,1.9445038,5.5169487,-1.5666046,9.651334,0.7535867,0,1683807210.3428762
0.13755074,0.39498448,0.16471209,-3.17564,1.9445038,5.5169487,-1.5666046,9.651334,0.7535867,0,1683807210.3585052
0.13755074,0.39498448,0.16471209,-3.17564,1.9445038,5.5169487,1.0148246,9.500329,2.2100391,0,1683807210.37413
0.5309732,0.48333845,0.50346303,-3.1767082,1.7996407,5.2623367,1.0148246,9.500329,2.2100391,0,1683807210.37413
0.8199359,0.51970524,0.6318387,-3.0564117,1.6749382,5.0577927,1.469824,9.359375,2.5322137,0,1683807210.4053795
0.8199359,0.51970524,0.6318387,-2.971096,1.6143227,4.939499,1.6876935,9.278638,2.6886702,0,1683807210.421002
1.0698476,0.6200096,0.69821787,-2.971096,1.6143227,4.939499,2.285228,9.00931,3.1273737,0,1683807210.4366274
1.0698476,0.6200096,0.69821787,-2.6803017,1.3500977,4.4037056,2.285228,9.00931,3.1273737,0,1683807210.4522557
1.0698476,0.6200096,0.69821787,-2.4672127,1.0869408,3.9627075,2.285228,9.00931,3.1273737,0,1683807210.4991255
1.5699135,0.68810254,1.0374541,-1.7790794,0.5671692,1.9493103,3.5995402,8.088786,4.2172527,0,1683807210.5147507
1.5633317,0.68638885,1.1741253,-1.1058998,0.25287628,0.8574295,3.8139727,7.8420906,4.486158,0,1683807210.5459995
1.4918265,0.6690547,1.2029245,-0.65315247,-0.025234222,0.33765793,3.8699431,7.772953,4.557974,0,1683807210.5772502
1.4918265,0.6690547,1.2029245,-0.21108627,-0.2670288,-0.13751984,3.8986104,7.7428675,4.5846725,0,1683807210.5928755
1.2458124,0.6656425,1.152651,-0.21108627,-0.2670288,-0.13751984,3.8986104,7.7428675,4.5846725,0,1683807210.6085007
1.2458124,0.6656425,1.152651,-0.21108627,-0.2670288,-0.13751984,3.840407,7.8119726,4.5160537,0,1683807210.6241262
0.9631888,0.65734696,0.9515569,0.96183777,-0.18705368,-1.3518333,3.7272632,7.9231887,4.415991,0,1683807210.6710029
0.9631888,0.65734696,0.9515569,0.96183777,-0.18705368,-1.3518333,3.6260283,8.014526,4.334706,0,1683807210.6866243
0.8184648,0.72788155,0.7211632,1.5711975,0.24860382,-2.2776222,3.0349545,8.452271,3.9393592,0,1683807210.7022483
0.6927735,0.71714437,0.64990073,2.1240807,0.08558273,-2.8390503,2.6240885,8.707052,3.670394,0,1683807210.7335026
0.6927735,0.71714437,0.64990073,1.4954948,0.24433136,-2.174282,2.6240885,8.707052,3.670394,0,1683807210.7491257
0.107037835,0.6878599,0.02071602,2.887783,-0.579052,-4.421997,-1.3302019,9.68997,0.7109436,0,1683807210.764751
0.04822617,0.637829,-0.017607102,2.887783,-0.579052,-4.421997,-1.3302019,9.68997,0.7109436,0,1683807210.7803755
0.04822617,0.637829,-0.017607102,2.8984642,-0.71123123,-4.5796776,-1.7603061,9.637292,0.4408201,0,1683807210.796002
-0.08551804,0.55240196,-0.005156257,2.7961922,-0.7016182,-4.831085,-1.7603061,9.637292,0.4408201,0,1683807210.8116255
-0.16727506,0.4867507,0.033166867,2.7961922,-0.7016182,-4.831085,-1.7603061,9.637292,0.4408201,0,1683807210.8272507
-0.25514373,0.45795146,0.051956873,2.6875114,-0.2584839,-4.982357,-3.5742664,9.115917,-0.54319996,0,1683807210.842874
-0.25514373,0.45795146,0.051956873,2.6875114,-0.2584839,-4.982357,-3.1154923,9.293478,-0.3087879,0,1683807210.874521
-0.25514373,0.45795146,0.051956873,2.6875114,-0.2584839,-4.982357,-1.9808046,9.5995655,0.3084495,0,1683807210.8901463
-0.32030973,0.4027947,0.022915013,2.8952599,-0.11041641,-5.0707436,-4.253749,8.789578,-0.9051607,0,1683807210.937021
-0.32030973,0.4027947,0.022915013,2.8952599,-0.11041641,-5.0707436,-4.47733,8.663986,-1.0292009,0,1683807210.952645
-0.34154138,0.35496283,-0.048605308,2.8952599,-0.11041641,-5.0707436,-4.47733,8.663986,-1.0292009,0,1683807210.9682708
-0.45942253,0.24025126,-0.2650771,2.9932594,-0.061416626,-5.166607,-5.345924,8.078772,-1.5247695,0,1683807210.9838965
-0.45942253,0.24025126,-0.2650771,2.9932594,-0.061416626,-5.166607,-5.556262,7.911582,-1.6447493,0,1683807211.0151472
-0.4989589,0.21853432,-0.31121045,2.9932594,-0.061416626,-5.166607,-5.556262,7.911582,-1.6447493,0,1683807211.0307713
-0.4989589,0.21853432,-0.31121045,2.9431915,-0.023097992,-5.185833,-5.556262,7.911582,-1.6447493,0,1683807211.0463998
-0.4989589,0.21853432,-0.31121045,2.9431915,-0.023097992,-5.185833,-6.1588545,7.370537,-1.9784051,0,1683807211.0620236
-0.4989589,0.21853432,-0.31121045,2.6363754,0.16555786,-5.1890373,-6.1588545,7.370537,-1.9784051,0,1683807211.0620236
-1.2489365,-0.023081833,-0.3324421,2.3977852,0.2890587,-4.881153,-6.863425,6.5948105,-2.3605647,0,1683807211.0776455
-1.2489365,-0.023081833,-0.3324421,2.3977852,0.2890587,-4.881153,-7.2820964,6.0310493,-2.6015189,0,1683807211.0932763
-1.4666367,-0.033576336,-0.38247296,2.3509216,0.16235352,-4.246292,-7.2820964,6.0310493,-2.6015189,0,1683807211.1088963
-1.1332544,-0.003078589,-0.31121045,2.3509216,0.16235352,-4.246292,-7.2820964,6.0310493,-2.6015189,0,1683807211.1401458
-1.6045363,-0.025280826,-0.44812426,2.3391724,-0.13378143,-3.7092972,-7.2820964,6.0310493,-2.6015189,0,1683807211.1870208
-1.514969,0.00180469,-0.6001732,1.9439697,-0.6536865,-2.1796227,-7.7889285,5.2339654,-2.8475604,0,1683807211.2026472
-1.514969,0.00180469,-0.6001732,1.4379501,-0.32136917,-1.6597176,-7.7889285,5.2339654,-2.8475604,0,1683807211.2495265
-1.6264958,-0.027479818,-0.49815512,2.27108,-0.4320526,-3.142662,-8.097658,4.6639867,-2.9741447,0,1683807211.280771
-1.6264958,-0.027479818,-0.49815512,0.7998848,0.09305954,-1.2294006,-8.202767,4.425273,-3.0499105,0,1683807211.3276474
-1.5920854,-0.074341096,-0.78857374,0.20334244,0.38064957,-0.7627678,-8.25932,4.265625,-3.1238554,0,1683807211.3432713
-1.5933138,-0.08068026,-0.7668568,0.20334244,0.38064957,-0.7627678,-8.25932,4.265625,-3.1238554,0,1683807211.3588965
-1.5745087,-0.08409249,-0.7258494,0.032978058,0.42751312,-0.60094833,-8.268895,4.230987,-3.145551,0,1683807211.374522
-1.5647572,-0.081666015,-0.70364714,-0.23872375,0.46689987,-0.2994728,-8.276572,4.1776133,-3.1962943,0,1683807211.4057739
-1.5647572,-0.081666015,-0.70364714,-0.33992767,0.45848846,-0.15874863,-8.276572,4.1776133,-3.1962943,0,1683807211.4213994
-1.5647572,-0.081666015,-0.70364714,-0.33992767,0.45848846,-0.15874863,-8.260227,4.2000694,-3.209118,0,1683807211.4370215
-1.5647572,-0.081666015,-0.70364714,-0.505085,0.22830963,0.21722794,-8.260227,4.2000694,-3.209118,0,1683807211.4526465
-1.5484089,-0.055793736,-0.6482477,-0.56049347,-0.12537003,0.59013367,-8.260227,4.2000694,-3.209118,0,1683807211.4838986
-1.5754944,-0.07922438,-0.5574521,-0.56049347,-0.12537003,0.59013367,-8.260227,4.2000694,-3.209118,0,1683807211.5151477
-1.5754944,-0.07922438,-0.5574521,-0.5401993,-0.49707413,1.2399483,-8.204915,4.402926,-3.0763612,0,1683807211.5307708
-1.6421163,-0.08727723,-0.5376915,-0.5572891,-0.24139404,0.7349968,-8.240892,4.2735963,-3.1614017,0,1683807211.5463977
-1.6421163,-0.08727723,-0.5376915,-0.5572891,-0.24139404,0.7349968,-8.204915,4.402926,-3.0763612,0,1683807211.562021
-1.6421163,-0.08727723,-0.5376915,-0.5401993,-0.49707413,1.2399483,-8.204915,4.402926,-3.0763612,0,1683807211.5776446
-1.5537775,-0.03284839,-0.58552337,-0.5401993,-0.49707413,1.2399483,-8.204915,4.402926,-3.0763612,0,1683807211.5932717
-1.5537775,-0.03284839,-0.58552337,-0.6435394,-0.9316635,1.9877625,-8.113925,4.680266,-2.903398,0,1683807211.6088958
-1.5537775,-0.03284839,-0.58552337,-0.6435394,-0.9316635,1.9877625,-8.042879,4.8668337,-2.7922049,0,1683807211.6245239
-1.5537775,-0.03284839,-0.58552337,-0.6989479,-0.9892082,2.1741486,-8.042879,4.8668337,-2.7922049,0,1683807211.6245239
-1.4219744,-0.0033212362,-0.5213431,-0.8555603,-0.9605026,2.5363731,-8.042879,4.8668337,-2.7922049,0,1683807211.6557755
-1.3187431,0.016697174,-0.48618957,-1.214447,-0.574913,3.035984,-7.8185363,5.331852,-2.571426,0,1683807211.687022
-1.1588839,0.055505592,-0.43860033,-1.214447,-0.574913,3.035984,-7.8185363,5.331852,-2.571426,0,1683807211.733896
-1.3187431,0.016697174,-0.48618957,-1.6757393,-0.12537003,3.643074,-7.5669155,5.7491293,-2.4206796,0,1683807211.749522
-1.3187431,0.016697174,-0.48618957,-1.6757393,-0.12537003,3.643074,-7.127283,6.367939,-2.1958077,0,1683807211.7807734
-1.1427783,0.06331581,-0.434445,-1.6757393,-0.12537003,3.643074,-7.127283,6.367939,-2.1958077,0,1683807211.7807734
-1.0153732,0.07185396,-0.43908563,-1.9485092,-0.47904968,4.4430923,-6.7272954,6.856045,-1.9769994,0,1683807211.7963958
-0.9509503,0.08844498,-0.38978273,-1.9485092,-0.47904968,4.4430923,-6.7272954,6.856045,-1.9769994,0,1683807211.8120215
-0.8250163,0.105779104,-0.33731022,-1.9485092,-0.47904968,4.4430923,-6.7272954,6.856045,-1.9769994,0,1683807211.8432732
-0.70372295,0.12920974,-0.2877798,-2.233963,-0.40761948,5.2015877,-6.7272954,6.856045,-1.9769994,0,1683807211.8588972
-0.70372295,0.12920974,-0.2877798,-2.3670769,-0.2946663,5.470085,-6.7272954,6.856045,-1.9769994,0,1683807211.8745234
-0.70372295,0.12920974,-0.2877798,-2.3670769,-0.2946663,5.470085,-4.881175,8.443198,-1.0280629,0,1683807211.8901477
-0.8250163,0.105779104,-0.33731022,-2.3670769,-0.2946663,5.470085,-4.881175,8.443198,-1.0280629,0,1683807211.9057715
-0.8250163,0.105779104,-0.33731022,-2.0379639,-0.616436,4.8862267,-4.881175,8.443198,-1.0280629,0,1683807211.9213965
-0.8250163,0.105779104,-0.33731022,-2.0379639,-0.616436,4.8862267,-5.5249567,7.9913173,-1.3356957,0,1683807211.9370232
-0.8250163,0.105779104,-0.33731022,-2.3670769,-0.2946663,5.470085,-4.881175,8.443198,-1.0280629,0,1683807211.9682724
-0.24878941,0.24953252,-0.048347495,-2.3276901,-0.32777786,5.7811737,-3.916336,8.970913,-0.59616494,0,1683807211.9838958
-0.14385958,0.27833173,-0.033712823,-2.3276901,-0.32777786,5.7811737,-3.916336,8.970913,-0.59616494,0,1683807212.046396
-0.14385958,0.27833173,-0.033712823,-2.3064613,-0.2893257,5.9461975,-3.916336,8.970913,-0.59616494,0,1683807212.062021
-0.14385958,0.27833173,-0.033712823,-2.3064613,-0.2893257,5.9461975,-3.116536,9.29447,-0.26537332,0,1683807212.0932703
-0.14385958,0.27833173,-0.033712823,-2.3064613,-0.2893257,5.9461975,-2.8378572,9.385821,-0.1526335,0,1683807212.1088958
0.17049013,0.37302488,0.23573194,-3.0020714,1.4448929,5.917492,-1.1321687,9.722435,0.6023647,0,1683807212.124522
1.2624034,0.6226939,0.80487657,-2.0166016,0.3114891,2.159195,3.5338683,8.191044,4.072957,0,1683807212.1557705
1.2624034,0.6226939,0.80487657,-2.0166016,0.3114891,2.159195,3.1819806,8.493947,3.7280347,0,1683807212.187025
1.6406907,0.74764216,1.0054853,-3.081913,1.6802788,4.3217278,3.1819806,8.493947,3.7280347,0,1683807212.2026465
1.6045817,0.70786315,0.9600951,-3.081913,1.6802788,4.3217278,3.6278527,8.103692,4.164042,0,1683807212.218273
1.6045817,0.70786315,0.9600951,-3.081913,1.6802788,4.3217278,3.8436546,7.8972745,4.3623123,0,1683807212.2495215
1.6160469,0.738376,1.1582623,-3.081913,1.6802788,4.3217278,3.8436546,7.8972745,4.3623123,0,1683807212.2651458
1.6160469,0.738376,1.1582623,-3.081913,1.6802788,4.3217278,3.8941357,7.8491583,4.404182,0,1683807212.280771
1.6160469,0.738376,1.1582623,-0.954628,-0.5610275,0.45154572,3.8941357,7.8491583,4.404182,0,1683807212.2963972
1.5147567,0.6829766,1.229282,-0.954628,-0.5610275,0.45154572,3.8941357,7.8491583,4.404182,0,1683807212.3276455
1.5147567,0.6829766,1.229282,-1.3956261,-0.34366608,1.0619736,3.8941357,7.8491583,4.404182,0,1683807212.358901
1.455945,0.6612445,1.235151,-0.75222015,-0.574913,0.20654678,3.9648767,7.7819123,4.460042,0,1683807212.437019
1.455945,0.6612445,1.235151,-0.75222015,-0.574913,0.20654678,4.0029855,7.7410607,4.496941,0,1683807212.4526503
1.1999217,0.5694783,1.1489961,-0.14392853,-0.31816483,-0.4486084,4.00018,7.7395597,4.502019,0,1683807212.4682724
1.0425042,0.52824336,1.0848007,0.10854721,0.037651062,-0.61683655,3.958079,7.755846,4.5111933,0,1683807212.4995193
0.97271276,0.5924236,1.0442938,0.36743164,0.27196884,-0.700016,3.958079,7.755846,4.5111933,0,1683807212.53077
0.97271276,0.5924236,1.0442938,0.36743164,0.27196884,-0.700016,3.883282,7.795648,4.5075917,0,1683807212.5463946
0.97271276,0.5924236,1.0442938,0.658226,0.36582947,-0.86076736,3.883282,7.795648,4.5075917,0,1683807212.5620217
0.97271276,0.5924236,1.0442938,0.658226,0.36582947,-0.86076736,3.743105,7.8924375,4.4574647,0,1683807212.5776465
0.9773534,0.6612445,0.93543607,0.7498169,0.39453506,-0.9321976,3.743105,7.8924375,4.4574647,0,1683807212.5776465
1.0513002,0.73008054,0.8158564,1.1312675,0.21562576,-1.673603,3.4748795,8.097011,4.3051157,0,1683807212.6088972
1.0513002,0.73008054,0.8158564,1.218586,0.12710571,-1.8824196,3.4748795,8.097011,4.3051157,0,1683807212.6557734
1.0513002,0.73008054,0.8158564,1.218586,0.12710571,-1.8824196,3.4029849,8.151039,4.2603564,0,1683807212.671396
0.97196966,0.7478848,0.87638175,1.5594482,-0.11468887,-2.521553,3.14125,8.340376,4.0915866,0,1683807212.6870193
0.97196966,0.7478848,0.87638175,1.7021751,-0.16475677,-2.7025986,3.14125,8.340376,4.0915866,0,1683807212.702646
0.7071807,0.66174495,0.84782517,1.7021751,-0.16475677,-2.7025986,2.685887,8.643442,3.7745612,0,1683807212.718271
0.9099884,0.72519726,0.89785606,1.7021751,-0.16475677,-2.7025986,2.685887,8.643442,3.7745612,0,1683807212.7495205
0.9099884,0.72519726,0.89785606,1.7021751,-0.16475677,-2.7025986,3.037562,8.412196,4.0222588,0,1683807212.7651455
0.57392174,0.6397702,0.74459386,2.396717,-0.011348724,-3.1702995,3.037562,8.412196,4.0222588,0,1683807212.7807734
0.57392174,0.6397702,0.74459386,2.4872398,0.05153656,-3.1970024,2.2832742,8.88191,3.474004,0,1683807212.7963955
0.5194929,0.62610614,0.69456303,2.4872398,0.05153656,-3.1970024,2.2832742,8.88191,3.474004,0,1683807212.8276443
0.41234893,0.6409986,0.4414666,2.6748276,0.1835823,-3.2128906,1.8533009,9.105041,3.1359074,0,1683807212.8589008
0.41234893,0.6409986,0.4414666,2.7386475,0.15274048,-3.3418655,1.2507782,9.360135,2.644583,0,1683807212.8901467
0.41234893,0.6409986,0.4414666,2.7163506,-0.008144379,-3.4632301,1.2507782,9.360135,2.644583,0,1683807212.9057724
0.35719213,0.698597,0.27990896,2.7163506,-0.008144379,-3.4632301,1.2507782,9.360135,2.644583,0,1683807212.9213958
0.31155926,0.72959524,0.22182523,2.7163506,-0.008144379,-3.4632301,0.93334293,9.465017,2.3901267,0,1683807212.952644
0.29666677,0.73008054,0.21010232,2.7163506,-0.008144379,-3.4632301,0.93334293,9.465017,2.3901267,0,1683807212.9682732
0.29666677,0.73008054,0.21010232,2.702465,-0.105075836,-3.5293198,0.93334293,9.465017,2.3901267,0,1683807212.9838948
0.29666677,0.73008054,0.21010232,2.702465,-0.105075836,-3.5293198,0.2637946,9.622013,1.8755425,0,1683807213.0151474
0.21026914,0.7237262,0.18570109,2.702465,-0.105075836,-3.5293198,0.2637946,9.622013,1.8755425,0,1683807213.0307708
0.21026914,0.7237262,0.18570109,2.6992607,-0.33512115,-3.6998177,0.2637946,9.622013,1.8755425,0,1683807213.0463967
0.13315277,0.7071352,0.151048,2.7961922,-0.6110954,-3.938408,-0.2705285,9.690449,1.4806744,0,1683807213.0620208
0.08996152,0.6937137,0.1432378,2.7961922,-0.6110954,-3.938408,-0.2705285,9.690449,1.4806744,0,1683807213.0776458
0.08996152,0.6937137,0.1432378,2.8654861,-0.71229935,-4.064045,-0.2705285,9.690449,1.4806744,0,1683807213.093271
0.054565333,0.67882127,0.12614632,2.8654861,-0.71229935,-4.064045,-0.8339413,9.711616,1.0767796,0,1683807213.1088972
-0.018896166,0.6187812,0.057082802,2.9399872,-0.74954987,-4.2920876,-1.6325104,9.655174,0.5318992,0,1683807213.140145
-0.16753286,0.6151263,-0.032727066,2.997532,-0.82525253,-4.5264053,-2.4742298,9.489392,-0.0040081884,0,1683807213.1557705
-0.16753286,0.6151263,-0.032727066,2.997532,-0.82525253,-4.5264053,-2.9099789,9.361249,-0.263477,0,1683807213.1713998
-0.041098405,0.6134126,0.04683095,2.997532,-0.82525253,-4.5264053,-1.6325104,9.655174,0.5318992,0,1683807213.2026467
-0.24049391,0.55825585,-0.078132465,3.0007362,-0.94020844,-4.6276093,-1.6325104,9.655174,0.5318992,0,1683807213.2182708
-0.24049391,0.55825585,-0.078132465,2.9879189,-0.99027634,-4.659519,-3.1302147,9.285526,-0.38875934,0,1683807213.2338955
-0.28882623,0.5397085,-0.09008285,2.9879189,-0.99027634,-4.659519,-3.1302147,9.285526,-0.38875934,0,1683807213.2495203
-1.68508,0.014983477,-0.8249405,0.42604446,0.23258209,-0.24726868,-8.048742,4.494652,-3.3445814,0,1683807213.265145
-1.5632862,0.026706379,-0.6638681,-0.5615616,-0.76984406,1.7789459,-7.9182467,4.8148475,-3.2076478,0,1683807213.2807703
-1.4595696,0.051107608,-0.59064925,-0.5615616,-0.76984406,1.7789459,-7.9182467,4.8148475,-3.2076478,0,1683807213.2963986
-1.4595696,0.051107608,-0.59064925,-0.5615616,-0.76984406,1.7789459,-7.8541236,4.977162,-3.1162457,0,1683807213.3120205
-1.4595696,0.051107608,-0.59064925,-0.7329941,-0.7026863,2.3924446,-7.8541236,4.977162,-3.1162457,0,1683807213.3120205
-1.4595696,0.051107608,-0.59064925,-0.6328583,-0.82832336,2.1005821,-7.8541236,4.977162,-3.1162457,0,1683807213.343271
-1.4595696,0.051107608,-0.59064925,-0.88747025,-0.574913,2.7003288,-7.657718,5.374156,-2.9407792,0,1683807213.3588958
-1.4300272,0.07381031,-0.6367826,-0.88747025,-0.574913,2.7003288,-7.657718,5.374156,-2.9407792,0,1683807213.3588958
-1.4300272,0.07381031,-0.6367826,-1.6513062,-0.40334702,3.6058235,-7.1646633,6.156672,-2.6331303,0,1683807213.3745208
-1.1776739,0.12335587,-0.66263974,-1.6513062,-0.40334702,3.6058235,-7.1646633,6.156672,-2.6331303,0,1683807213.390146
-1.1776739,0.12335587,-0.66263974,-1.6513062,-0.40334702,3.6058235,-7.5923843,5.489249,-2.8972788,0,1683807213.4057705
-1.1776739,0.12335587,-0.66263974,-0.98653793,-0.52591324,2.8537369,-7.5923843,5.489249,-2.8972788,0,1683807213.4213963
1.4591147,0.6060877,0.9083505,-2.9306412,0.7556915,3.7795258,2.8890023,8.532376,3.875902,0,1683807213.4370215
0.71743256,0.65417737,0.80169183,1.5817451,0.47117233,-1.895237,3.588238,7.89983,4.5702987,0,1683807213.452645
0.71743256,0.65417737,0.80169183,1.5817451,0.47117233,-1.895237,3.362965,8.086333,4.4127183,0,1683807213.46827
0.71743256,0.65417737,0.80169183,1.5817451,0.47117233,-1.895237,2.8738167,8.434048,4.096145,0,1683807213.483896
0.8675251,0.66174495,0.9103069,1.4220619,0.35728455,-1.7908287,2.8738167,8.434048,4.096145,0,1683807213.4995208
0.68300694,0.6612445,0.7480061,1.7351532,0.5809212,-1.9889641,2.8738167,8.434048,4.096145,0,1683807213.5307708
0.70082635,0.73177904,0.63842046,2.0207405,0.6917381,-2.2446442,2.477088,8.687334,3.816367,0,1683807213.5620203
0.70082635,0.73177904,0.63842046,2.141037,0.67998886,-2.4661446,2.2519524,8.817934,3.6528254,0,1683807213.5776455
0.6900892,0.72202766,0.5613041,2.141037,0.67998886,-2.4661446,2.2519524,8.817934,3.6528254,0,1683807213.5932703
0.6039342,0.73177904,0.42828783,2.4308968,0.12176514,-3.1309128,2.2519524,8.817934,3.6528254,0,1683807213.6088958
0.41040775,0.7017666,0.39314944,2.4308968,0.12176514,-3.1309128,1.7429373,9.07977,3.2696056,0,1683807213.6245208
0.54683626,0.7354491,0.4143811,2.2550583,0.5383301,-2.716484,2.0068913,8.949674,3.470752,0,1683807213.6401453
0.3227817,0.6910295,0.38679513,2.914486,-0.66116333,-3.7114334,0.8435429,9.430564,2.5540693,0,1683807213.6557705
0.28276005,0.6934711,0.3824123,3.1072807,-0.8241844,-3.8446808,0.17701074,9.600099,1.9942814,0,1683807213.6713955
0.28276005,0.6934711,0.3824123,3.2106209,-0.8805275,-3.9255905,0.17701074,9.600099,1.9942814,0,1683807213.6870248
0.17171854,0.61902386,0.28429177,3.4630966,-0.99241257,-4.22493,-0.5589479,9.694918,1.3662143,0,1683807213.7026455
-0.18388124,0.40352264,0.11540917,3.5195732,-0.7005501,-4.922676,-3.158292,9.27185,-0.47787595,0,1683807213.7182705
-0.7835236,0.19607426,-0.15988947,3.0135536,-0.42577744,-4.412384,-6.0420327,7.388717,-2.2519069,0,1683807213.7338958
-0.5436212,0.26612353,-0.17014132,2.6992607,0.14099121,-4.0715218,-6.0420327,7.388717,-2.2519069,0,1683807213.7495208
-1.375371,0.101381116,-0.70536083,-0.96731186,-0.81243515,2.11874,-7.5929885,5.1095424,-3.5227096,0,1683807213.765146
-1.2272196,0.10065317,-0.5747862,-1.8931007,-0.46195984,3.323574,-7.044275,6.136506,-2.9819252,0,1683807213.8120205
-0.9519209,0.15580997,-0.4400714,-2.5514603,-0.42577744,4.390888,-6.194066,7.2215133,-2.3777456,0,1683807213.827659
-0.83111286,0.17288627,-0.35829923,-2.693119,-0.4097557,4.680748,-5.7110767,7.703446,-2.0520518,0,1683807213.843271
-0.6302615,0.20681141,-0.26604772,-2.7644157,-0.40334702,4.857521,-5.351249,8.013927,-1.819749,0,1683807213.858896
-0.548004,0.24293554,-0.15964682,-2.7644157,-0.40334702,4.857521,-5.351249,8.013927,-1.819749,0,1683807213.8745203
-0.5231175,0.24806146,-0.12864862,-2.7644157,-0.40334702,4.857521,-5.351249,8.013927,-1.819749,0,1683807213.8901453
0.46897677,0.3156691,0.48979893,-3.1702995,2.0617294,5.756607,0.89137876,9.623938,1.6600136,0,1683807213.90577
0.46897677,0.3156691,0.48979893,-3.1702995,2.0617294,5.756607,3.9317856,7.9392724,4.204688,0,1683807213.9213953
1.0019972,0.7005382,0.8556354,0.74661255,0.5905342,-1.0898781,3.9317856,7.9392724,4.204688,0,1683807213.9213953
1.0019972,0.7005382,0.8556354,0.74661255,0.5905342,-1.0898781,4.109,7.8184786,4.2612076,0,1683807213.9370203
1.0019972,0.7005382,0.8556354,0.94047546,0.59373856,-1.4531708,3.9957497,7.89554,4.226679,0,1683807213.9526465
1.0019972,0.7005382,0.8556354,1.2451553,0.6108284,-1.8334198,3.5278459,8.215404,4.028873,0,1683807213.9682705
0.45945284,0.6744233,0.4236472,2.7482605,-0.3809166,-3.9362717,1.4715166,9.324047,2.658417,0,1683807213.9838948
0.45945284,0.6744233,0.4236472,2.7482605,-0.3809166,-3.9362717,1.2935344,9.38684,2.5267358,0,1683807213.9995341
0.4167469,0.6727247,0.33775002,3.0848503,-0.6153679,-4.8758125,-0.74600136,9.717913,1.0844504,0,1683807214.015159
0.10069867,0.5584985,0.17325024,3.0848503,-0.6153679,-4.8758125,-1.2194926,9.698041,0.7944967,0,1683807214.030784
0.32986397,0.6231792,0.20913173,3.0891228,-0.61964035,-5.032425,-1.705399,9.64401,0.50504524,0,1683807214.0463974
0.3984422,0.6619876,0.27258402,3.0891228,-0.61964035,-5.032425,0.13821134,9.661648,1.6744655,0,1683807214.0620215
0.010145694,0.509696,0.15518817,3.0891228,-0.61964035,-5.032425,0.13821134,9.661648,1.6744655,0,1683807214.077645
0.010145694,0.509696,0.15518817,3.0891228,-0.61964035,-5.032425,-8.078128,4.4931307,-3.2750592,0,1683807214.0932703
-1.6487132,-0.09898497,-0.8159171,0.42497635,0.18678665,-0.73726654,-8.078128,4.4931307,-3.2750592,0,1683807214.0932703
-1.6487132,-0.09898497,-0.8159171,-0.10347366,0.34126282,-0.24513245,-8.078128,4.4931307,-3.2750592,0,1683807214.1088953
-1.6994721,-0.088975765,-0.6868135,-0.57317734,0.30935287,0.39934158,-8.091489,4.4100246,-3.3540826,0,1683807214.124521
-1.7431637,-0.04675512,-0.73365957,-0.61576843,-1.0371399,2.0814896,-7.910278,4.9239025,-3.0582812,0,1683807214.140159
-1.1444919,0.1980306,-0.6109103,-2.1466446,-0.33512115,3.9147758,-6.811139,6.6673923,-2.307517,0,1683807214.155784
-1.1444919,0.1980306,-0.6109103,-2.214737,-0.42577744,4.0457535,-6.68557,6.8212457,-2.2235453,0,1683807214.187034
-1.1779166,0.1797259,-0.62603027,-2.214737,-0.42577744,4.0457535,-6.68557,6.8212457,-2.2235453,0,1683807214.2026591
-1.1779166,0.1797259,-0.62603027,-3.5783195,1.0858727,6.6843987,-3.7354202,9.057406,-0.42475218,0,1683807214.2182841
-0.24636294,0.06648539,0.1712939,-3.5783195,1.0858727,6.6843987,-3.7354202,9.057406,-0.42475218,0,1683807214.2182841
-0.24636294,0.06648539,0.1712939,-3.5783195,1.0858727,6.6843987,-2.806229,9.396534,0.024801958,0,1683807214.2339087
-0.30932993,0.054762486,0.12907325,-3.7413406,1.3404846,6.953964,-3.432388,9.182098,-0.27958328,0,1683807214.249534
0.6488392,0.19046304,0.8426992,-4.196224,2.9351807,6.5309906,-0.1879362,9.694166,1.4690849,0,1683807214.265159
1.0871665,0.43891883,1.0103686,-2.5598717,1.8475723,3.8838005,1.8793901,9.098632,3.1389787,0,1683807214.280784
1.2621608,0.4918766,1.187304,-3.3994102,2.7178192,5.0971794,2.748166,8.552457,3.9336305,0,1683807214.296409
1.1945531,0.48065418,1.0987226,-3.3994102,2.7178192,5.0971794,2.382067,8.798613,3.6167045,0,1683807214.3120341
1.2462977,0.48333845,1.2168463,-1.1974907,0.58732986,2.304058,2.8451548,8.43566,4.0518374,0,1683807214.3276455
1.2033491,0.4513545,1.2161033,-1.1974907,0.58732986,2.304058,2.8451548,8.43566,4.0518374,0,1683807214.343284
0.91243005,0.33885708,1.0169504,-0.20147324,0.7950783,0.9864044,3.0717,8.355228,4.114024,0,1683807214.358909
0.0516384,0.20755452,0.84953886,-1.3956261,4.9282837,1.9099236,2.7565088,7.48302,5.7075787,0,1683807214.374534
0.0516384,0.20755452,0.84953886,-1.8898964,5.8838463,2.4510574,2.7565088,7.48302,5.7075787,0,1683807214.4057841
0.18513997,0.20120019,0.88247824,-1.8898964,5.8838463,2.4510574,2.7565088,7.48302,5.7075787,0,1683807214.4057841
0.18513997,0.20120019,0.88247824,-1.8898964,5.8838463,2.4510574,2.4726448,7.196227,6.1863346,0,1683807214.4214091
0.22296263,0.30321825,0.7279877,-1.5777397,4.924011,2.128353,2.4726448,7.196227,6.1863346,0,1683807214.437034
0.36231807,0.1360342,0.9488575,-1.1346054,3.173771,2.2923088,2.5826988,7.289231,6.03052,0,1683807214.4526591
0.18538262,0.24586248,0.5913165,-1.9868279,6.3077545,2.218876,2.2330074,7.023158,6.4698777,0,1683807214.468284
0.27860472,0.5509309,1.0233047,-1.9654655,3.1727028,1.8364906,0.6328757,5.220242,8.2776165,0,1683807214.4995341
0.26616904,0.566794,1.0848007,-1.9654655,3.1727028,1.8364906,0.6328757,5.220242,8.2776165,0,1683807214.515159
0.25299025,0.5812012,1.13606,-2.149849,3.073635,1.7682648,-0.12576558,4.41945,8.753458,0,1683807214.5307837
0.19759081,0.69615537,1.3169081,-2.0379639,2.8574753,1.6989708,-0.12576558,4.41945,8.753458,0,1683807214.546409
0.117289685,0.70860624,1.3986651,-1.4147186,2.293911,1.5530396,-0.12576558,4.41945,8.753458,0,1683807214.562021
0.13168171,0.72251296,1.4572341,-1.0079002,2.0222092,1.566925,-0.5930308,4.015309,8.927262,0,1683807214.577659
0.013315276,0.676137,0.78657186,0.32590866,0.40521622,0.28011322,-0.71897304,4.7982497,8.522339,0,1683807214.593284
0.06750147,0.6441682,0.9305679,0.32590866,0.40521622,0.28011322,-0.68560225,4.860234,8.489903,0,1683807214.6089094
0.036988564,0.6138979,0.938363,0.32590866,0.40521622,0.28011322,-0.69837403,4.837467,8.501857,0,1683807214.6401463
0.036988564,0.6138979,0.938363,0.49200058,-0.13484955,0.21615982,-0.6512329,4.936296,8.448626,0,1683807214.655784
0.036988564,0.6138979,0.938363,0.49200058,-0.13484955,0.21615982,-0.65614426,5.031374,8.391969,0,1683807214.671409
-0.059403118,0.5526446,0.8009639,0.40468216,0.37210464,0.032978058,-0.65614426,5.031374,8.391969,0,1683807214.671409
-0.059403118,0.5526446,0.8009639,0.40468216,0.37210464,0.032978058,-0.6827528,5.0685368,8.367446,0,1683807214.687034
-0.41720188,0.5026138,0.47710544,0.19906998,1.0315323,-0.18758774,-0.9472691,5.268152,8.217034,0,1683807214.7026591
-0.6200096,0.34836584,0.6430611,0.20013809,0.46276093,-0.12256622,-0.965532,5.2824283,8.205735,0,1683807214.718284
