acc_x,acc_y,acc_z,gyr_x,gyr_y,gyr_z,grav_x,grav_y,grav_z,label,timestamp
-0.72168845,0.35544756,-0.10232304,0.48563787,0.44119743,-2.5625796,-5.5381966,7.8411827,-2.019991,0,1683969499.1232638
-0.7013214,0.40368208,-0.14732568,0.1826487,0.86620694,-2.211332,-5.7957125,7.6302266,-2.1036768,0,1683969499.1592886
-1.1062231,0.34489816,-0.41490227,0.2932153,0.6042985,-1.5922203,-6.331345,7.1003385,-2.3948588,0,1683969499.1648421
-1.1062231,0.34489816,-0.41490227,0.2932153,0.6042985,-1.5922203,-6.434423,6.9848824,-2.4588099,0,1683969499.190527
-1.2449507,0.29983455,-0.45380697,0.2932153,0.6042985,-1.5922203,-6.434423,6.9848824,-2.4588099,0,1683969499.2007895
-1.2449507,0.29983455,-0.45380697,0.33276883,0.36651915,-1.2993103,-6.434423,6.9848824,-2.4588099,0,1683969499.221254
-1.2449507,0.29983455,-0.45380697,0.33276883,0.36651915,-1.2993103,-6.528512,6.876851,-2.514677,0,1683969499.2263844
-1.2449507,0.29983455,-0.45380697,0.33276883,0.36651915,-1.2993103,-6.6403084,6.7458305,-2.5760758,0,1683969499.2468724
-1.3495909,0.25824678,-0.48868704,0.33276883,0.36651915,-1.2993103,-6.6403084,6.7458305,-2.5760758,0,1683969499.257092
-1.3495909,0.25824678,-0.48868704,0.22953261,0.19685133,-0.8184067,-6.6403084,6.7458305,-2.5760758,0,1683969499.2622185
-1.3806293,0.24355079,-0.5086882,0.22953261,0.19685133,-0.8184067,-6.6403084,6.7458305,-2.5760758,0,1683969499.2724404
-1.3806293,0.24355079,-0.5086882,0.22953261,0.19685133,-0.8184067,-6.6666384,6.7144184,-2.5901062,0,1683969499.2929444
-1.3806293,0.24355079,-0.5086882,0.039858956,0.20082195,-0.38515055,-6.6666384,6.7144184,-2.5901062,0,1683969499.2980745
-1.373068,0.25946635,-0.5367996,0.039858956,0.20082195,-0.38515055,-6.6666384,6.7144184,-2.5901062,0,1683969499.3083277
-1.373068,0.25946635,-0.5367996,-0.21135938,0.26206118,0.043676864,-6.6666384,6.7144184,-2.5901062,0,1683969499.3134212
-1.373068,0.25946635,-0.5367996,-0.21135938,0.26206118,0.043676864,-6.698933,6.6746054,-2.6096137,0,1683969499.3185499
-1.373068,0.25946635,-0.5367996,-0.46609017,0.33643404,0.42745295,-6.698933,6.6746054,-2.6096137,0,1683969499.3390706
-1.3324558,0.29721245,-0.55649585,-0.46609017,0.33643404,0.42745295,-6.698933,6.6746054,-2.6096137,0,1683969499.354422
-1.3324558,0.29721245,-0.55649585,-0.46609017,0.33643404,0.42745295,-6.695609,6.674416,-2.6186118,0,1683969499.3646715
-1.3324558,0.29721245,-0.55649585,-0.7489208,0.37888917,0.8538369,-6.695609,6.674416,-2.6186118,0,1683969499.3800697
-1.2776965,0.33989787,-0.57180166,-0.7489208,0.37888917,0.8538369,-6.695609,6.674416,-2.6186118,0,1683969499.3903317
-1.2776965,0.33989787,-0.57180166,-0.7489208,0.37888917,0.8538369,-6.6620936,6.710874,-2.6108882,0,1683969499.4005935
-1.2183027,0.37691224,-0.5579594,-0.7489208,0.37888917,0.8538369,-6.6620936,6.710874,-2.6108882,0,1683969499.4211433
-1.2183027,0.37691224,-0.5579594,-0.91889405,0.33582318,1.1421653,-6.6620936,6.710874,-2.6108882,0,1683969499.431364
-1.2183027,0.37691224,-0.5579594,-0.91889405,0.33582318,1.1421653,-6.6072764,6.7725034,-2.590992,0,1683969499.441625
-1.1633605,0.40374306,-0.53692156,-0.91889405,0.33582318,1.1421653,-6.6072764,6.7725034,-2.590992,0,1683969499.4467585
-1.1633605,0.40374306,-0.53692156,-1.0651963,0.20937407,1.4627168,-6.6072764,6.7725034,-2.590992,0,1683969499.4518886
-1.1633605,0.40374306,-0.53692156,-1.0651963,0.20937407,1.4627168,-6.5348372,6.8550606,-2.557366,0,1683969499.4570193
-1.1194556,0.4145364,-0.53039676,-1.0651963,0.20937407,1.4627168,-6.5348372,6.8550606,-2.557366,0,1683969499.487682
-1.1194556,0.4145364,-0.53039676,-1.141249,0.016187929,1.7707456,-6.5348372,6.8550606,-2.557366,0,1683969499.5030732
-1.1194556,0.4145364,-0.53039676,-1.141249,0.016187929,1.7707456,-6.3990407,7.009747,-2.4803007,0,1683969499.5133317
-1.1194556,0.4145364,-0.53039676,-1.141249,0.016187929,1.7707456,-6.2912445,7.130359,-2.411307,0,1683969499.53384
-1.1001861,0.4170975,-0.5016756,-1.141249,0.016187929,1.7707456,-6.2912445,7.130359,-2.411307,0,1683969499.538965
-1.1001861,0.4170975,-0.5016756,-1.19134,-0.172264,2.0421226,-6.2912445,7.130359,-2.411307,0,1683969499.544096
-1.0909173,0.40142587,-0.43917197,-1.19134,-0.172264,2.0421226,-6.2912445,7.130359,-2.411307,0,1683969499.559429
-1.0909173,0.40142587,-0.43917197,-1.2692252,-0.27107146,2.3483188,-6.2912445,7.130359,-2.411307,0,1683969499.5696883
-1.0909173,0.40142587,-0.43917197,-1.2692252,-0.27107146,2.3483188,-6.168017,7.264643,-2.3273573,0,1683969499.5748174
-1.0718918,0.3969134,-0.37898555,-1.2692252,-0.27107146,2.3483188,-6.168017,7.264643,-2.3273573,0,1683969499.5902066
-1.0718918,0.3969134,-0.37898555,-1.3834571,-0.2509129,2.6904032,-6.168017,7.264643,-2.3273573,0,1683969499.6157684
-0.8250481,0.4233174,-0.35630128,-1.3834571,-0.2509129,2.6904032,-6.168017,7.264643,-2.3273573,0,1683969499.6311643
-0.8250481,0.4233174,-0.35630128,-1.9240729,-0.04627304,3.9807034,-6.168017,7.264643,-2.3273573,0,1683969499.6464803
-0.8250481,0.4233174,-0.35630128,-1.9240729,-0.04627304,3.9807034,-5.2735825,8.068866,-1.821779,0,1683969499.6516101
-0.8250481,0.4233174,-0.35630128,-2.1578815,0.07849618,4.321566,-5.2735825,8.068866,-1.821779,0,1683969499.6669712
-0.8250481,0.4233174,-0.35630128,-2.1578815,0.07849618,4.321566,-4.9790926,8.284233,-1.6781574,0,1683969499.6721046
-0.6357078,0.4941752,-0.30166394,-2.1578815,0.07849618,4.321566,-4.9790926,8.284233,-1.6781574,0,1683969499.6772373
-0.491736,0.5674112,-0.24678269,-2.1578815,0.07849618,4.321566,-4.9790926,8.284233,-1.6781574,0,1683969499.708025
-0.491736,0.5674112,-0.24678269,-2.4648414,0.37995818,4.48314,-4.9790926,8.284233,-1.6781574,0,1683969499.7131572
-0.491736,0.5674112,-0.24678269,-2.4648414,0.37995818,4.48314,-4.6542683,8.500539,-1.521435,0,1683969499.7182875
-0.38929102,0.60759646,-0.18769388,-2.4648414,0.37995818,4.48314,-4.6542683,8.500539,-1.521435,0,1683969499.738798
-0.38929102,0.60759646,-0.18769388,-2.7178922,0.6826419,4.504673,-4.6542683,8.500539,-1.521435,0,1683969499.743933
-0.38929102,0.60759646,-0.18769388,-2.7178922,0.6826419,4.504673,-4.123765,8.811877,-1.2575841,0,1683969499.7542095
-0.38929102,0.60759646,-0.18769388,-2.9176452,0.84329945,4.5417833,-4.123765,8.811877,-1.2575841,0,1683969499.764433
-0.38929102,0.60759646,-0.18769388,-2.9176452,0.84329945,4.5417833,-3.7538757,9.000727,-1.0637015,0,1683969499.7849538
-0.3583136,0.5969251,-0.21415883,-2.9176452,0.84329945,4.5417833,-3.7538757,9.000727,-1.0637015,0,1683969499.7952027
-0.28971204,0.61485296,-0.12951976,-2.9176452,0.84329945,4.5417833,-3.7538757,9.000727,-1.0637015,0,1683969499.810592
-0.28971204,0.61485296,-0.12951976,-2.9469666,0.73532903,4.614018,-3.7538757,9.000727,-1.0637015,0,1683969499.825974
-0.28971204,0.61485296,-0.12951976,-2.9469666,0.73532903,4.614018,-3.3738723,9.171882,-0.8542303,0,1683969499.8311052
-0.28971204,0.61485296,-0.12951976,-2.879619,0.6267477,4.6857944,-3.3738723,9.171882,-0.8542303,0,1683969499.8413615
-0.28971204,0.61485296,-0.12951976,-2.879619,0.6267477,4.6857944,-2.98339,9.32411,-0.629665,0,1683969499.846494
-0.2271474,0.6181458,0.031099375,-2.879619,0.6267477,4.6857944,-2.98339,9.32411,-0.629665,0,1683969499.861837
-0.2271474,0.6181458,0.031099375,-2.879619,0.6267477,4.6857944,-2.3792078,9.513069,-0.277496,0,1683969499.8720975
-0.2271474,0.6181458,0.031099375,-2.8163943,0.659429,4.725043,-2.3792078,9.513069,-0.277496,0,1683969499.882377
-0.17482726,0.6061329,0.14037405,-2.8163943,0.659429,4.725043,-2.3792078,9.513069,-0.277496,0,1683969499.8977573
0.07280912,0.6024132,0.13067836,-2.8163943,0.659429,4.725043,-2.3792078,9.513069,-0.277496,0,1683969499.92336
0.07280912,0.6024132,0.13067836,-2.7021625,0.7281514,4.7972775,-2.3792078,9.513069,-0.277496,0,1683969499.9386702
0.07280912,0.6024132,0.13067836,-2.7021625,0.7281514,4.7972775,-0.7028481,9.762289,0.6631924,0,1683969499.9489162
0.14500846,0.60235226,0.19403571,-2.7021625,0.7281514,4.7972775,-0.7028481,9.762289,0.6631924,0,1683969499.9591937
0.14500846,0.60235226,0.19403571,-2.7832549,0.79733187,4.773301,-0.7028481,9.762289,0.6631924,0,1683969499.9797115
0.14500846,0.60235226,0.19403571,-2.7832549,0.79733187,4.773301,-0.06581831,9.755716,1.0284785,0,1683969499.9848437
0.14500846,0.60235226,0.19403571,-2.8510609,0.9317222,4.743063,-0.06581831,9.755716,1.0284785,0,1683969499.9899735
0.14500846,0.60235226,0.19403571,-2.8510609,0.9317222,4.743063,0.3534746,9.719143,1.2843018,0,1683969500.005338
0.19373082,0.6022912,0.26410076,-2.8510609,0.9317222,4.743063,0.3534746,9.719143,1.2843018,0,1683969500.0104702
0.228306,0.60466945,0.33593425,-2.8510609,0.9317222,4.743063,0.3534746,9.719143,1.2843018,0,1683969500.036112
0.228306,0.60466945,0.33593425,-2.9093986,1.099252,4.700455,0.3534746,9.719143,1.2843018,0,1683969500.0464277
0.228306,0.60466945,0.33593425,-2.9093986,1.099252,4.700455,0.76356685,9.656586,1.5502975,0,1683969500.051529
0.228306,0.60466945,0.33593425,-2.9093986,1.099252,4.700455,1.1616309,9.568719,1.823825,0,1683969500.061787
0.228306,0.60466945,0.33593425,-2.9258919,1.2560917,4.6567783,1.1616309,9.568719,1.823825,0,1683969500.072051
0.27038163,0.5991203,0.38124177,-2.9258919,1.2560917,4.6567783,1.1616309,9.568719,1.823825,0,1683969500.0874496
0.27038163,0.5991203,0.38124177,-2.9051223,1.3028228,4.6347876,1.1616309,9.568719,1.823825,0,1683969500.107966
0.27038163,0.5991203,0.38124177,-2.9051223,1.3028228,4.6347876,1.5474919,9.456738,2.100354,0,1683969500.1130967
0.28727287,0.5886319,0.40459678,-2.9051223,1.3028228,4.6347876,1.5474919,9.456738,2.100354,0,1683969500.1233163
0.34587383,0.5839365,0.40734085,-2.9051223,1.3028228,4.6347876,1.5474919,9.456738,2.100354,0,1683969500.1489034
0.34587383,0.5839365,0.40734085,-2.8334985,1.2554808,4.6060767,1.5474919,9.456738,2.100354,0,1683969500.1540306
0.34587383,0.5839365,0.40734085,-2.8334985,1.2554808,4.6060767,2.1063752,9.24576,2.5130048,0,1683969500.159162
0.34587383,0.5839365,0.40734085,-2.7714956,1.1808025,4.5581236,2.1063752,9.24576,2.5130048,0,1683969500.1745589
0.34587383,0.5839365,0.40734085,-2.7714956,1.1808025,4.5581236,2.4652097,9.079337,2.7792985,0,1683969500.1796873
0.412707,0.58851,0.41599986,-2.7714956,1.1808025,4.5581236,2.4652097,9.079337,2.7792985,0,1683969500.2001982
0.412707,0.58851,0.41599986,-2.7290404,1.1378893,4.4865,2.4652097,9.079337,2.7792985,0,1683969500.210416
0.47179583,0.6111942,0.46905175,-2.7290404,1.1378893,4.4865,2.4652097,9.079337,2.7792985,0,1683969500.23086
0.47179583,0.6111942,0.46905175,-2.7290404,1.1378893,4.4865,2.6407905,8.988524,2.9101114,0,1683969500.2359862
0.47179583,0.6111942,0.46905175,-2.7290404,1.1378893,4.4865,3.1373982,8.693174,3.2896156,0,1683969500.2462544
0.5628987,0.6494281,0.5363118,-2.7290404,1.1378893,4.4865,3.1373982,8.693174,3.2896156,0,1683969500.2564738
0.5628987,0.6494281,0.5363118,-2.6134343,1.146594,4.283387,3.1373982,8.693174,3.2896156,0,1683969500.2718127
0.611682,0.65345275,0.541373,-2.6134343,1.146594,4.283387,3.1373982,8.693174,3.2896156,0,1683969500.2769332
0.611682,0.65345275,0.541373,-2.4333818,1.0708468,4.0225477,3.1373982,8.693174,3.2896156,0,1683969500.287131
0.611682,0.65345275,0.541373,-2.4333818,1.0708468,4.0225477,3.4377491,8.482987,3.5294397,0,1683969500.3025115
0.6372933,0.6667462,0.5719846,-2.4333818,1.0708468,4.0225477,3.4377491,8.482987,3.5294397,0,1683969500.3230133
0.6372933,0.6667462,0.5719846,-2.4333818,1.0708468,4.0225477,3.7140865,8.268457,3.751572,0,1683969500.3332844
0.6372933,0.6667462,0.5719846,-2.1481075,0.8350528,3.7751472,3.7140865,8.268457,3.751572,0,1683969500.3384101
0.6775395,0.6611971,0.6095478,-2.1481075,0.8350528,3.7751472,3.7140865,8.268457,3.751572,0,1683969500.3589153
0.6775395,0.6611971,0.6095478,-1.9339994,0.66675943,3.6283867,3.7140865,8.268457,3.751572,0,1683969500.3743098
0.6775395,0.6611971,0.6095478,-1.9339994,0.66675943,3.6283867,4.095315,7.9477825,4.036987,0,1683969500.3794298
0.7247374,0.6681487,0.6247926,-1.9339994,0.66675943,3.6283867,4.095315,7.9477825,4.036987,0,1683969500.3999522
0.7247374,0.6681487,0.6247926,-1.7968601,0.6452264,3.4987307,4.095315,7.9477825,4.036987,0,1683969500.405084
0.7247374,0.6681487,0.6247926,-1.7968601,0.6452264,3.4987307,4.3318152,7.735372,4.199467,0,1683969500.4102142
0.7247374,0.6681487,0.6247926,-1.7502817,0.7527387,3.2618678,4.3318152,7.735372,4.199467,0,1683969500.4255526
0.8762097,0.7156515,0.54759294,-1.7502817,0.7527387,3.2618678,4.3318152,7.735372,4.199467,0,1683969500.4358156
0.8762097,0.7156515,0.54759294,-1.7502817,0.7527387,3.2618678,4.550098,7.5227423,4.352134,0,1683969500.4409459
0.8762097,0.7156515,0.54759294,-0.19028452,-0.48151454,0.4109596,4.550098,7.5227423,4.352134,0,1683969500.4563262
0.8762097,0.7156515,0.54759294,-0.19028452,-0.48151454,0.4109596,5.345529,6.5692377,4.9504075,0,1683969500.4717069
0.9977411,0.8201698,0.8143768,-0.19028452,-0.48151454,0.4109596,5.345529,6.5692377,4.9504075,0,1683969500.4819613
0.957129,0.790351,0.77449644,-0.19028452,-0.48151454,0.4109596,5.345529,6.5692377,4.9504075,0,1683969500.4870925
0.957129,0.790351,0.77449644,0.0627664,-0.58032197,0.08597928,5.345529,6.5692377,4.9504075,0,1683969500.4973419
0.9193829,0.7659593,0.7433361,0.0627664,-0.58032197,0.08597928,5.345529,6.5692377,4.9504075,0,1683969500.5229907
0.9193829,0.7659593,0.7433361,0.0627664,-0.58032197,0.08597928,5.443179,6.53396,4.8903255,0,1683969500.5332565
0.9193829,0.7659593,0.7433361,0.17821993,-0.59605175,-0.100029185,5.443179,6.53396,4.8903255,0,1683969500.5383823
0.9193829,0.7659593,0.7433361,0.23426682,-0.5545129,-0.23411411,5.443179,6.53396,4.8903255,0,1683969500.5588863
0.9193829,0.7659593,0.7433361,0.23426682,-0.5545129,-0.23411411,5.462818,6.5471315,4.850648,0,1683969500.564017
0.8974304,0.75620264,0.74229944,0.23426682,-0.5545129,-0.23411411,5.462818,6.5471315,4.850648,0,1683969500.574274
0.8974304,0.75620264,0.74229944,0.25427267,-0.41981715,-0.38224894,5.462818,6.5471315,4.850648,0,1683969500.5946982
0.8974304,0.75620264,0.74229944,0.25427267,-0.41981715,-0.38224894,5.4719234,6.568477,4.8113713,0,1683969500.6151834
0.90078425,0.7692522,0.7446776,0.25427267,-0.41981715,-0.38224894,5.4719234,6.568477,4.8113713,0,1683969500.6203153
0.90078425,0.7692522,0.7446776,0.2518292,-0.26939157,-0.50747633,5.4719234,6.568477,4.8113713,0,1683969500.6459415
0.90078425,0.7692522,0.7446776,0.2518292,-0.26939157,-0.50747633,5.4683924,6.5961604,4.777392,0,1683969500.6510813
0.889991,0.7765087,0.75089747,0.2518292,-0.26939157,-0.50747633,5.4683924,6.5961604,4.777392,0,1683969500.6562092
0.889991,0.7765087,0.75089747,0.27412578,-0.14813483,-0.62980205,5.4683924,6.5961604,4.777392,0,1683969500.671568
0.88169783,0.7871801,0.74839735,0.27412578,-0.14813483,-0.62980205,5.4683924,6.5961604,4.777392,0,1683969500.6767006
0.88169783,0.7871801,0.74839735,0.27412578,-0.14813483,-0.62980205,5.4505997,6.6299872,4.7508264,0,1683969500.686963
0.94657964,0.8482812,0.7442508,0.27412578,-0.14813483,-0.62980205,5.4505997,6.6299872,4.7508264,0,1683969500.6972253
0.94657964,0.8482812,0.7442508,0.27412578,-0.14813483,-0.62980205,5.4015007,6.6957865,4.7144833,0,1683969500.7126012
0.94657964,0.8482812,0.7442508,0.3933972,-0.13454308,-0.83658,5.4015007,6.6957865,4.7144833,0,1683969500.7177296
-0.12378771,0.62448764,0.10287185,0.3933972,-0.13454308,-0.83658,5.4015007,6.6957865,4.7144833,0,1683969500.7484236
-0.12378771,0.62448764,0.10287185,2.468812,-1.3768903,-4.8812714,5.4015007,6.6957865,4.7144833,0,1683969500.7535555
-0.12378771,0.62448764,0.10287185,2.468812,-1.3768903,-4.8812714,-2.2800272,9.5327,-0.40650254,0,1683969500.7586849
-0.12378771,0.62448764,0.10287185,2.468812,-1.3768903,-4.8812714,-2.9158888,9.342826,-0.6673299,0,1683969500.774035
-0.19403571,0.59674215,0.10445731,2.468812,-1.3768903,-4.8812714,-2.9158888,9.342826,-0.6673299,0,1683969500.7842925
-0.19403571,0.59674215,0.10445731,2.4729352,-1.3165673,-4.8253775,-2.9158888,9.342826,-0.6673299,0,1683969500.7945619
-0.19403571,0.59674215,0.10445731,2.4393377,-1.193478,-4.690834,-2.9158888,9.342826,-0.6673299,0,1683969500.8150787
-0.27117437,0.5713748,0.10457927,2.4393377,-1.193478,-4.690834,-2.9158888,9.342826,-0.6673299,0,1683969500.8202152
-0.27117437,0.5713748,0.10457927,2.4393377,-1.193478,-4.690834,-3.3297718,9.190001,-0.8322424,0,1683969500.8304691
-0.27117437,0.5713748,0.10457927,2.3322835,-0.95905846,-4.4948993,-3.3297718,9.190001,-0.8322424,0,1683969500.856107
-0.27117437,0.5713748,0.10457927,2.3322835,-0.95905846,-4.4948993,-3.7306297,9.01892,-0.9887408,0,1683969500.8612034
-0.41020685,0.50856626,0.10396948,2.3322835,-0.95905846,-4.4948993,-3.7306297,9.01892,-0.9887408,0,1683969500.8663354
-0.41020685,0.50856626,0.10396948,2.3322835,-0.95905846,-4.4948993,-4.1089725,8.835102,-1.1372935,0,1683969500.8714254
-0.52466476,0.46484417,0.016708292,2.3322835,-0.95905846,-4.4948993,-4.1089725,8.835102,-1.1372935,0,1683969500.876558
-0.52466476,0.46484417,0.016708292,2.1207714,-0.61575216,-4.1928263,-4.1089725,8.835102,-1.1372935,0,1683969500.8868167
-0.6202191,0.4548436,-0.107750185,2.1207714,-0.61575216,-4.1928263,-4.1089725,8.835102,-1.1372935,0,1683969500.9175572
-0.6202191,0.4548436,-0.107750185,2.1207714,-0.61575216,-4.1928263,-4.6154237,8.551378,-1.3445907,0,1683969500.9226856
-0.6202191,0.4548436,-0.107750185,1.7461584,-0.22036964,-3.742924,-4.6154237,8.551378,-1.3445907,0,1683969500.9278162
-0.6202191,0.4548436,-0.107750185,1.4231633,0.03283401,-3.3629658,-4.6154237,8.551378,-1.3445907,0,1683969500.9585898
-0.65766037,0.4723446,-0.19037697,1.4231633,0.03283401,-3.3629658,-4.6154237,8.551378,-1.3445907,0,1683969500.9688272
-0.65766037,0.4723446,-0.19037697,1.4231633,0.03283401,-3.3629658,-4.9041595,8.368706,-1.4663069,0,1683969500.9739604
-0.75925165,0.5286894,-0.30538365,1.4231633,0.03283401,-3.3629658,-4.9041595,8.368706,-1.4663069,0,1683969500.9944372
-0.75925165,0.5286894,-0.30538365,1.4231633,0.03283401,-3.3629658,-5.789471,7.699998,-1.851532,0,1683969500.999573
-0.75925165,0.5286894,-0.30538365,1.4231633,0.03283401,-3.3629658,-6.562769,6.929033,-2.2703867,0,1683969501.0252264
-0.75925165,0.5286894,-0.30538365,1.4231633,0.03283401,-3.3629658,-6.588342,6.897779,-2.2913947,0,1683969501.045729
-0.75925165,0.5286894,-0.30538365,-0.33353242,0.38988474,-0.2612976,-6.588342,6.897779,-2.2913947,0,1683969501.0559726
-1.071221,0.5119201,-0.5361898,-0.33353242,0.38988474,-0.2612976,-6.588342,6.897779,-2.2913947,0,1683969501.0611002
-1.071221,0.5119201,-0.5361898,-0.5532912,0.34498614,-0.014813482,-6.588342,6.897779,-2.2913947,0,1683969501.071324
-1.071221,0.5119201,-0.5361898,-0.5532912,0.34498614,-0.014813482,-6.600676,6.883912,-2.297598,0,1683969501.0815904
-1.0498173,0.54027545,-0.4794792,-0.5532912,0.34498614,-0.014813482,-6.600676,6.883912,-2.297598,0,1683969501.0867226
-1.0498173,0.54027545,-0.4794792,-0.5532912,0.34498614,-0.014813482,-6.5976324,6.89212,-2.2816744,0,1683969501.1174493
-1.0251209,0.55856913,-0.40142587,-0.5532912,0.34498614,-0.014813482,-6.5976324,6.89212,-2.2816744,0,1683969501.12258
-1.0251209,0.55856913,-0.40142587,-0.6808093,0.3556763,0.13820826,-6.5976324,6.89212,-2.2816744,0,1683969501.1277127
-1.0042659,0.57344806,-0.32770205,-0.6808093,0.3556763,0.13820826,-6.5976324,6.89212,-2.2816744,0,1683969501.1431072
-1.0042659,0.57344806,-0.32770205,-0.73716164,0.37797287,0.28420505,-6.5976324,6.89212,-2.2816744,0,1683969501.148233
-1.0042659,0.57344806,-0.32770205,-0.73716164,0.37797287,0.28420505,-6.5837703,6.911992,-2.261513,0,1683969501.1687038
-0.9854843,0.5774727,-0.2970905,-0.73716164,0.37797287,0.28420505,-6.5837703,6.911992,-2.261513,0,1683969501.1892219
-0.9854843,0.5774727,-0.2970905,-0.6934848,0.3368922,0.36880988,-6.5837703,6.911992,-2.261513,0,1683969501.1943548
-0.9854843,0.5774727,-0.2970905,-0.6934848,0.3368922,0.36880988,-6.562864,6.9391947,-2.2388563,0,1683969501.1994772
-0.9854843,0.5774727,-0.2970905,-0.6934848,0.3368922,0.36880988,-6.537689,6.9702168,-2.2160335,0,1683969501.2251298
-0.96651983,0.58241206,-0.29026082,-0.6934848,0.3368922,0.36880988,-6.537689,6.9702168,-2.2160335,0,1683969501.235309
-0.96651983,0.58241206,-0.29026082,-0.54000485,0.18371773,0.45097128,-6.537689,6.9702168,-2.2160335,0,1683969501.2404354
-0.93523747,0.59405905,-0.29733443,-0.54000485,0.18371773,0.45097128,-6.537689,6.9702168,-2.2160335,0,1683969501.2506623
-0.93523747,0.59405905,-0.29733443,-0.37995818,-0.008857546,0.4978552,-6.537689,6.9702168,-2.2160335,0,1683969501.2557917
-0.93523747,0.59405905,-0.29733443,-0.37995818,-0.008857546,0.4978552,-6.5104628,7.0028086,-2.1933181,0,1683969501.27119
-0.91505337,0.5819852,-0.313189,-0.37995818,-0.008857546,0.4978552,-6.5104628,7.0028086,-2.1933181,0,1683969501.2865477
-0.12525122,0.6830276,0.0983594,-0.37995818,-0.008857546,0.4978552,-6.5104628,7.0028086,-2.1933181,0,1683969501.2916708
-0.12525122,0.6830276,0.0983594,-0.37995818,-0.008857546,0.4978552,-2.1864305,9.55963,0.26290253,0,1683969501.307057
-0.12525122,0.6830276,0.0983594,-0.37995818,-0.008857546,0.4978552,-1.8471265,9.625436,0.41860452,0,1683969501.31219
-0.09354204,0.69424784,0.09896919,-0.37995818,-0.008857546,0.4978552,-1.8471265,9.625436,0.41860452,0,1683969501.3275764
-0.09354204,0.69424784,0.09896919,-1.9375118,0.677755,3.907705,-1.8471265,9.625436,0.41860452,0,1683969501.3327076
-0.06811373,0.684857,0.14708175,-1.9375118,0.677755,3.907705,-1.8471265,9.625436,0.41860452,0,1683969501.3532205
-0.06811373,0.684857,0.14708175,-1.9375118,0.677755,3.907705,-1.5055504,9.67619,0.58374393,0,1683969501.36348
-0.06811373,0.684857,0.14708175,-2.05266,0.82558435,3.95016,-1.5055504,9.67619,0.58374393,0,1683969501.3737402
-0.06811373,0.684857,0.14708175,-2.05266,0.82558435,3.95016,-1.1607275,9.711462,0.7591768,0,1683969501.3942485
0.010183521,0.6982724,0.18720604,-2.05266,0.82558435,3.95016,-1.1607275,9.711462,0.7591768,0,1683969501.3993404
0.010183521,0.6982724,0.18720604,-2.133447,0.9540188,4.000404,-1.1607275,9.711462,0.7591768,0,1683969501.414729
0.06799178,0.7232129,0.2122075,-2.133447,0.9540188,4.000404,-1.1607275,9.711462,0.7591768,0,1683969501.42499
0.06799178,0.7232129,0.2122075,-2.147344,1.0201449,4.0048327,-1.1607275,9.711462,0.7591768,0,1683969501.4351852
0.06799178,0.7232129,0.2122075,-2.147344,1.0201449,4.0048327,-0.6372708,9.734199,1.0370066,0,1683969501.450571
0.123604774,0.74516547,0.21586627,-2.147344,1.0201449,4.0048327,-0.6372708,9.734199,1.0370066,0,1683969501.4557002
0.123604774,0.74516547,0.21586627,-2.147344,1.0201449,4.0048327,-0.2897237,9.728723,1.2264348,0,1683969501.4659557
0.123604774,0.74516547,0.21586627,-2.1126773,0.9934196,3.981925,-0.2897237,9.728723,1.2264348,0,1683969501.4813344
0.18244967,0.76815456,0.2388554,-2.1126773,0.9934196,3.981925,-0.2897237,9.728723,1.2264348,0,1683969501.5069804
0.18244967,0.76815456,0.2388554,-2.044566,0.90056807,3.9584067,-0.2897237,9.728723,1.2264348,0,1683969501.5172398
0.18244967,0.76815456,0.2388554,-2.044566,0.90056807,3.9584067,0.05449123,9.707277,1.4148847,0,1683969501.52237
0.18244967,0.76815456,0.2388554,-2.044566,0.90056807,3.9584067,0.39660788,9.670522,1.5999451,0,1683969501.5428884
0.424476,0.6910769,0.39203507,-2.044566,0.90056807,3.9584067,0.39660788,9.670522,1.5999451,0,1683969501.553121
0.424476,0.6910769,0.39203507,-2.354122,1.0771081,3.9203804,0.39660788,9.670522,1.5999451,0,1683969501.558207
0.424476,0.6910769,0.39203507,-0.2846632,-0.10277808,0.44883323,0.39660788,9.670522,1.5999451,0,1683969501.578652
1.0598179,0.84035397,0.8650505,-0.2846632,-0.10277808,0.44883323,0.39660788,9.670522,1.5999451,0,1683969501.5940483
1.0598179,0.84035397,0.8650505,0.057726767,-0.2919936,0.04062254,0.39660788,9.670522,1.5999451,0,1683969501.6094556
1.0104249,0.8153525,0.8216943,0.057726767,-0.2919936,0.04062254,0.39660788,9.670522,1.5999451,0,1683969501.619713
1.0104249,0.8153525,0.8216943,0.057726767,-0.2919936,0.04062254,5.2590694,6.371014,5.290415,0,1683969501.629975
1.0104249,0.8153525,0.8216943,0.27259862,-0.42271876,-0.22113322,5.2590694,6.371014,5.290415,0,1683969501.6453693
1.0104249,0.8153525,0.8216943,0.27259862,-0.42271876,-0.22113322,5.287686,6.3705893,5.262327,0,1683969501.660716
0.9462747,0.79425365,0.7879728,0.27259862,-0.42271876,-0.22113322,5.287686,6.3705893,5.262327,0,1683969501.6658132
0.9462747,0.79425365,0.7879728,0.41172317,-0.47891834,-0.42012256,5.287686,6.3705893,5.262327,0,1683969501.6863067
0.9462747,0.79425365,0.7879728,0.41172317,-0.47891834,-0.42012256,5.294788,6.3974195,5.222484,0,1683969501.6914318
0.9021258,0.7737037,0.7577881,0.41172317,-0.47891834,-0.42012256,5.294788,6.3974195,5.222484,0,1683969501.69656
0.8749291,0.7759599,0.7401651,0.41172317,-0.47891834,-0.42012256,5.294788,6.3974195,5.222484,0,1683969501.727285
0.8749291,0.7759599,0.7401651,0.41172317,-0.47891834,-0.42012256,5.292259,6.438514,5.1743236,0,1683969501.7324162
0.8749291,0.7759599,0.7401651,0.47784933,-0.47784933,-0.5832236,5.292259,6.438514,5.1743236,0,1683969501.7375448
0.8749291,0.7759599,0.7401651,0.49938235,-0.42302418,-0.7125743,5.292259,6.438514,5.1743236,0,1683969501.7426739
0.8749291,0.7759599,0.7401651,0.49938235,-0.42302418,-0.7125743,5.2793584,6.488996,5.1242,0,1683969501.7529392
0.85108626,0.7662032,0.73662835,0.49938235,-0.42302418,-0.7125743,5.2793584,6.488996,5.1242,0,1683969501.773427
0.85108626,0.7662032,0.73662835,0.5021312,-0.28970283,-0.8437576,5.2793584,6.488996,5.1242,0,1683969501.7888196
0.85108626,0.7662032,0.73662835,0.5021312,-0.28970283,-0.8437576,5.255273,6.545507,5.076865,0,1683969501.793949
0.84029293,0.7695571,0.7370552,0.5021312,-0.28970283,-0.8437576,5.255273,6.545507,5.076865,0,1683969501.7990801
0.87017274,0.8010833,0.7245545,0.5021312,-0.28970283,-0.8437576,5.255273,6.545507,5.076865,0,1683969501.8196049
0.87017274,0.8010833,0.7245545,0.5021312,-0.28970283,-0.8437576,5.2196827,6.606662,5.0341864,0,1683969501.8349972
0.87017274,0.8010833,0.7245545,2.1281018,-0.7838928,-3.5941784,5.2196827,6.606662,5.0341864,0,1683969501.8503776
0.87017274,0.8010833,0.7245545,2.1281018,-0.7838928,-3.5941784,0.23000228,9.674638,1.6076739,0,1683969501.870897
0.87017274,0.8010833,0.7245545,2.1484132,-0.9138544,-3.5824192,0.23000228,9.674638,1.6076739,0,1683969501.876029
0.071162686,0.76882535,0.122507155,2.1484132,-0.9138544,-3.5824192,0.23000228,9.674638,1.6076739,0,1683969501.886295
0.07323598,0.78766793,0.103115775,2.1484132,-0.9138544,-3.5824192,0.23000228,9.674638,1.6076739,0,1683969501.9067628
0.07323598,0.78766793,0.103115775,2.183996,-1.0758864,-3.6338847,0.23000228,9.674638,1.6076739,0,1683969501.9118545
0.07323598,0.78766793,0.103115775,2.183996,-1.0758864,-3.6338847,-0.07049082,9.706687,1.4182352,0,1683969501.9271789
0.047807667,0.7827286,0.109762505,2.183996,-1.0758864,-3.6338847,-0.07049082,9.706687,1.4182352,0,1683969501.9476728
0.047807667,0.7827286,0.109762505,2.183996,-1.0758864,-3.6338847,-0.52988744,9.729928,1.1330688,0,1683969501.9528081
0.047807667,0.7827286,0.109762505,2.2197316,-1.2121093,-3.7074938,-0.52988744,9.729928,1.1330688,0,1683969501.9682016
0.02042802,0.787546,0.11537258,2.2197316,-1.2121093,-3.7074938,-0.52988744,9.729928,1.1330688,0,1683969501.9784608
0.02042802,0.787546,0.11537258,2.222786,-1.2516629,-3.7633882,-0.52988744,9.729928,1.1330688,0,1683969501.9835863
0.02042802,0.787546,0.11537258,2.222786,-1.2516629,-3.7633882,-0.8428893,9.727854,0.9457866,0,1683969502.0040996
0.02042802,0.787546,0.11537258,2.2059872,-1.2322679,-3.807523,-0.8428893,9.727854,0.9457866,0,1683969502.0143619
0.02042802,0.787546,0.11537258,2.2059872,-1.2322679,-3.807523,-1.1635466,9.71085,0.7626799,0,1683969502.0246074
-0.010854292,0.7768136,0.115250625,2.2059872,-1.2322679,-3.807523,-1.1635466,9.71085,0.7626799,0,1683969502.0399995
-0.010854292,0.7768136,0.115250625,2.1261165,-1.1435398,-3.860821,-1.1635466,9.71085,0.7626799,0,1683969502.0553968
-0.052686002,0.7514463,0.102445,2.1261165,-1.1435398,-3.860821,-1.1635466,9.71085,0.7626799,0,1683969502.0707805
-0.052686002,0.7514463,0.102445,2.1261165,-1.1435398,-3.860821,-1.6556869,9.65625,0.50165427,0,1683969502.0759208
-0.052686002,0.7514463,0.102445,2.1261165,-1.1435398,-3.860821,-1.8216765,9.630275,0.41883782,0,1683969502.0964026
-0.052686002,0.7514463,0.102445,2.0941987,-1.1107057,-3.8782308,-1.8216765,9.630275,0.41883782,0,1683969502.1066606
-0.09067602,0.74022615,0.09500554,2.0941987,-1.1107057,-3.8782308,-1.8216765,9.630275,0.41883782,0,1683969502.1117892
-1.0673184,0.5508248,-0.37258273,2.0941987,-1.1107057,-3.8782308,-1.8216765,9.630275,0.41883782,0,1683969502.1271403
-1.0673184,0.5508248,-0.37258273,2.0941987,-1.1107057,-3.8782308,-6.54461,6.956782,-2.2377114,0,1683969502.147511
-1.0673184,0.5508248,-0.37258273,-0.05879578,0.6000224,-0.43768495,-6.54461,6.956782,-2.2377114,0,1683969502.1526365
-1.0673184,0.5508248,-0.37258273,-0.05879578,0.6000224,-0.43768495,-6.564896,6.9266763,-2.271428,0,1683969502.1782954
-1.0932955,0.5522273,-0.36258212,-0.05879578,0.6000224,-0.43768495,-6.564896,6.9266763,-2.271428,0,1683969502.1885152
-1.0932955,0.5522273,-0.36258212,-0.06963864,0.55771995,-0.28023443,-6.564896,6.9266763,-2.271428,0,1683969502.1936479
-1.0932955,0.5522273,-0.36258212,-0.063224554,0.45906523,-0.08078693,-6.564896,6.9266763,-2.271428,0,1683969502.209003
-1.1012838,0.5544836,-0.40331623,-0.063224554,0.45906523,-0.08078693,-6.564896,6.9266763,-2.271428,0,1683969502.2191978
-1.1012838,0.5544836,-0.40331623,-0.063224554,0.45906523,-0.08078693,-6.5759726,6.9061046,-2.3018348,0,1683969502.2243264
-1.089088,0.5610693,-0.45697787,-0.063224554,0.45906523,-0.08078693,-6.5759726,6.9061046,-2.3018348,0,1683969502.2448099
-1.089088,0.5610693,-0.45697787,-0.063682705,0.31978795,0.067500606,-6.5759726,6.9061046,-2.3018348,0,1683969502.2499428
-1.089088,0.5610693,-0.45697787,-0.063682705,0.31978795,0.067500606,-6.576707,6.8926787,-2.3396704,0,1683969502.255073
-1.089088,0.5610693,-0.45697787,-0.11530081,0.12843442,0.23884831,-6.576707,6.8926787,-2.3396704,0,1683969502.27555
-1.0696965,0.5682039,-0.49807784,-0.11530081,0.12843442,0.23884831,-6.576707,6.8926787,-2.3396704,0,1683969502.290945
-1.0696965,0.5682039,-0.49807784,-0.11530081,0.12843442,0.23884831,-6.5689178,6.8949766,-2.3547351,0,1683969502.301205
-1.0696965,0.5682039,-0.49807784,-0.15714508,0.068264194,0.30482176,-6.5689178,6.8949766,-2.3547351,0,1683969502.3063364
-1.0696965,0.5682039,-0.49807784,-0.15714508,0.068264194,0.30482176,-6.5629287,6.8995786,-2.3579383,0,1683969502.3217075
-1.0531102,0.57594824,-0.50039506,-0.15714508,0.068264194,0.30482176,-6.5629287,6.8995786,-2.3579383,0,1683969502.337095
-1.0126201,0.59930325,-0.4973461,-0.15714508,0.068264194,0.30482176,-6.5629287,6.8995786,-2.3579383,0,1683969502.3524494
-1.0126201,0.59930325,-0.4973461,-0.30115658,-0.0047342055,0.4372268,-6.5629287,6.8995786,-2.3579383,0,1683969502.3575742
-1.0126201,0.59930325,-0.4973461,-0.30115658,-0.0047342055,0.4372268,-6.535847,6.9278913,-2.3501394,0,1683969502.3678083
-1.0049977,0.59991306,-0.4774059,-0.30115658,-0.0047342055,0.4372268,-6.535847,6.9278913,-2.3501394,0,1683969502.3831854
-1.0049977,0.59991306,-0.4774059,-0.45249844,-0.033750303,0.54275376,-6.535847,6.9278913,-2.3501394,0,1683969502.3934062
-1.0049977,0.59991306,-0.4774059,-2.01387,1.0708468,4.130976,-6.535847,6.9278913,-2.3501394,0,1683969502.4292672
0.10451829,0.734738,0.16635117,-2.01387,1.0708468,4.130976,-6.535847,6.9278913,-2.3501394,0,1683969502.4343748
0.10451829,0.734738,0.16635117,-2.01387,1.0708468,4.130976,-0.82205933,9.757474,0.5933123,0,1683969502.4394724
0.1387886,0.740592,0.15781409,-2.01387,1.0708468,4.130976,-0.82205933,9.757474,0.5933123,0,1683969502.459893
0.1387886,0.740592,0.15781409,-2.0494528,1.134224,4.101197,-0.82205933,9.757474,0.5933123,0,1683969502.4649825
0.1387886,0.740592,0.15781409,-2.0494528,1.134224,4.101197,-0.2757262,9.768414,0.8591788,0,1683969502.4700923
0.17385161,0.74803144,0.16915621,-2.0494528,1.134224,4.101197,-0.2757262,9.768414,0.8591788,0,1683969502.4803116
0.17385161,0.74803144,0.16915621,-2.0554087,1.1414018,4.060879,-0.2757262,9.768414,0.8591788,0,1683969502.4905715
0.17385161,0.74803144,0.16915621,-2.0554087,1.1414018,4.060879,0.08320545,9.753978,1.0436105,0,1683969502.5110927
0.17385161,0.74803144,0.16915621,-2.0448713,1.0946705,4.0149117,0.08320545,9.753978,1.0436105,0,1683969502.5162292
0.1952553,0.73553073,0.17757133,-2.0448713,1.0946705,4.0149117,0.08320545,9.753978,1.0436105,0,1683969502.521365
0.1952553,0.73553073,0.17757133,-2.0448713,1.0946705,4.0149117,0.43520507,9.722737,1.2308787,0,1683969502.5264945
0.1952553,0.73553073,0.17757133,-2.0172298,1.0395399,3.9665008,0.43520507,9.722737,1.2308787,0,1683969502.5623143
0.1952553,0.73553073,0.17757133,-2.0172298,1.0395399,3.9665008,0.78097856,9.675278,1.4195753,0,1683969502.567428
0.24135554,0.7449825,0.21117085,-2.0172298,1.0395399,3.9665008,0.78097856,9.675278,1.4195753,0,1683969502.5725539
0.2595883,0.73601854,0.25440508,-2.0172298,1.0395399,3.9665008,0.78097856,9.675278,1.4195753,0,1683969502.587946
0.2595883,0.73601854,0.25440508,-2.0172298,1.0395399,3.9665008,1.1193464,9.612292,1.6084341,0,1683969502.5981667
0.2595883,0.73601854,0.25440508,-1.9931005,0.9914343,3.893655,1.1193464,9.612292,1.6084341,0,1683969502.6186495
0.2595883,0.73601854,0.25440508,-1.9931005,0.9914343,3.893655,1.4487525,9.534473,1.7975113,0,1683969502.6391642
0.2595883,0.73601854,0.25440508,-1.9793562,0.9767735,3.8595994,1.4487525,9.534473,1.7975113,0,1683969502.6442993
0.26379588,0.72638386,0.26849127,-1.9793562,0.9767735,3.8595994,1.4487525,9.534473,1.7975113,0,1683969502.6494343
0.26379588,0.72638386,0.26849127,-1.9407189,0.95478237,3.8050797,1.4487525,9.534473,1.7975113,0,1683969502.659701
0.2920902,0.719981,0.33306822,-1.9407189,0.95478237,3.8050797,1.4487525,9.534473,1.7975113,0,1683969502.6750524
0.2920902,0.719981,0.33306822,-1.9407189,0.95478237,3.8050797,5.98202,6.1370444,4.773702,0,1683969502.690441
0.8580988,0.714188,0.66711205,-1.9407189,0.95478237,3.8050797,5.98202,6.1370444,4.773702,0,1683969502.7058318
0.8580988,0.714188,0.66711205,0.37003163,-0.312763,-0.5332854,5.98202,6.1370444,4.773702,0,1683969502.7160869
0.8354146,0.7140051,0.63643956,0.37003163,-0.312763,-0.5332854,5.98202,6.1370444,4.773702,0,1683969502.7212195
0.8354146,0.7140051,0.63643956,0.3388775,-0.20754147,-0.5523749,5.98202,6.1370444,4.773702,0,1683969502.7416654
0.8354146,0.7140051,0.63643956,0.3388775,-0.20754147,-0.5523749,5.9652166,6.1799016,4.7393174,0,1683969502.7518938
0.8354146,0.7140051,0.63643956,0.3388775,-0.20754147,-0.5523749,5.9429946,6.222441,4.7114935,0,1683969502.7621732
0.8437687,0.74632406,0.620463,0.3388775,-0.20754147,-0.5523749,5.9429946,6.222441,4.7114935,0,1683969502.77239
0.8437687,0.74632406,0.620463,0.2919936,-0.11224649,-0.5859725,5.9429946,6.222441,4.7114935,0,1683969502.7877853
0.8729778,0.7793747,0.62826836,0.2919936,-0.11224649,-0.5859725,5.9429946,6.222441,4.7114935,0,1683969502.8031418
0.8729778,0.7793747,0.62826836,0.2919936,-0.11224649,-0.5859725,5.9152765,6.2654495,4.6893244,0,1683969502.8082736
0.8729778,0.7793747,0.62826836,0.2751948,-0.052534413,-0.676686,5.9152765,6.2654495,4.6893244,0,1683969502.8134046
0.88828355,0.8008394,0.65979457,0.2751948,-0.052534413,-0.676686,5.9152765,6.2654495,4.6893244,0,1683969502.8339336
0.88828355,0.8008394,0.65979457,0.31688634,-0.0015271631,-0.86330533,5.9152765,6.2654495,4.6893244,0,1683969502.8493254
0.88828355,0.8008394,0.65979457,0.31688634,-0.0015271631,-0.86330533,5.879316,6.312962,4.670789,0,1683969502.8595576
0.88828355,0.8008394,0.65979457,0.31688634,-0.0015271631,-0.86330533,5.832847,6.3689985,4.652942,0,1683969502.8749115
0.88828355,0.8008394,0.65979457,0.37033707,0.025503624,-0.9925033,5.832847,6.3689985,4.652942,0,1683969502.8800547
0.89053977,0.8159013,0.6776615,0.37033707,0.025503624,-0.9925033,5.832847,6.3689985,4.652942,0,1683969502.8902886
0.89053977,0.8159013,0.6776615,0.5143485,0.02687807,-1.2319624,5.832847,6.3689985,4.652942,0,1683969502.9108024
0.8827344,0.81980395,0.6810154,0.5143485,0.02687807,-1.2319624,5.832847,6.3689985,4.652942,0,1683969502.9210665
0.8827344,0.81980395,0.6810154,0.5143485,0.02687807,-1.2319624,5.774332,6.4368644,4.632492,0,1683969502.9262
0.8827344,0.81980395,0.6810154,0.5143485,0.02687807,-1.2319624,5.664556,6.565106,4.587843,0,1683969502.9363785
0.86828244,0.8113888,0.6529039,0.5143485,0.02687807,-1.2319624,5.664556,6.565106,4.587843,0,1683969502.946598
0.86828244,0.8113888,0.6529039,0.5143485,0.02687807,-1.2319624,3.9413705,8.313337,3.4044251,0,1683969502.9618924
0.86828244,0.8113888,0.6529039,1.6433803,-0.50823987,-3.0821207,3.9413705,8.313337,3.4044251,0,1683969502.977217
0.5256404,0.790412,0.36185038,1.6433803,-0.50823987,-3.0821207,3.9413705,8.313337,3.4044251,0,1683969502.992607
0.5256404,0.790412,0.36185038,1.6433803,-0.50823987,-3.0821207,3.733416,8.464748,3.2627857,0,1683969502.997737
0.5256404,0.790412,0.36185038,1.7299703,-0.60154957,-3.2606459,3.733416,8.464748,3.2627857,0,1683969503.0028706
0.5256404,0.790412,0.36185038,1.7299703,-0.60154957,-3.2606459,3.3961926,8.6854,3.0439758,0,1683969503.018263
0.52375007,0.8005345,0.35117903,1.7299703,-0.60154957,-3.2606459,3.3961926,8.6854,3.0439758,0,1683969503.023354
0.52289635,0.80333954,0.33764166,1.8493946,-0.73624533,-3.399618,3.3961926,8.6854,3.0439758,0,1683969503.0285223
0.52289635,0.80333954,0.33764166,1.8493946,-0.73624533,-3.399618,3.1558497,8.829058,2.8852134,0,1683969503.033652
0.52289635,0.80333954,0.33764166,2.019826,-0.9283624,-3.5781431,3.1558497,8.829058,2.8852134,0,1683969503.0643108
0.52289635,0.80333954,0.33764166,2.019826,-0.9283624,-3.5781431,2.9020019,8.970011,2.71172,0,1683969503.069427
0.4736252,0.7920584,0.33300725,2.019826,-0.9283624,-3.5781431,2.9020019,8.970011,2.71172,0,1683969503.084785
0.4736252,0.7920584,0.33300725,2.019826,-0.9283624,-3.5781431,2.6352804,9.106166,2.5237174,0,1683969503.0899148
0.4189269,0.78516775,0.33562934,2.019826,-0.9283624,-3.5781431,2.6352804,9.106166,2.5237174,0,1683969503.100171
0.4189269,0.78516775,0.33562934,2.1598668,-1.0554224,-3.6914587,2.6352804,9.106166,2.5237174,0,1683969503.120696
0.35221568,0.7660203,0.31544524,2.1598668,-1.0554224,-3.6914587,2.6352804,9.106166,2.5237174,0,1683969503.1411724
0.35221568,0.7660203,0.31544524,2.1598668,-1.0554224,-3.6914587,2.3551145,9.235799,2.3215466,0,1683969503.1513922
0.35221568,0.7660203,0.31544524,2.27868,-1.1468995,-3.7610974,2.3551145,9.235799,2.3215466,0,1683969503.1564806
0.3006273,0.7510804,0.24300198,2.27868,-1.1468995,-3.7610974,2.3551145,9.235799,2.3215466,0,1683969503.1718695
0.3006273,0.7510804,0.24300198,2.3715315,-1.2481505,-3.811341,2.3551145,9.235799,2.3215466,0,1683969503.1770008
0.3006273,0.7510804,0.24300198,2.3715315,-1.2481505,-3.811341,1.9165375,9.411083,1.9986304,0,1683969503.1821375
0.2774552,0.7596175,0.21184163,2.3715315,-1.2481505,-3.811341,1.9165375,9.411083,1.9986304,0,1683969503.1974568
0.2774552,0.7596175,0.21184163,2.3715315,-1.2481505,-3.811341,1.7660444,9.463359,1.8873369,0,1683969503.2077153
-0.85755,0.43514732,-0.27422333,2.3715315,-1.2481505,-3.811341,1.7660444,9.463359,1.8873369,0,1683969503.2435877
-0.85755,0.43514732,-0.27422333,2.3715315,-1.2481505,-3.811341,-5.2387633,8.10411,-1.7649084,0,1683969503.2487268
-0.85755,0.43514732,-0.27422333,1.1687379,0.46395215,-2.4953845,-5.2387633,8.10411,-1.7649084,0,1683969503.2538543
-0.85755,0.43514732,-0.27422333,1.1687379,0.46395215,-2.4953845,-5.4202275,7.9586916,-1.8752342,0,1683969503.2692392
-0.84431756,0.48521125,-0.3473983,1.1687379,0.46395215,-2.4953845,-5.4202275,7.9586916,-1.8752342,0,1683969503.2846203
-0.84431756,0.48521125,-0.3473983,0.8013025,0.7473936,-2.1073325,-5.4202275,7.9586916,-1.8752342,0,1683969503.2897508
-0.84431756,0.48521125,-0.3473983,0.8013025,0.7473936,-2.1073325,-5.624738,7.7794795,-2.0194383,0,1683969503.3000102
-0.83065826,0.54399514,-0.42203683,0.8013025,0.7473936,-2.1073325,-5.624738,7.7794795,-2.0194383,0,1683969503.3102727
-0.83065826,0.54399514,-0.42203683,0.4098906,1.0268645,-1.7631098,-5.624738,7.7794795,-2.0194383,0,1683969503.3307528
-0.8362683,0.5656428,-0.4434405,0.4098906,1.0268645,-1.7631098,-5.624738,7.7794795,-2.0194383,0,1683969503.3410168
-0.8362683,0.5656428,-0.4434405,0.4098906,1.0268645,-1.7631098,-5.679727,7.728085,-2.062409,0,1683969503.3461459
-0.8362683,0.5656428,-0.4434405,0.17745635,1.1032226,-1.5671748,-5.679727,7.728085,-2.062409,0,1683969503.366628
-0.8362683,0.5656428,-0.4434405,0.056199603,1.0905472,-1.4104879,-5.679727,7.728085,-2.062409,0,1683969503.3819783
-0.8362683,0.5656428,-0.4434405,0.056199603,1.0905472,-1.4104879,-5.819048,7.5926285,-2.1741123,0,1683969503.3871121
-0.8628552,0.58021677,-0.42228076,0.056199603,1.0905472,-1.4104879,-5.819048,7.5926285,-2.1741123,0,1683969503.392245
-0.8628552,0.58021677,-0.42228076,0.045662176,0.9831876,-1.229519,-5.819048,7.5926285,-2.1741123,0,1683969503.4127674
-0.8628552,0.58021677,-0.42228076,0.045662176,0.9831876,-1.229519,-5.896465,7.5139513,-2.2379417,0,1683969503.4230275
-0.89035684,0.59472984,-0.40459678,0.045662176,0.9831876,-1.229519,-5.896465,7.5139513,-2.2379417,0,1683969503.438379
-0.89035684,0.59472984,-0.40459678,0.12797627,0.7512115,-1.0900891,-5.896465,7.5139513,-2.2379417,0,1683969503.453759
-0.89035684,0.59472984,-0.40459678,0.12797627,0.7512115,-1.0900891,-5.964758,7.441847,-2.2971103,0,1683969503.4691432
-0.8991378,0.6188776,-0.41343874,0.12797627,0.7512115,-1.0900891,-5.964758,7.441847,-2.2971103,0,1683969503.4742773
-0.9195048,0.6057061,-0.4246589,0.12797627,0.7512115,-1.0900891,-5.964758,7.441847,-2.2971103,0,1683969503.4794035
-0.9195048,0.6057061,-0.4246589,0.19547687,0.56184334,-0.97035944,-5.964758,7.441847,-2.2971103,0,1683969503.494797
-0.69132084,0.5730822,-0.15305771,0.19547687,0.56184334,-0.97035944,-5.964758,7.441847,-2.2971103,0,1683969503.49992
-0.69132084,0.5730822,-0.15305771,0.19547687,0.56184334,-0.97035944,-5.3384023,8.079841,-1.5664622,0,1683969503.5050137
-0.69132084,0.5730822,-0.15305771,-1.1823297,-0.3903429,2.4555256,-5.3384023,8.079841,-1.5664622,0,1683969503.5203655
-0.69132084,0.5730822,-0.15305771,-1.1656836,-0.34513888,2.6409233,-5.3384023,8.079841,-1.5664622,0,1683969503.5408852
-0.65412354,0.5815583,-0.11171384,-1.1656836,-0.34513888,2.6409233,-5.3384023,8.079841,-1.5664622,0,1683969503.5613844
-0.65412354,0.5815583,-0.11171384,-1.1656836,-0.34513888,2.6409233,-5.0762577,8.275541,-1.4082406,0,1683969503.5665157
-0.65412354,0.5815583,-0.11171384,-1.1475104,-0.29657507,2.7870727,-5.0762577,8.275541,-1.4082406,0,1683969503.571635
-0.65412354,0.5815583,-0.11171384,-1.1475104,-0.29657507,2.7870727,-4.8828187,8.407719,-1.3055705,0,1683969503.5870228
-0.6062549,0.59088814,-0.10854292,-1.1475104,-0.29657507,2.7870727,-4.8828187,8.407719,-1.3055705,0,1683969503.6024148
-0.6062549,0.59088814,-0.10854292,-1.1336132,-0.28008172,2.895654,-4.8828187,8.407719,-1.3055705,0,1683969503.6075375
-0.57357,0.60308397,-0.11323831,-1.1336132,-0.28008172,2.895654,-4.8828187,8.407719,-1.3055705,0,1683969503.617793
-0.57357,0.60308397,-0.11323831,-1.1336132,-0.28008172,2.895654,-4.779921,8.474276,-1.2550459,0,1683969503.6383107
-0.5257014,0.6114381,-0.112994395,-1.1336132,-0.28008172,2.895654,-4.779921,8.474276,-1.2550459,0,1683969503.6588237
-0.5257014,0.6114381,-0.112994395,-1.1191051,-0.27931812,3.0677652,-4.779921,8.474276,-1.2550459,0,1683969503.66393
-0.5257014,0.6114381,-0.112994395,-1.1191051,-0.27931812,3.0677652,-4.448953,8.672899,-1.1062336,0,1683969503.6690614
-0.47057623,0.6154627,-0.10488417,-1.1191051,-0.27931812,3.0677652,-4.448953,8.672899,-1.1062336,0,1683969503.6844187
-0.47057623,0.6154627,-0.10488417,-1.1191051,-0.27931812,3.0677652,-4.209984,8.803239,-1.007542,0,1683969503.6946707
-0.47057623,0.6154627,-0.10488417,-1.1192578,-0.267559,3.2287283,-4.209984,8.803239,-1.007542,0,1683969503.6998024
-0.450819,0.5991813,-0.07280912,-1.1192578,-0.267559,3.2287283,-4.209984,8.803239,-1.007542,0,1683969503.7151833
-0.450819,0.5991813,-0.07280912,-1.1443033,-0.20815234,3.4223726,-4.209984,8.803239,-1.007542,0,1683969503.7305648
-0.450819,0.5991813,-0.07280912,-1.1443033,-0.20815234,3.4223726,-3.8232057,8.993481,-0.858228,0,1683969503.7407677
-0.450819,0.5991813,-0.07280912,-1.1443033,-0.20815234,3.4223726,-3.5449784,9.1157465,-0.756583,0,1683969503.7458975
-0.450819,0.5991813,-0.07280912,-1.1669053,-0.13148874,3.5828774,-3.5449784,9.1157465,-0.756583,0,1683969503.7561522
-0.4376475,0.59320533,-0.014574022,-1.1669053,-0.13148874,3.5828774,-3.5449784,9.1157465,-0.756583,0,1683969503.766412
-0.4376475,0.59320533,-0.014574022,-1.1669053,-0.13148874,3.5828774,5.943411,6.5571246,4.2327414,0,1683969503.781757
1.1176262,0.804925,0.67906404,-1.1669053,-0.13148874,3.5828774,5.943411,6.5571246,4.2327414,0,1683969503.7868917
1.1176262,0.804925,0.67906404,-0.5514586,0.025961773,1.2444853,5.943411,6.5571246,4.2327414,0,1683969503.7920249
1.1176262,0.804925,0.67906404,-0.5514586,0.025961773,1.2444853,6.0148563,6.473818,4.2599645,0,1683969503.8227928
1.1176262,0.804925,0.67906404,-0.3397938,-0.11728613,0.91706145,6.0148563,6.473818,4.2599645,0,1683969503.8278904
1.1654338,0.8330974,0.6787591,-0.3397938,-0.11728613,0.91706145,6.0148563,6.473818,4.2599645,0,1683969503.8329852
1.1654338,0.8330974,0.6787591,-0.14065172,-0.25259277,0.47601673,6.0148563,6.473818,4.2599645,0,1683969503.8483057
1.1654338,0.8330974,0.6787591,-0.14065172,-0.25259277,0.47601673,6.071019,6.416032,4.267715,0,1683969503.8534412
1.1844593,0.85444015,0.67930794,-0.14065172,-0.25259277,0.47601673,6.071019,6.416032,4.267715,0,1683969503.868789
1.1628118,0.860721,0.69125986,-0.14065172,-0.25259277,0.47601673,6.071019,6.416032,4.267715,0,1683969503.8944335
1.1628118,0.860721,0.69125986,-0.012675454,-0.31673363,0.13179417,6.071019,6.416032,4.267715,0,1683969503.9046395
1.1628118,0.860721,0.69125986,-0.012675454,-0.31673363,0.13179417,6.1097817,6.3836026,4.2610188,0,1683969503.909771
1.1115283,0.8330974,0.7041264,-0.012675454,-0.31673363,0.13179417,6.1097817,6.3836026,4.2610188,0,1683969503.9149013
1.1115283,0.8330974,0.7041264,0.11484267,-0.36483926,-0.15393804,6.1097817,6.3836026,4.2610188,0,1683969503.925156
1.1115283,0.8330974,0.7041264,0.11484267,-0.36483926,-0.15393804,6.13115,6.374871,4.243366,0,1683969503.9302852
1.1115283,0.8330974,0.7041264,0.2602286,-0.37812558,-0.39950588,6.13115,6.374871,4.243366,0,1683969503.9507592
0.9854843,0.7993759,0.71559054,0.2602286,-0.37812558,-0.39950588,6.13115,6.374871,4.243366,0,1683969503.9814534
0.9854843,0.7993759,0.71559054,0.3651447,-0.3483459,-0.52473325,6.13115,6.374871,4.243366,0,1683969503.9968207
0.9854843,0.7993759,0.71559054,0.3651447,-0.3483459,-0.52473325,6.1262608,6.431383,4.164414,0,1683969504.0019097
0.94414043,0.80016863,0.6926014,0.3651447,-0.3483459,-0.52473325,6.1262608,6.431383,4.164414,0,1683969504.01217
0.94414043,0.80016863,0.6926014,0.3651447,-0.3483459,-0.52473325,6.1074185,6.4744306,4.1252027,0,1683969504.0173047
0.94414043,0.80016863,0.6926014,0.44257188,-0.2744312,-0.6038403,6.1074185,6.4744306,4.1252027,0,1683969504.032692
0.94414043,0.80016863,0.6926014,0.44257188,-0.2744312,-0.6038403,6.0807333,6.5238895,4.086524,0,1683969504.048093
0.94414043,0.80016863,0.6926014,1.5774068,-0.25244007,-3.1410692,6.0807333,6.5238895,4.086524,0,1683969504.0634613
0.94414043,0.80016863,0.6926014,1.5774068,-0.25244007,-3.1410692,3.9168568,8.490958,2.9661348,0,1683969504.0685945
0.5975349,0.7777283,0.40447482,1.5774068,-0.25244007,-3.1410692,3.9168568,8.490958,2.9661348,0,1683969504.0839818
0.535641,0.7678497,0.39685243,1.5774068,-0.25244007,-3.1410692,3.9168568,8.490958,2.9661348,0,1683969504.0890756
0.535641,0.7678497,0.39685243,1.6302466,-0.16157386,-3.2290337,3.9168568,8.490958,2.9661348,0,1683969504.104383
0.535641,0.7678497,0.39685243,1.6302466,-0.16157386,-3.2290337,3.561448,8.710121,2.772364,0,1683969504.1197698
0.47832057,0.75254387,0.35880142,1.6302466,-0.16157386,-3.2290337,3.561448,8.710121,2.772364,0,1683969504.1351497
0.47832057,0.75254387,0.35880142,1.6302466,-0.16157386,-3.2290337,3.311186,8.84918,2.6389697,0,1683969504.1505306
0.47832057,0.75254387,0.35880142,1.6867516,-0.1255328,-3.2630894,3.311186,8.84918,2.6389697,0,1683969504.155633
0.47832057,0.75254387,0.35880142,1.6867516,-0.1255328,-3.2630894,3.0544784,8.980959,2.4997303,0,1683969504.1761248
0.47832057,0.75254387,0.35880142,1.7421877,-0.14370605,-3.2797356,3.0544784,8.980959,2.4997303,0,1683969504.181273
0.43539125,0.7415067,0.304347,1.7421877,-0.14370605,-3.2797356,3.0544784,8.980959,2.4997303,0,1683969504.1915176
0.43539125,0.7415067,0.304347,1.7421877,-0.14370605,-3.2797356,2.791928,9.1054535,2.3520186,0,1683969504.2017715
0.3855713,0.7363235,0.25031948,1.7421877,-0.14370605,-3.2797356,2.791928,9.1054535,2.3520186,0,1683969504.2069056
0.3855713,0.7363235,0.25031948,1.7993035,-0.23289238,-3.310737,2.791928,9.1054535,2.3520186,0,1683969504.2222936
0.310262,0.7161393,0.2063535,1.7993035,-0.23289238,-3.310737,2.791928,9.1054535,2.3520186,0,1683969504.2274125
0.310262,0.7161393,0.2063535,1.7993035,-0.23289238,-3.310737,2.5255086,9.221768,2.1947508,0,1683969504.2427921
0.310262,0.7161393,0.2063535,1.881465,-0.43004912,-3.32891,2.5255086,9.221768,2.1947508,0,1683969504.2530575
0.29635876,0.7271156,0.17866896,1.881465,-0.43004912,-3.32891,2.5255086,9.221768,2.1947508,0,1683969504.2735255
0.29635876,0.7271156,0.17866896,1.982105,-0.67347896,-3.324634,2.5255086,9.221768,2.1947508,0,1683969504.2786615
0.29635876,0.7271156,0.17866896,1.982105,-0.67347896,-3.324634,2.257721,9.329002,2.0269585,0,1683969504.28379
0.29635876,0.7271156,0.17866896,2.0642664,-0.8730792,-3.3476942,2.257721,9.329002,2.0269585,0,1683969504.299185
0.29635876,0.7271156,0.17866896,2.0642664,-0.8730792,-3.3476942,1.855207,9.471983,1.7538092,0,1683969504.3196867
-0.8130962,0.5518005,-0.29751736,2.0642664,-0.8730792,-3.3476942,1.855207,9.471983,1.7538092,0,1683969504.3299394
-0.8130962,0.5518005,-0.29751736,2.0642664,-0.8730792,-3.3476942,-5.365218,7.908981,-2.21327,0,1683969504.335067
-0.8130962,0.5518005,-0.29751736,0.8037459,0.3539964,-1.6563611,-5.365218,7.908981,-2.21327,0,1683969504.3453188
-0.8130962,0.5518005,-0.29751736,0.7276932,0.43233988,-1.5413657,-5.365218,7.908981,-2.21327,0,1683969504.3504524
-0.8130962,0.56344754,-0.29751736,0.7276932,0.43233988,-1.5413657,-5.365218,7.908981,-2.21327,0,1683969504.3555832
-0.8130962,0.56344754,-0.29751736,0.7276932,0.43233988,-1.5413657,-5.4263625,7.856084,-2.2522557,0,1683969504.370911
-0.8130962,0.56344754,-0.29751736,0.7276932,0.43233988,-1.5413657,-5.6197405,7.674226,-2.4001856,0,1683969504.3913805
-0.8130962,0.56344754,-0.29751736,0.5497787,0.6606508,-1.212873,-5.6197405,7.674226,-2.4001856,0,1683969504.4015906
-0.8344389,0.57296026,-0.31751853,0.5497787,0.6606508,-1.212873,-5.6197405,7.674226,-2.4001856,0,1683969504.4067156
-0.8344389,0.57296026,-0.31751853,0.5497787,0.6606508,-1.212873,-5.6573353,7.6348524,-2.4371552,0,1683969504.4323149
-0.8346219,0.57911915,-0.35288644,0.5497787,0.6606508,-1.212873,-5.6573353,7.6348524,-2.4371552,0,1683969504.4374466
-0.8346219,0.57911915,-0.35288644,0.50823987,0.68661255,-1.0948232,-5.6573353,7.6348524,-2.4371552,0,1683969504.4425783
-0.81852335,0.61180395,-0.41343874,0.50823987,0.68661255,-1.0948232,-5.6573353,7.6348524,-2.4371552,0,1683969504.4682186
-0.81852335,0.61180395,-0.41343874,0.48915035,0.6010914,-0.9335548,-5.6573353,7.6348524,-2.4371552,0,1683969504.4785018
-0.81852335,0.61180395,-0.41343874,0.48915035,0.6010914,-0.9335548,-5.722448,7.562358,-2.510073,0,1683969504.4835927
-0.81852335,0.61180395,-0.41343874,0.4914411,0.45677447,-0.8168796,-5.722448,7.562358,-2.510073,0,1683969504.5091488
-0.81852335,0.61180395,-0.41343874,0.4914411,0.45677447,-0.8168796,-5.804009,7.4652553,-2.6114392,0,1683969504.514242
-0.8217553,0.6111942,-0.4366718,0.4914411,0.45677447,-0.8168796,-5.804009,7.4652553,-2.6114392,0,1683969504.5193353
-0.8217553,0.6111942,-0.4366718,0.4729624,0.364992,-0.72387534,-5.804009,7.4652553,-2.6114392,0,1683969504.5398517
-0.83974415,0.60966974,-0.44453815,0.4729624,0.364992,-0.72387534,-5.804009,7.4652553,-2.6114392,0,1683969504.5449831
-0.83974415,0.60966974,-0.44453815,0.4729624,0.364992,-0.72387534,-5.8522906,7.4060316,-2.6716151,0,1683969504.56034
-0.8826125,0.6099746,-0.45978296,0.4729624,0.364992,-0.72387534,-5.8522906,7.4060316,-2.6716151,0,1683969504.5654774
-0.8826125,0.6099746,-0.45978296,0.41233405,0.2863431,-0.59941155,-5.8522906,7.4060316,-2.6716151,0,1683969504.5706077
-0.8826125,0.6099746,-0.45978296,0.41233405,0.2863431,-0.59941155,-5.9158444,7.3263288,-2.750241,0,1683969504.5859537
-0.8826125,0.6099746,-0.45978296,-1.0048733,-0.24205536,1.4311045,-5.9158444,7.3263288,-2.750241,0,1683969504.6167293
-0.8826125,0.6099746,-0.45978296,-1.0048733,-0.24205536,1.4311045,-5.6420217,7.606701,-2.5576932,0,1683969504.6218617
-0.80742514,0.6150359,-0.4555144,-1.0048733,-0.24205536,1.4311045,-5.6420217,7.606701,-2.5576932,0,1683969504.6269615
-0.78541166,0.60948676,-0.40258446,-1.0048733,-0.24205536,1.4311045,-5.6420217,7.606701,-2.5576932,0,1683969504.6372328
-0.78541166,0.60948676,-0.40258446,-1.1189524,-0.3193298,1.6626225,-5.6420217,7.606701,-2.5576932,0,1683969504.6423607
-0.78541166,0.60948676,-0.40258446,-1.1189524,-0.3193298,1.6626225,-5.4994664,7.750688,-2.4328623,0,1683969504.6628752
-0.78541166,0.60948676,-0.40258446,-1.1479685,-0.37415496,1.8176296,-5.4994664,7.750688,-2.4328623,0,1683969504.6781588
-0.78541166,0.60948676,-0.40258446,-1.1479685,-0.37415496,1.8176296,-5.3906274,7.855323,-2.3390431,0,1683969504.6832523
-0.75864184,0.6171092,-0.33751968,-1.1479685,-0.37415496,1.8176296,-5.3906274,7.855323,-2.3390431,0,1683969504.6883972
-0.75595874,0.6041816,-0.31038398,-1.1479685,-0.37415496,1.8176296,-5.3906274,7.855323,-2.3390431,0,1683969504.7191186
-0.75595874,0.6041816,-0.31038398,-1.1479685,-0.37415496,1.8176296,-5.3317294,7.909832,-2.289834,0,1683969504.7242491
-0.75595874,0.6041816,-0.31038398,-1.1675162,-0.38591412,1.9798143,-5.3317294,7.909832,-2.289834,0,1683969504.7345004
-0.75595874,0.6041816,-0.31038398,-1.1675162,-0.38591412,1.9798143,-5.1351533,8.080454,-2.1383543,0,1683969504.749886
-0.75595874,0.6041816,-0.31038398,-1.1997393,-0.37186423,2.1711679,-5.1351533,8.080454,-2.1383543,0,1683969504.7601433
-0.7501657,0.5713748,-0.29428545,-1.1997393,-0.37186423,2.1711679,-5.1351533,8.080454,-2.1383543,0,1683969504.7652776
-0.71132195,0.57058203,-0.2669668,-1.1997393,-0.37186423,2.1711679,-5.1351533,8.080454,-2.1383543,0,1683969504.7857614
-0.71132195,0.57058203,-0.2669668,-1.1997393,-0.37186423,2.1711679,-4.984343,8.200949,-2.0339353,0,1683969504.7960067
-0.71132195,0.57058203,-0.2669668,-1.24082,-0.3933972,2.4150558,-4.984343,8.200949,-2.0339353,0,1683969504.8011374
-0.6385738,0.58265597,-0.21184163,-1.24082,-0.3933972,2.4150558,-4.984343,8.200949,-2.0339353,0,1683969504.8216443
-0.6385738,0.58265597,-0.21184163,-1.24082,-0.3933972,2.4150558,-4.8158994,8.326905,-1.9250672,0,1683969504.8267763
-0.6385738,0.58265597,-0.21184163,-1.2631166,-0.4147775,2.6308439,-4.8158994,8.326905,-1.9250672,0,1683969504.83191
-0.5886929,0.5834487,-0.16604628,-1.2631166,-0.4147775,2.6308439,-4.8158994,8.326905,-1.9250672,0,1683969504.8523855
-0.5886929,0.5834487,-0.16604628,-1.3006848,-0.3295618,2.8182268,-4.8158994,8.326905,-1.9250672,0,1683969504.8677645
-0.5886929,0.5834487,-0.16604628,-1.3006848,-0.3295618,2.8182268,-4.532841,8.520945,-1.7558295,0,1683969504.8728998
0.46923468,0.5991203,0.2550149,-1.3006848,-0.3295618,2.8182268,-4.532841,8.520945,-1.7558295,0,1683969504.8882842
0.46923468,0.5991203,0.2550149,-1.9724839,1.138042,3.9649737,-4.532841,8.520945,-1.7558295,0,1683969504.8985066
0.46923468,0.5991203,0.2550149,-1.9724839,1.138042,3.9649737,3.6935995,8.717827,2.567671,0,1683969504.9036345
0.55283713,0.5714967,0.30495682,-1.9724839,1.138042,3.9649737,3.6935995,8.717827,2.567671,0,1683969504.913852
0.55283713,0.5714967,0.30495682,-1.9724839,1.138042,3.9649737,3.9859076,8.527674,2.7617805,0,1683969504.9241118
0.55283713,0.5714967,0.30495682,-1.968666,0.9837985,4.060879,3.9859076,8.527674,2.7617805,0,1683969504.9394956
0.55283713,0.5714967,0.30495682,-1.9949331,0.9410379,4.153731,3.9859076,8.527674,2.7617805,0,1683969504.9600136
0.55283713,0.5714967,0.30495682,-1.9949331,0.9410379,4.153731,4.279113,8.31937,2.9518466,0,1683969504.9651442
0.6533918,0.5778386,0.36313096,-1.9949331,0.9410379,4.153731,4.279113,8.31937,2.9518466,0,1683969504.9804902
0.7485803,0.5991203,0.42173192,-1.9949331,0.9410379,4.153731,4.279113,8.31937,2.9518466,0,1683969504.9958565
0.7485803,0.5991203,0.42173192,-1.9949331,0.9410379,4.153731,4.4255033,8.207898,3.0465462,0,1683969505.0009706
0.7485803,0.5991203,0.42173192,-2.0384574,0.99112886,4.193437,4.4255033,8.207898,3.0465462,0,1683969505.011125
0.7485803,0.5991203,0.42173192,-2.1681135,1.2318097,4.143957,4.4255033,8.207898,3.0465462,0,1683969505.0366037
0.89236915,0.6530869,0.49704117,-2.1681135,1.2318097,4.143957,4.4255033,8.207898,3.0465462,0,1683969505.0468667
0.89236915,0.6530869,0.49704117,-2.1681135,1.2318097,4.143957,4.8493543,7.8466973,3.339044,0,1683969505.0519783
0.89236915,0.6530869,0.49704117,-2.1681135,1.2318097,4.143957,5.2230105,7.452749,3.6623518,0,1683969505.0673323
0.89236915,0.6530869,0.49704117,-2.3087652,1.5071573,3.9064832,5.2230105,7.452749,3.6623518,0,1683969505.0724633
1.0349385,0.71168786,0.5441781,-2.3087652,1.5071573,3.9064832,5.2230105,7.452749,3.6623518,0,1683969505.0775921
1.0349385,0.71168786,0.5441781,-2.3087652,1.5071573,3.9064832,5.4296284,7.1829553,3.8936388,0,1683969505.0878606
1.1378103,0.74955595,0.61345047,-2.3087652,1.5071573,3.9064832,5.4296284,7.1829553,3.8936388,0,1683969505.1082609
1.1378103,0.74955595,0.61345047,-2.3590088,1.6194037,3.5188892,5.4296284,7.1829553,3.8936388,0,1683969505.1184952
1.1378103,0.74955595,0.61345047,-2.2626448,1.5609134,3.1403055,5.4296284,7.1829553,3.8936388,0,1683969505.1287465
1.220742,0.78047234,0.6743686,-2.2626448,1.5609134,3.1403055,5.4296284,7.1829553,3.8936388,0,1683969505.139018
1.220742,0.78047234,0.6743686,-2.2626448,1.5609134,3.1403055,5.6000834,6.917975,4.125145,0,1683969505.144149
1.220742,0.78047234,0.6743686,-2.2626448,1.5609134,3.1403055,4.293422,8.084682,3.5271156,0,1683969505.154416
1.220742,0.78047234,0.6743686,2.0158553,-0.26832256,-3.0836477,4.293422,8.084682,3.5271156,0,1683969505.164674
0.64753777,0.76156884,0.442038,2.0158553,-0.26832256,-3.0836477,4.293422,8.084682,3.5271156,0,1683969505.174894
0.64753777,0.76156884,0.442038,2.0158553,-0.26832256,-3.0836477,3.9808733,8.33889,3.2941887,0,1683969505.190288
0.6202801,0.7648007,0.43508637,2.0158553,-0.26832256,-3.0836477,3.9808733,8.33889,3.2941887,0,1683969505.1953797
0.6202801,0.7648007,0.43508637,2.01387,-0.18417588,-3.2194126,3.9808733,8.33889,3.2941887,0,1683969505.2106347
0.6202801,0.7648007,0.43508637,2.01387,-0.18417588,-3.2194126,3.7538927,8.504401,3.13362,0,1683969505.2208881
0.6202801,0.7648007,0.43508637,2.0129538,-0.01786781,-3.3825135,3.7538927,8.504401,3.13362,0,1683969505.2260244
0.55777645,0.74479955,0.43478146,2.0129538,-0.01786781,-3.3825135,3.7538927,8.504401,3.13362,0,1683969505.2362833
0.55777645,0.74479955,0.43478146,2.0129538,-0.01786781,-3.3825135,3.5083308,8.664799,2.9747226,0,1683969505.2414126
0.55777645,0.74479955,0.43478146,2.0129538,-0.01786781,-3.3825135,3.245369,8.818135,2.8185463,0,1683969505.2670214
0.4864918,0.71052927,0.38508344,2.0129538,-0.01786781,-3.3825135,3.245369,8.818135,2.8185463,0,1683969505.2875364
0.4864918,0.71052927,0.38508344,2.0190623,0.104610674,-3.4562755,3.245369,8.818135,2.8185463,0,1683969505.2926679
0.47082013,0.708395,0.33611718,2.0190623,0.104610674,-3.4562755,3.245369,8.818135,2.8185463,0,1683969505.3028717
0.47082013,0.708395,0.33611718,2.0349448,0.14752395,-3.4965928,3.245369,8.818135,2.8185463,0,1683969505.3079667
0.47082013,0.708395,0.33611718,2.0349448,0.14752395,-3.4965928,2.9683127,8.963463,2.661123,0,1683969505.3182735
0.42014647,0.7098585,0.2660521,2.0349448,0.14752395,-3.4965928,2.9683127,8.963463,2.661123,0,1683969505.3336234
0.42014647,0.7098585,0.2660521,2.0349448,0.14752395,-3.4965928,2.6831014,9.099194,2.4983504,0,1683969505.3438866
0.42014647,0.7098585,0.2660521,2.113441,0.055741455,-3.5763106,2.6831014,9.099194,2.4983504,0,1683969505.354146
0.40301132,0.7154076,0.20976834,2.113441,0.055741455,-3.5763106,2.6831014,9.099194,2.4983504,0,1683969505.3643718
0.40301132,0.7154076,0.20976834,2.113441,0.055741455,-3.5763106,2.2411635,9.286156,2.2317274,0,1683969505.369504
0.40301132,0.7154076,0.20976834,2.2229385,-0.129198,-3.6662605,2.2411635,9.286156,2.2317274,0,1683969505.3848882
0.40301132,0.7154076,0.20976834,2.2229385,-0.129198,-3.6662605,1.9372839,9.398681,2.0366256,0,1683969505.405418
0.3802661,0.72638386,0.18690115,2.2229385,-0.129198,-3.6662605,1.9372839,9.398681,2.0366256,0,1683969505.4156816
0.3802661,0.72638386,0.18690115,2.2229385,-0.129198,-3.6662605,-5.0426397,8.027783,-2.5224247,0,1683969505.4361985
0.3802661,0.72638386,0.18690115,1.2582297,0.5900958,-1.8112154,-5.0426397,8.027783,-2.5224247,0,1683969505.4413314
-0.7514463,0.5137495,-0.4147193,1.2582297,0.5900958,-1.8112154,-5.0426397,8.027783,-2.5224247,0,1683969505.446459
-0.7514463,0.5137495,-0.4147193,1.0118983,0.7131852,-1.574047,-5.0426397,8.027783,-2.5224247,0,1683969505.4567194
-0.7775454,0.5362508,-0.45411184,1.0118983,0.7131852,-1.574047,-5.0426397,8.027783,-2.5224247,0,1683969505.4669793
-0.7775454,0.5362508,-0.45411184,1.0118983,0.7131852,-1.574047,-5.1651754,7.909613,-2.6448298,0,1683969505.4721107
-0.7775454,0.5362508,-0.45411184,1.0118983,0.7131852,-1.574047,-5.2648478,7.8056803,-2.7547965,0,1683969505.492576
-0.7920584,0.55210537,-0.4736252,1.0118983,0.7131852,-1.574047,-5.2648478,7.8056803,-2.7547965,0,1683969505.5028284
-0.7920584,0.55210537,-0.4736252,0.798859,0.80939645,-1.359786,-5.2648478,7.8056803,-2.7547965,0,1683969505.5181792
-0.81010824,0.57088697,-0.480089,0.798859,0.80939645,-1.359786,-5.2648478,7.8056803,-2.7547965,0,1683969505.5335214
-0.81010824,0.57088697,-0.480089,0.63407815,0.86162543,-1.1742357,-5.2648478,7.8056803,-2.7547965,0,1683969505.5437043
-0.81010824,0.57088697,-0.480089,0.63407815,0.86162543,-1.1742357,-5.3449693,7.7150903,-2.853908,0,1683969505.5539868
-0.81010824,0.57088697,-0.480089,0.63407815,0.86162543,-1.1742357,-5.436276,7.6006474,-2.9854896,0,1683969505.5694041
-0.81010824,0.57088697,-0.480089,0.49648073,0.8686504,-0.968985,-5.436276,7.6006474,-2.9854896,0,1683969505.579663
-0.84523225,0.57997286,-0.48612595,0.49648073,0.8686504,-0.968985,-5.436276,7.6006474,-2.9854896,0,1683969505.5847962
-0.8698678,0.5812534,-0.5110054,0.49648073,0.8686504,-0.968985,-5.436276,7.6006474,-2.9854896,0,1683969505.6104488
-0.8698678,0.5812534,-0.5110054,0.4343252,0.80741113,-0.81290895,-5.436276,7.6006474,-2.9854896,0,1683969505.6207056
-0.8698678,0.5812534,-0.5110054,0.4343252,0.80741113,-0.81290895,-5.4818964,7.536313,-3.0641346,0,1683969505.625842
-0.8736486,0.600035,-0.53576297,0.4343252,0.80741113,-0.81290895,-5.4818964,7.536313,-3.0641346,0,1683969505.6309748
-0.8736486,0.600035,-0.53576297,0.4343252,0.80741113,-0.81290895,-5.517609,7.4807005,-3.1354835,0,1683969505.6514812
-0.8736486,0.600035,-0.53576297,0.4005749,0.6545421,-0.61346143,-5.517609,7.4807005,-3.1354835,0,1683969505.66174
-0.8832222,0.62168264,-0.556191,0.4005749,0.6545421,-0.61346143,-5.517609,7.4807005,-3.1354835,0,1683969505.6668746
-0.8832222,0.62168264,-0.556191,0.38805214,0.48808134,-0.45173484,-5.517609,7.4807005,-3.1354835,0,1683969505.6822321
-0.6036328,0.60991365,-0.4189269,0.38805214,0.48808134,-0.45173484,-5.517609,7.4807005,-3.1354835,0,1683969505.7027144
-0.6036328,0.60991365,-0.4189269,0.38805214,0.48808134,-0.45173484,-4.553972,8.33492,-2.454905,0,1683969505.7180073
-0.5782654,0.61607254,-0.36117962,0.38805214,0.48808134,-0.45173484,-4.553972,8.33492,-2.454905,0,1683969505.7231033
-0.5782654,0.61607254,-0.36117962,-1.751656,-0.13912456,2.5158484,-4.553972,8.33492,-2.454905,0,1683969505.7486973
-0.57564336,0.59491277,-0.3184942,-1.751656,-0.13912456,2.5158484,-4.553972,8.33492,-2.454905,0,1683969505.7692127
-0.57564336,0.59491277,-0.3184942,-1.751656,-0.13912456,2.5158484,-4.368995,8.471784,-2.318806,0,1683969505.7743466
-0.57564336,0.59491277,-0.3184942,-1.890628,-0.026725354,2.6499333,-4.368995,8.471784,-2.318806,0,1683969505.7845995
-0.5622279,0.5815583,-0.28739482,-1.890628,-0.026725354,2.6499333,-4.368995,8.471784,-2.318806,0,1683969505.789733
-0.5622279,0.5815583,-0.28739482,-2.014939,0.033292156,2.847701,-4.368995,8.471784,-2.318806,0,1683969505.8152642
-0.5622279,0.5815583,-0.28739482,-2.014939,0.033292156,2.847701,-4.168876,8.609913,-2.1739306,0,1683969505.8203974
-0.5622279,0.5815583,-0.28739482,-2.0540345,-0.009315695,3.0208814,-4.168876,8.609913,-2.1739306,0,1683969505.830612
-0.5622279,0.5815583,-0.28739482,-2.0540345,-0.009315695,3.0208814,-3.9529152,8.748005,-2.0206463,0,1683969505.835746
-0.54051936,0.56917953,-0.25672227,-2.0540345,-0.009315695,3.0208814,-3.9529152,8.748005,-2.0206463,0,1683969505.8511353
-0.5022854,0.5573496,-0.21482961,-2.0540345,-0.009315695,3.0208814,-3.9529152,8.748005,-2.0206463,0,1683969505.8819263
-0.5022854,0.5573496,-0.21482961,-2.0438025,-0.10186178,3.1897855,-3.9529152,8.748005,-2.0206463,0,1683969505.887062
-0.5022854,0.5573496,-0.21482961,-2.0438025,-0.10186178,3.1897855,-3.598751,8.951407,-1.7769092,0,1683969505.8921976
-0.41435343,0.5664965,-0.16208263,-2.0438025,-0.10186178,3.1897855,-3.598751,8.951407,-1.7769092,0,1683969505.9127293
-0.41435343,0.5664965,-0.16208263,-2.0438025,-0.10186178,3.1897855,-3.3428218,9.08153,-1.6085539,0,1683969505.917863
-0.41435343,0.5664965,-0.16208263,-1.9782871,-0.2490803,3.3835826,-3.3428218,9.08153,-1.6085539,0,1683969505.9229639
-0.30605444,0.6096087,-0.105372004,-1.9782871,-0.2490803,3.3835826,-3.3428218,9.08153,-1.6085539,0,1683969505.9434538
-0.30605444,0.6096087,-0.105372004,-1.9782871,-0.2490803,3.3835826,-3.0699213,9.205515,-1.4388045,0,1683969505.9537053
-0.30605444,0.6096087,-0.105372004,-1.9127718,-0.29611692,3.4952183,-3.0699213,9.205515,-1.4388045,0,1683969505.958833
-0.30605444,0.6096087,-0.105372004,-1.9127718,-0.29611692,3.4952183,4.904388,7.792386,3.3855333,0,1683969505.984445
0.9332252,0.78839964,0.43350092,-1.9127718,-0.29611692,3.4952183,4.904388,7.792386,3.3855333,0,1683969505.999845
0.9332252,0.78839964,0.43350092,-1.8216002,1.2577715,2.9234483,4.904388,7.792386,3.3855333,0,1683969506.0049787
0.9332252,0.78839964,0.43350092,-2.0271564,1.497078,2.6929994,4.904388,7.792386,3.3855333,0,1683969506.0253923
0.94145733,0.79791236,0.4993584,-2.0271564,1.497078,2.6929994,4.904388,7.792386,3.3855333,0,1683969506.0304809
0.94145733,0.79791236,0.4993584,-2.0271564,1.497078,2.6929994,5.0728655,7.598671,3.5724413,0,1683969506.0355964
0.9349326,0.79242426,0.5787533,-2.0271564,1.497078,2.6929994,5.0728655,7.598671,3.5724413,0,1683969506.0509646
0.9349326,0.79242426,0.5787533,-2.0803015,1.5593863,2.3849707,5.0728655,7.598671,3.5724413,0,1683969506.0560548
0.9349326,0.79242426,0.5787533,-2.0803015,1.5593863,2.3849707,5.268014,7.3050356,3.8885207,0,1683969506.0611835
0.9349326,0.79242426,0.5787533,-1.992337,1.4535538,2.1859813,5.268014,7.3050356,3.8885207,0,1683969506.0970411
0.9349326,0.79242426,0.5787533,-1.992337,1.4535538,2.1859813,5.3204618,7.209092,3.9947202,0,1683969506.1021745
0.96432453,0.8013272,0.6161945,-1.992337,1.4535538,2.1859813,5.3204618,7.209092,3.9947202,0,1683969506.1072638
0.96432453,0.8013272,0.6161945,-1.992337,1.4535538,2.1859813,5.449508,6.944304,4.279676,0,1683969506.1276581
1.0485977,0.85413516,0.68674743,-1.992337,1.4535538,2.1859813,5.449508,6.944304,4.279676,0,1683969506.1429546
1.0485977,0.85413516,0.68674743,-1.6656768,1.0665708,1.7589865,5.449508,6.944304,4.279676,0,1683969506.14808
1.0485977,0.85413516,0.68674743,-1.6656768,1.0665708,1.7589865,5.518842,6.798944,4.4218607,0,1683969506.1685495
1.1144553,0.87828296,0.7519341,-1.6656768,1.0665708,1.7589865,5.518842,6.798944,4.4218607,0,1683969506.173679
1.1144553,0.87828296,0.7519341,-1.1708759,0.513585,1.2667818,5.518842,6.798944,4.4218607,0,1683969506.1788137
1.147384,0.8804172,0.7821798,-1.1708759,0.513585,1.2667818,5.518842,6.798944,4.4218607,0,1683969506.2095494
1.147384,0.8804172,0.7821798,-1.1708759,0.513585,1.2667818,5.578749,6.687334,4.5158877,0,1683969506.2146828
1.147384,0.8804172,0.7821798,-0.75991637,0.11499538,0.87689704,5.578749,6.687334,4.5158877,0,1683969506.2197742
1.1427495,0.8776122,0.8063275,-0.75991637,0.11499538,0.87689704,5.578749,6.687334,4.5158877,0,1683969506.2402108
1.1427495,0.8776122,0.8063275,-0.32788193,-0.21746802,0.4027129,5.578749,6.687334,4.5158877,0,1683969506.2504654
1.1427495,0.8776122,0.8063275,-0.32788193,-0.21746802,0.4027129,5.6503544,6.5854745,4.57615,0,1683969506.2555919
1.1427495,0.8776122,0.8063275,2.3935227,-0.8147415,-3.8121045,5.6503544,6.5854745,4.57615,0,1683969506.2709792
1.1427495,0.8776122,0.8063275,2.3935227,-0.8147415,-3.8121045,2.6753619,9.154959,2.294627,0,1683969506.2761095
0.4170975,0.77449644,0.32544583,2.3935227,-0.8147415,-3.8121045,2.6753619,9.154959,2.294627,0,1683969506.2914956
0.33465368,0.72851807,0.26214942,2.3935227,-0.8147415,-3.8121045,2.6753619,9.154959,2.294627,0,1683969506.3017573
0.33465368,0.72851807,0.26214942,2.552806,-0.86544335,-3.9390118,2.6753619,9.154959,2.294627,0,1683969506.3068845
0.33465368,0.72851807,0.26214942,2.552806,-0.86544335,-3.9390118,2.2214916,9.350975,1.964789,0,1683969506.3171434
0.28434587,0.7102853,0.21300024,2.552806,-0.86544335,-3.9390118,2.2214916,9.350975,1.964789,0,1683969506.3426178
0.28434587,0.7102853,0.21300024,2.6233609,-0.9117164,-3.9774964,2.2214916,9.350975,1.964789,0,1683969506.3580012
0.28434587,0.7102853,0.21300024,2.6233609,-0.9117164,-3.9774964,1.5747412,9.568203,1.4851917,0,1683969506.3631337
0.24220926,0.70394355,0.1188484,2.6233609,-0.9117164,-3.9774964,1.5747412,9.568203,1.4851917,0,1683969506.3733957
0.24220926,0.70394355,0.1188484,2.6868908,-1.03786,-4.0167446,1.5747412,9.568203,1.4851917,0,1683969506.393897
0.24220926,0.70394355,0.1188484,2.6868908,-1.03786,-4.0167446,1.2401419,9.652546,1.2355285,0,1683969506.4041567
0.24220926,0.70394355,0.1188484,2.7301095,-1.2133311,-4.096157,1.2401419,9.652546,1.2355285,0,1683969506.4092882
0.22964753,0.71644425,0.09890821,2.7301095,-1.2133311,-4.096157,1.2401419,9.652546,1.2355285,0,1683969506.419543
0.22964753,0.71644425,0.09890821,2.7301095,-1.2133311,-4.096157,0.8962731,9.719234,0.98452675,0,1683969506.4450772
0.20214595,0.7217494,0.117140986,2.7301095,-1.2133311,-4.096157,0.8962731,9.719234,0.98452675,0,1683969506.450167
0.20214595,0.7217494,0.117140986,2.7397306,-1.2689198,-4.18122,0.8962731,9.719234,0.98452675,0,1683969506.455258
0.12543415,0.69882125,0.12640981,2.7397306,-1.2689198,-4.18122,0.8962731,9.719234,0.98452675,0,1683969506.4706485
0.12543415,0.69882125,0.12640981,2.7397306,-1.2689198,-4.18122,0.53995866,9.7674675,0.73563063,0,1683969506.4911966
0.12543415,0.69882125,0.12640981,2.7415633,-1.2484559,-4.2862887,0.53995866,9.7674675,0.73563063,0,1683969506.496324
0.06085721,0.6655876,0.09177365,2.7415633,-1.2484559,-4.2862887,0.53995866,9.7674675,0.73563063,0,1683969506.5167994
0.06085721,0.6655876,0.09177365,2.7230844,-1.1861476,-4.318359,0.53995866,9.7674675,0.73563063,0,1683969506.5219274
0.06085721,0.6655876,0.09177365,2.7230844,-1.1861476,-4.318359,-0.017433474,9.802982,0.37062812,0,1683969506.5270505
0.06085721,0.6655876,0.09177365,1.6508633,0.0053450707,-2.6929994,-0.017433474,9.802982,0.37062812,0,1683969506.537248
-0.7106512,0.47088113,-0.2719671,1.6508633,0.0053450707,-2.6929994,-0.017433474,9.802982,0.37062812,0,1683969506.5423598
-0.7106512,0.47088113,-0.2719671,1.6508633,0.0053450707,-2.6929994,-4.8509417,8.226938,-2.2409666,0,1683969506.5679295
-0.7374211,0.47027132,-0.27989438,1.6508633,0.0053450707,-2.6929994,-4.8509417,8.226938,-2.2409666,0,1683969506.58328
-0.7374211,0.47027132,-0.27989438,1.6508633,0.0053450707,-2.6929994,-5.0629287,8.062209,-2.367205,0,1683969506.5986698
-0.7374211,0.47027132,-0.27989438,1.5402967,0.08231409,-2.5610526,-5.0629287,8.062209,-2.367205,0,1683969506.6038008
-0.7374211,0.47027132,-0.27989438,1.2370021,0.34406984,-2.2078197,-5.0629287,8.062209,-2.367205,0,1683969506.6191986
-0.8012663,0.46283188,-0.29330978,1.2370021,0.34406984,-2.2078197,-5.0629287,8.062209,-2.367205,0,1683969506.6243308
-0.8012663,0.46283188,-0.29330978,1.2370021,0.34406984,-2.2078197,-5.2474113,7.908226,-2.4820929,0,1683969506.6345751
-0.84291506,0.46252698,-0.33087295,1.2370021,0.34406984,-2.2078197,-5.2474113,7.908226,-2.4820929,0,1683969506.649824
-0.84291506,0.46252698,-0.33087295,0.9140071,0.6363689,-1.8461875,-5.2474113,7.908226,-2.4820929,0,1683969506.6652026
-0.84291506,0.46252698,-0.33087295,0.9140071,0.6363689,-1.8461875,-5.469793,7.7043977,-2.6381328,0,1683969506.670332
-0.84291506,0.46252698,-0.33087295,0.9140071,0.6363689,-1.8461875,-5.582812,7.589092,-2.7338698,0,1683969506.695932
-0.84291506,0.46252698,-0.33087295,0.6281222,0.8712466,-1.5160148,-5.582812,7.589092,-2.7338698,0,1683969506.7061543
-0.8655993,0.48265013,-0.37075335,0.6281222,0.8712466,-1.5160148,-5.582812,7.589092,-2.7338698,0,1683969506.711249
-0.8655993,0.48265013,-0.37075335,0.4541783,0.98975444,-1.3016012,-5.582812,7.589092,-2.7338698,0,1683969506.721522
-0.863709,0.50807846,-0.42307347,0.4541783,0.98975444,-1.3016012,-5.582812,7.589092,-2.7338698,0,1683969506.7266605
-0.863709,0.50807846,-0.42307347,0.4541783,0.98975444,-1.3016012,-5.670587,7.4905086,-2.8236217,0,1683969506.7368643
-0.8941375,0.5330189,-0.46399048,0.4541783,0.98975444,-1.3016012,-5.670587,7.4905086,-2.8236217,0,1683969506.7624502
-0.8941375,0.5330189,-0.46399048,0.311694,0.9896017,-1.0925325,-5.670587,7.4905086,-2.8236217,0,1683969506.772698
-0.8941375,0.5330189,-0.46399048,0.311694,0.9896017,-1.0925325,-5.7672534,7.36794,-2.9476078,0,1683969506.7778301
-0.8941375,0.5330189,-0.46399048,0.2667954,0.90392786,-0.9314168,-5.7672534,7.36794,-2.9476078,0,1683969506.7983468
-0.8941375,0.5330189,-0.46399048,0.2667954,0.90392786,-0.9314168,-5.8163247,7.2993245,-3.0209835,0,1683969506.8034713
-0.8941375,0.5330189,-0.46399048,-1.4390458,-0.6452264,3.0433307,-5.8163247,7.2993245,-3.0209835,0,1683969506.8136952
-0.8941375,0.5330189,-0.46399048,-1.4390458,-0.6452264,3.0433307,-4.3782473,8.554775,-1.9705112,0,1683969506.8188248
-0.5667404,0.55838627,-0.15757017,-1.4390458,-0.6452264,3.0433307,-4.3782473,8.554775,-1.9705112,0,1683969506.839321
-0.5667404,0.55838627,-0.15757017,-1.3582588,-0.6293439,3.193756,-4.3782473,8.554775,-1.9705112,0,1683969506.8495765
-0.48600397,0.58143634,-0.12622687,-1.3582588,-0.6293439,3.193756,-4.3782473,8.554775,-1.9705112,0,1683969506.8649633
-0.48600397,0.58143634,-0.12622687,-1.3582588,-0.6293439,3.193756,-4.153049,8.696113,-1.8346376,0,1683969506.8752038
-0.48600397,0.58143634,-0.12622687,-1.3582588,-0.6293439,3.193756,-3.9101882,8.833879,-1.7056165,0,1683969506.9008458
-0.48600397,0.58143634,-0.12622687,-1.290911,-0.5719226,3.307377,-3.9101882,8.833879,-1.7056165,0,1683969506.905977
-0.41093862,0.61216986,-0.11811664,-1.290911,-0.5719226,3.307377,-3.9101882,8.833879,-1.7056165,0,1683969506.911113
-0.41093862,0.61216986,-0.11811664,-1.3330606,-0.3912592,3.403894,-3.9101882,8.833879,-1.7056165,0,1683969506.9316235
-0.41093862,0.61216986,-0.11811664,-1.3330606,-0.3912592,3.403894,-3.5186875,9.029687,-1.5230706,0,1683969506.9418266
-0.3325194,0.6243657,-0.14964288,-1.3330606,-0.3912592,3.403894,-3.5186875,9.029687,-1.5230706,0,1683969506.9469185
-0.30520073,0.63168323,-0.14708175,-1.3330606,-0.3912592,3.403894,-3.5186875,9.029687,-1.5230706,0,1683969506.9723806
-0.30520073,0.63168323,-0.14708175,-1.434617,-0.2593123,3.4440582,-3.5186875,9.029687,-1.5230706,0,1683969506.9775093
-0.30520073,0.63168323,-0.14708175,-1.434617,-0.2593123,3.4440582,-3.3819888,9.091711,-1.4625595,0,1683969506.9826374
-0.25867364,0.6283903,-0.16177773,-1.434617,-0.2593123,3.4440582,-3.3819888,9.091711,-1.4625595,0,1683969507.0134108
-0.25867364,0.6283903,-0.16177773,-1.434617,-0.2593123,3.4440582,-2.958479,9.266095,-1.2739732,0,1683969507.0185418
-0.25867364,0.6283903,-0.16177773,-1.5482379,-0.16432275,3.4857497,-2.958479,9.266095,-1.2739732,0,1683969507.0236752
-0.23306239,0.62326807,-0.12872702,-1.5482379,-0.16432275,3.4857497,-2.958479,9.266095,-1.2739732,0,1683969507.0441213
-0.23306239,0.62326807,-0.12872702,-1.5482379,-0.16432275,3.4857497,-2.6650553,9.372131,-1.1387417,0,1683969507.049222
-0.23306239,0.62326807,-0.12872702,-1.6349808,-0.0936151,3.5446982,-2.6650553,9.372131,-1.1387417,0,1683969507.0543482
-0.19001108,0.62448764,-0.08732217,-1.6349808,-0.0936151,3.5446982,-2.6650553,9.372131,-1.1387417,0,1683969507.0697632
-0.19001108,0.62448764,-0.08732217,-1.6349808,-0.0936151,3.5446982,-2.3614218,9.469209,-0.99693745,0,1683969507.0800228
1.1270779,0.8026688,0.60259616,-1.6349808,-0.0936151,3.5446982,-2.3614218,9.469209,-0.99693745,0,1683969507.090288
1.1270779,0.8026688,0.60259616,-1.6349808,-0.0936151,3.5446982,5.677176,6.810711,4.197621,0,1683969507.1107638
1.1270779,0.8026688,0.60259616,-1.4718798,1.0147998,2.254398,5.677176,6.810711,4.197621,0,1683969507.1158948
1.1779346,0.82669455,0.6444889,-1.4718798,1.0147998,2.254398,5.677176,6.810711,4.197621,0,1683969507.1312356
1.1779346,0.82669455,0.6444889,-1.4718798,1.0147998,2.254398,5.7789764,6.6357555,4.3366246,0,1683969507.1414964
1.1779346,0.82669455,0.6444889,-1.2901474,0.7631234,1.9187278,5.7789764,6.6357555,4.3366246,0,1683969507.1466262
1.1779346,0.82669455,0.6444889,-0.9390526,0.36468655,1.3394748,5.7789764,6.6357555,4.3366246,0,1683969507.182515
1.1779346,0.82669455,0.6444889,-0.9390526,0.36468655,1.3394748,5.862645,6.4911,4.441973,0,1683969507.1876454
1.241414,0.8498667,0.69900423,-0.9390526,0.36468655,1.3394748,5.862645,6.4911,4.441973,0,1683969507.1927736
1.241414,0.8498667,0.69900423,-0.9390526,0.36468655,1.3394748,5.928788,6.3811784,4.5128884,0,1683969507.208177
1.241414,0.8498667,0.69900423,-0.6382015,0.074067414,0.8570439,5.928788,6.3811784,4.5128884,0,1683969507.2184308
1.2725742,0.8646846,0.7596785,-0.6382015,0.074067414,0.8570439,5.928788,6.3811784,4.5128884,0,1683969507.2286906
1.2725742,0.8646846,0.7596785,-0.22876903,-0.22464569,0.27168232,5.928788,6.3811784,4.5128884,0,1683969507.2440803
1.2725742,0.8646846,0.7596785,-0.22876903,-0.22464569,0.27168232,5.977463,6.308497,4.5507073,0,1683969507.2491715
1.2811724,0.87810004,0.83571947,-0.22876903,-0.22464569,0.27168232,5.977463,6.308497,4.5507073,0,1683969507.2543063
1.2811724,0.87810004,0.83571947,0.08536842,-0.3747658,-0.14431691,5.977463,6.308497,4.5507073,0,1683969507.285068
1.2408651,0.8592574,0.8727948,0.08536842,-0.3747658,-0.14431691,5.977463,6.308497,4.5507073,0,1683969507.2952878
1.2408651,0.8592574,0.8727948,0.08536842,-0.3747658,-0.14431691,6.0168777,6.271499,4.5499015,0,1683969507.3004196
1.1644582,0.8231578,0.85163504,0.08536842,-0.3747658,-0.14431691,6.0168777,6.271499,4.5499015,0,1683969507.3106778
1.1644582,0.8231578,0.85163504,0.40378192,-0.43279803,-0.54351735,6.0168777,6.271499,4.5499015,0,1683969507.320898
1.1644582,0.8231578,0.85163504,0.40378192,-0.43279803,-0.54351735,6.021254,6.2895355,4.5191116,0,1683969507.3260229
1.1644582,0.8231578,0.85163504,0.5671884,-0.3932445,-0.7733554,6.021254,6.2895355,4.5191116,0,1683969507.3516662
1.1644582,0.8231578,0.85163504,0.5671884,-0.3932445,-0.7733554,6.008908,6.3337727,4.473528,0,1683969507.3568056
1.088722,0.7927902,0.8048031,0.5671884,-0.3932445,-0.7733554,6.008908,6.3337727,4.473528,0,1683969507.3670669
0.66863656,0.7576662,0.43447655,0.5671884,-0.3932445,-0.7733554,6.008908,6.3337727,4.473528,0,1683969507.3773246
0.66863656,0.7576662,0.43447655,0.5671884,-0.3932445,-0.7733554,4.163294,8.156974,3.5166595,0,1683969507.382418
0.66863656,0.7576662,0.43447655,0.5671884,-0.3932445,-0.7733554,3.9104087,8.33927,3.376597,0,1683969507.40292
0.63211006,0.7505316,0.36502132,0.5671884,-0.3932445,-0.7733554,3.9104087,8.33927,3.376597,0,1683969507.413183
0.63211006,0.7505316,0.36502132,1.8533652,-0.28771752,-3.6018143,3.9104087,8.33927,3.376597,0,1683969507.4234314
0.63211006,0.7505316,0.36502132,1.8962784,-0.38591412,-3.6888626,3.9104087,8.33927,3.376597,0,1683969507.438825
0.63211006,0.7505316,0.36502132,1.8962784,-0.38591412,-3.6888626,3.648744,8.515983,3.225035,0,1683969507.4542108
0.59747386,0.7441288,0.36435053,1.8962784,-0.38591412,-3.6888626,3.648744,8.515983,3.225035,0,1683969507.4592986
0.59747386,0.7441288,0.36435053,1.9289597,-0.42287147,-3.7739255,3.648744,8.515983,3.225035,0,1683969507.4644308
0.59747386,0.7441288,0.36435053,1.9289597,-0.42287147,-3.7739255,3.3767989,8.685324,3.0656948,0,1683969507.4746885
0.54875153,0.75364155,0.34953257,1.9289597,-0.42287147,-3.7739255,3.3767989,8.685324,3.0656948,0,1683969507.4798226
0.54875153,0.75364155,0.34953257,1.9289597,-0.42287147,-3.7739255,2.945287,8.923419,2.8167348,0,1683969507.5054474
0.54875153,0.75364155,0.34953257,1.9549215,-0.44303003,-3.946953,2.945287,8.923419,2.8167348,0,1683969507.5105803
0.54497087,0.7791918,0.32764107,1.9549215,-0.44303003,-3.946953,2.945287,8.923419,2.8167348,0,1683969507.5311148
0.5104566,0.77175236,0.31343293,1.9549215,-0.44303003,-3.946953,2.945287,8.923419,2.8167348,0,1683969507.546504
0.5104566,0.77175236,0.31343293,1.9931005,-0.46914452,-4.1112757,2.945287,8.923419,2.8167348,0,1683969507.5567276
0.5104566,0.77175236,0.31343293,1.9931005,-0.46914452,-4.1112757,2.6361172,9.071113,2.6461167,0,1683969507.5618534
0.5104566,0.77175236,0.31343293,2.0857995,-0.52320606,-4.3275223,2.6361172,9.071113,2.6461167,0,1683969507.5823367
0.4885651,0.763947,0.30215177,2.0857995,-0.52320606,-4.3275223,2.6361172,9.071113,2.6461167,0,1683969507.5977254
0.4885651,0.763947,0.30215177,2.0857995,-0.52320606,-4.3275223,2.3084397,9.209068,2.4698746,0,1683969507.6028547
0.4885651,0.763947,0.30215177,2.1876612,-0.55863625,-4.4658833,2.3084397,9.209068,2.4698746,0,1683969507.6181958
0.4885651,0.763947,0.30215177,2.1876612,-0.55863625,-4.4658833,1.9619132,9.336141,2.2854972,0,1683969507.628416
0.42667124,0.7308353,0.29513916,2.1876612,-0.55863625,-4.4658833,1.9619132,9.336141,2.2854972,0,1683969507.6335442
0.42667124,0.7308353,0.29513916,2.1876612,-0.55863625,-4.4658833,-5.9270344,7.5557566,-2.0042298,0,1683969507.6437984
-0.8727339,0.53936076,-0.34672755,2.1876612,-0.55863625,-4.4658833,-5.9270344,7.5557566,-2.0042298,0,1683969507.6540225
-0.8727339,0.53936076,-0.34672755,1.0383182,0.3286455,-1.6977472,-5.9270344,7.5557566,-2.0042298,0,1683969507.6591203
-0.8727339,0.53936076,-0.34672755,0.93645644,0.376293,-1.5630515,-5.9270344,7.5557566,-2.0042298,0,1683969507.69992
-0.88944215,0.556313,-0.33379996,0.93645644,0.376293,-1.5630515,-5.9270344,7.5557566,-2.0042298,0,1683969507.7050514
-0.88944215,0.556313,-0.33379996,0.93645644,0.376293,-1.5630515,-6.0413837,7.439576,-2.095355,0,1683969507.710183
-0.88944215,0.556313,-0.33379996,0.93645644,0.376293,-1.5630515,-6.1404834,7.33321,-2.1805134,0,1683969507.7357678
-0.91529727,0.56924057,-0.33977592,0.93645644,0.376293,-1.5630515,-6.1404834,7.33321,-2.1805134,0,1683969507.7408986
-0.91529727,0.56924057,-0.33977592,0.77595156,0.5305365,-1.3622295,-6.1404834,7.33321,-2.1805134,0,1683969507.745993
-0.91529727,0.56924057,-0.33977592,0.77595156,0.5305365,-1.3622295,-6.2604923,7.192299,-2.305042,0,1683969507.7715364
-0.91529727,0.56924057,-0.33977592,0.6081163,0.6956228,-1.1724031,-6.2604923,7.192299,-2.305042,0,1683969507.7766447
-0.94182324,0.576741,-0.3825223,0.6081163,0.6956228,-1.1724031,-6.2604923,7.192299,-2.305042,0,1683969507.781766
-0.94182324,0.576741,-0.3825223,0.46181414,0.7528914,-0.9978484,-6.2604923,7.192299,-2.305042,0,1683969507.7868998
-0.94182324,0.576741,-0.3825223,0.46181414,0.7528914,-0.9978484,-6.323401,7.110356,-2.3861196,0,1683969507.7920291
-0.9743861,0.57344806,-0.45246542,0.46181414,0.7528914,-0.9978484,-6.323401,7.110356,-2.3861196,0,1683969507.8125052
-0.9743861,0.57344806,-0.45246542,0.46181414,0.7528914,-0.9978484,-6.3750787,7.0378036,-2.4624848,0,1683969507.8278923
-0.9743861,0.57344806,-0.45246542,0.37766743,0.7049385,-0.8565858,-6.3750787,7.0378036,-2.4624848,0,1683969507.8381522
-1.0021926,0.5789362,-0.5112493,0.37766743,0.7049385,-0.8565858,-6.3750787,7.0378036,-2.4624848,0,1683969507.8534455
-1.0130469,0.5777776,-0.55533725,0.37766743,0.7049385,-0.8565858,-6.3750787,7.0378036,-2.4624848,0,1683969507.8636508
-1.0130469,0.5777776,-0.55533725,0.2866485,0.52931476,-0.6818783,-6.3750787,7.0378036,-2.4624848,0,1683969507.8687508
-1.0130469,0.5777776,-0.55533725,0.2866485,0.52931476,-0.6818783,-6.4177766,6.946341,-2.5604842,0,1683969507.8840666
-1.0130469,0.5777776,-0.55533725,0.2866485,0.52931476,-0.6818783,-6.4537725,6.9205256,-2.5867393,0,1683969507.89946
-1.0130469,0.5777776,-0.55533725,0.23991732,0.41157046,-0.57910025,-6.4537725,6.9205256,-2.5867393,0,1683969507.9045942
-0.35514265,0.50399286,0.0069516255,0.23991732,0.41157046,-0.57910025,-6.4537725,6.9205256,-2.5867393,0,1683969507.9251313
-0.35514265,0.50399286,0.0069516255,-1.8840611,0.23151793,3.9881864,-6.4537725,6.9205256,-2.5867393,0,1683969507.9353504
-0.35514265,0.50399286,0.0069516255,-1.8840611,0.23151793,3.9881864,-3.6523366,9.0814295,-0.65129507,0,1683969507.9404726
-0.35514265,0.50399286,0.0069516255,-1.8840611,0.23151793,3.9881864,-3.327105,9.215008,-0.50012755,0,1683969507.960954
-0.3125792,0.5161277,-0.005427146,-1.8840611,0.23151793,3.9881864,-3.327105,9.215008,-0.50012755,0,1683969507.981327
-0.3125792,0.5161277,-0.005427146,-1.8726074,0.23090707,4.088216,-3.327105,9.215008,-0.50012755,0,1683969507.986461
-0.22678153,0.5308846,0.0028050416,-1.8726074,0.23090707,4.088216,-3.327105,9.215008,-0.50012755,0,1683969508.0018535
-0.22678153,0.5308846,0.0028050416,-1.8121318,0.13988814,4.250095,-3.327105,9.215008,-0.50012755,0,1683969508.0172417
-0.22678153,0.5308846,0.0028050416,-1.8121318,0.13988814,4.250095,-2.8082604,9.395511,-0.27230543,0,1683969508.0223742
-0.14299615,0.5660696,0.025428312,-1.8121318,0.13988814,4.250095,-2.8082604,9.395511,-0.27230543,0,1683969508.0275018
-0.14299615,0.5660696,0.025428312,-1.8121318,0.13988814,4.250095,-2.4410045,9.500692,-0.120209984,0,1683969508.0326347
-0.14299615,0.5660696,0.025428312,-1.7289014,0.020616703,4.3536367,-2.4410045,9.500692,-0.120209984,0,1683969508.0582669
-0.03195308,0.59649825,0.053600688,-1.7289014,0.020616703,4.3536367,-2.4410045,9.500692,-0.120209984,0,1683969508.0736213
-0.03195308,0.59649825,0.053600688,-1.6172657,-0.10705414,4.43534,-2.4410045,9.500692,-0.120209984,0,1683969508.0787165
-0.03195308,0.59649825,0.053600688,-1.6172657,-0.10705414,4.43534,-2.0594037,9.591358,0.02903786,0,1683969508.0838668
0.018598646,0.605889,0.07762648,-1.6172657,-0.10705414,4.43534,-2.0594037,9.591358,0.02903786,0,1683969508.1043386
0.018598646,0.605889,0.07762648,-1.6172657,-0.10705414,4.43534,-1.6664256,9.6658535,0.1743938,0,1683969508.1197276
0.018598646,0.605889,0.07762648,-1.5673275,-0.107665,4.4796276,-1.6664256,9.6658535,0.1743938,0,1683969508.1248622
0.018598646,0.605889,0.07762648,-1.5673275,-0.107665,4.4796276,-1.267015,9.722669,0.31702843,0,1683969508.150505
0.08854175,0.6329028,0.11567748,-1.5673275,-0.107665,4.4796276,-1.267015,9.722669,0.31702843,0,1683969508.155643
0.08854175,0.6329028,0.11567748,-1.6134478,0.02321288,4.478711,-1.267015,9.722669,0.31702843,0,1683969508.1607358
0.08854175,0.6329028,0.11567748,-1.6134478,0.02321288,4.478711,-0.6624393,9.772736,0.5393776,0,1683969508.1761281
0.13952033,0.64912325,0.14452063,-1.6134478,0.02321288,4.478711,-0.6624393,9.772736,0.5393776,0,1683969508.181261
0.13952033,0.64912325,0.14452063,-0.95829487,0.30192015,1.6678149,-0.6624393,9.772736,0.5393776,0,1683969508.2017422
0.13952033,0.64912325,0.14452063,-0.95829487,0.30192015,1.6678149,5.256433,6.503036,5.129966,0,1683969508.217089
1.0204253,0.7236398,0.86364794,-0.95829487,0.30192015,1.6678149,5.256433,6.503036,5.129966,0,1683969508.2222197
1.0204253,0.7236398,0.86364794,-0.6785186,0.20341812,1.3674219,5.256433,6.503036,5.129966,0,1683969508.2478416
1.0204253,0.7236398,0.86364794,-0.6785186,0.20341812,1.3674219,5.3845487,6.3108163,5.2360616,0,1683969508.2529721
1.0204253,0.7236398,0.86364794,-0.47800204,0.061391957,1.0642799,5.3845487,6.3108163,5.2360616,0,1683969508.2581046
1.0204253,0.7236398,0.86364794,-0.47800204,0.061391957,1.0642799,5.4533944,6.2143445,5.280011,0,1683969508.2631905
1.036341,0.72235924,0.7780332,-0.47800204,0.061391957,1.0642799,5.4533944,6.2143445,5.280011,0,1683969508.273453
1.0561591,0.7519951,0.79650986,-0.47800204,0.061391957,1.0642799,5.4533944,6.2143445,5.280011,0,1683969508.2939086
1.0561591,0.7519951,0.79650986,-0.47800204,0.061391957,1.0642799,5.5132113,6.1367736,5.3085423,0,1683969508.309252
1.0561591,0.7519951,0.79650986,-0.36254853,-0.059101213,0.7982482,5.5132113,6.1367736,5.3085423,0,1683969508.3143864
1.0561591,0.7519951,0.79650986,-0.36254853,-0.059101213,0.7982482,5.562542,6.0777693,5.324936,0,1683969508.3349051
1.0561591,0.7519951,0.79650986,-0.24984388,-0.09972375,0.52580225,5.562542,6.0777693,5.324936,0,1683969508.3502908
1.0645133,0.76047117,0.8440126,-0.24984388,-0.09972375,0.52580225,5.562542,6.0777693,5.324936,0,1683969508.3554137
1.0407314,0.75571483,0.88310033,-0.24984388,-0.09972375,0.52580225,5.562542,6.0777693,5.324936,0,1683969508.3656785
1.0407314,0.75571483,0.88310033,-0.24984388,-0.09972375,0.52580225,5.598153,6.037316,5.3336315,0,1683969508.381058
1.0407314,0.75571483,0.88310033,-0.13530666,-0.074067414,0.28970283,5.598153,6.037316,5.3336315,0,1683969508.386192
1.006949,0.7503486,0.8969426,-0.13530666,-0.074067414,0.28970283,5.598153,6.037316,5.3336315,0,1683969508.4066749
1.006949,0.7503486,0.8969426,-0.0053450707,-0.0015271631,0.062002823,5.598153,6.037316,5.3336315,0,1683969508.4118078
1.006949,0.7503486,0.8969426,-0.0053450707,-0.0015271631,0.062002823,5.624499,6.0080137,5.3389983,0,1683969508.4169395
1.006949,0.7503486,0.8969426,-0.0053450707,-0.0015271631,0.062002823,5.626222,6.005546,5.339958,0,1683969508.4378777
1.006949,0.7503486,0.8969426,0.11804971,0.088422745,-0.11224649,5.626222,6.005546,5.339958,0,1683969508.4481425
0.98780155,0.75132436,0.9070041,0.11804971,0.088422745,-0.11224649,5.626222,6.005546,5.339958,0,1683969508.4635332
0.98780155,0.75132436,0.9070041,0.11804971,0.088422745,-0.11224649,5.6168256,6.0152545,5.3389225,0,1683969508.4686682
0.42545164,0.6431473,0.39703536,0.11804971,0.088422745,-0.11224649,5.6168256,6.0152545,5.3389225,0,1683969508.4840589
0.42545164,0.6431473,0.39703536,2.461787,-0.21227567,-3.4266486,5.6168256,6.0152545,5.3389225,0,1683969508.4891934
0.42545164,0.6431473,0.39703536,2.461787,-0.21227567,-3.4266486,2.9858027,8.657812,3.5161595,0,1683969508.4943237
0.42545164,0.6431473,0.39703536,2.5127943,-0.2759584,-3.483459,2.9858027,8.657812,3.5161595,0,1683969508.5148282
0.39392543,0.6502209,0.37118018,2.5127943,-0.2759584,-3.483459,2.9858027,8.657812,3.5161595,0,1683969508.5250924
0.39392543,0.6502209,0.37118018,2.5127943,-0.2759584,-3.483459,2.7257948,8.820343,3.3177886,0,1683969508.5302231
0.36276507,0.64869636,0.36471638,2.5127943,-0.2759584,-3.483459,2.7257948,8.820343,3.3177886,0,1683969508.5609443
0.36276507,0.64869636,0.36471638,2.5127943,-0.2759584,-3.483459,2.3211935,9.0447855,3.0066636,0,1683969508.5660784
0.36276507,0.64869636,0.36471638,2.5674667,-0.30405816,-3.5475998,2.3211935,9.0447855,3.0066636,0,1683969508.5712004
0.36276507,0.64869636,0.36471638,2.638938,-0.2864958,-3.6106718,2.3211935,9.0447855,3.0066636,0,1683969508.5814793
0.36276507,0.64869636,0.36471638,2.638938,-0.2864958,-3.6106718,2.0397031,9.180853,2.7906423,0,1683969508.5866024
0.33642206,0.65387964,0.35630128,2.638938,-0.2864958,-3.6106718,2.0397031,9.180853,2.7906423,0,1683969508.607084
0.3023957,0.6561358,0.33916613,2.638938,-0.2864958,-3.6106718,2.0397031,9.180853,2.7906423,0,1683969508.6378567
0.3023957,0.6561358,0.33916613,2.6931522,-0.27030787,-3.6714528,2.0397031,9.180853,2.7906423,0,1683969508.6429868
0.3023957,0.6561358,0.33916613,2.6931522,-0.27030787,-3.6714528,1.7488953,9.304886,2.5683796,0,1683969508.6481209
0.3023957,0.6561358,0.33916613,2.6931522,-0.27030787,-3.6714528,1.2933326,9.466824,2.2232156,0,1683969508.6583788
0.26166162,0.65345275,0.30696914,2.6931522,-0.27030787,-3.6714528,1.2933326,9.466824,2.2232156,0,1683969508.673758
0.26166162,0.65345275,0.30696914,2.7672195,-0.24678956,-3.7528505,1.2933326,9.466824,2.2232156,0,1683969508.6788871
0.25763696,0.6571725,0.26190552,2.7672195,-0.24678956,-3.7528505,1.2933326,9.466824,2.2232156,0,1683969508.7044609
0.25763696,0.6571725,0.26190552,2.8341093,-0.2564107,-3.845244,1.2933326,9.466824,2.2232156,0,1683969508.7095494
0.25763696,0.6571725,0.26190552,2.8341093,-0.2564107,-3.845244,0.97733384,9.557413,1.984134,0,1683969508.7146819
0.25763696,0.6571725,0.26190552,2.9374983,-0.36545014,-3.9758165,0.97733384,9.557413,1.984134,0,1683969508.735206
0.20885365,0.6490623,0.20501198,2.9374983,-0.36545014,-3.9758165,0.97733384,9.557413,1.984134,0,1683969508.7403388
0.20885365,0.6490623,0.20501198,2.9374983,-0.36545014,-3.9758165,0.65027195,9.633189,1.73636,0,1683969508.7454758
0.20885365,0.6490623,0.20501198,2.9374983,-0.36545014,-3.9758165,-5.739769,7.144188,-3.5002527,0,1683969508.7557437
0.20885365,0.6490623,0.20501198,0.4288274,0.6186538,-0.75701475,-5.739769,7.144188,-3.5002527,0,1683969508.7660015
-0.93023723,0.56143516,-0.6986383,0.4288274,0.6186538,-0.75701475,-5.739769,7.144188,-3.5002527,0,1683969508.7711363
-0.9449331,0.5638134,-0.69876033,0.4288274,0.6186538,-0.75701475,-5.739769,7.144188,-3.5002527,0,1683969508.7864275
-0.9449331,0.5638134,-0.69876033,0.21426098,0.6053675,-0.5728389,-5.739769,7.144188,-3.5002527,0,1683969508.796647
-0.9449331,0.5638134,-0.69876033,0.21426098,0.6053675,-0.5728389,-5.7723756,7.085876,-3.5645716,0,1683969508.8120375
-0.9449331,0.5638134,-0.69876033,0.015577064,0.54458636,-0.34666604,-5.7723756,7.085876,-3.5645716,0,1683969508.8376515
-0.9449331,0.5638134,-0.69876033,0.015577064,0.54458636,-0.34666604,-5.7994905,7.0285997,-3.633287,0,1683969508.8428006
-0.95334834,0.5803387,-0.6843082,0.015577064,0.54458636,-0.34666604,-5.7994905,7.0285997,-3.633287,0,1683969508.8530638
-0.9347496,0.60838914,-0.6968699,0.015577064,0.54458636,-0.34666604,-5.7994905,7.0285997,-3.633287,0,1683969508.8632934
-0.9347496,0.60838914,-0.6968699,0.015577064,0.54458636,-0.34666604,-5.8052,7.0081615,-3.6635315,0,1683969508.8684268
-0.9347496,0.60838914,-0.6968699,-0.106595986,0.42164972,-0.1516473,-5.8052,7.0081615,-3.6635315,0,1683969508.8838303
-0.9024917,0.6341224,-0.7010775,-0.106595986,0.42164972,-0.1516473,-5.8052,7.0081615,-3.6635315,0,1683969508.914571
-0.9024917,0.6341224,-0.7010775,-0.106595986,0.42164972,-0.1516473,-5.804194,6.998864,-3.6828415,0,1683969508.9196992
-0.9024917,0.6341224,-0.7010775,-0.18035796,0.3023783,-0.03680463,-5.804194,6.998864,-3.6828415,0,1683969508.9248312
-0.8845028,0.6447937,-0.7000409,-0.18035796,0.3023783,-0.03680463,-5.804194,6.998864,-3.6828415,0,1683969508.9401772
-0.8845028,0.6447937,-0.7000409,-0.25381452,0.19043724,0.043829583,-5.804194,6.998864,-3.6828415,0,1683969508.9453118
-0.8845028,0.6447937,-0.7000409,-0.25381452,0.19043724,0.043829583,-5.799626,6.998336,-3.6910405,0,1683969508.95558
-0.8862102,0.64394003,-0.66570956,-0.25381452,0.19043724,0.043829583,-5.799626,6.998336,-3.6910405,0,1683969508.9709373
-0.8862102,0.64394003,-0.66570956,-0.34223726,0.09437868,0.12675454,-5.799626,6.998336,-3.6910405,0,1683969508.981202
-0.8862102,0.64394003,-0.66570956,-0.34223726,0.09437868,0.12675454,-5.7897835,7.010099,-3.68416,0,1683969508.9863365
-0.8862102,0.64394003,-0.66570956,-0.41599923,0.011911872,0.23289238,-5.7897835,7.010099,-3.68416,0,1683969509.022226
-0.8862102,0.64394003,-0.66570956,-3.035542,0.61162883,3.6479344,-5.7897835,7.010099,-3.68416,0,1683969509.0324442
-0.8862102,0.64394003,-0.66570956,-3.035542,0.61162883,3.6479344,-1.7844477,9.64589,0.093074225,0,1683969509.0478413
-0.8862102,0.64394003,-0.66570956,-3.035542,0.61162883,3.6479344,-1.3045896,9.710613,0.48801157,0,1683969509.0632014
-0.8862102,0.64394003,-0.66570956,-3.1728342,0.71776664,3.7345247,-1.3045896,9.710613,0.48801157,0,1683969509.0683336
-0.11104306,0.57710683,0.106957465,-3.1728342,0.71776664,3.7345247,-1.3045896,9.710613,0.48801157,0,1683969509.0785942
-0.114153,0.5552153,0.19366984,-3.1728342,0.71776664,3.7345247,-1.3045896,9.710613,0.48801157,0,1683969509.1041844
-0.114153,0.5552153,0.19366984,-3.1728342,0.71776664,3.7345247,-0.9787503,9.7308855,0.76683486,0,1683969509.1093125
-0.114153,0.5552153,0.19366984,-3.2096386,0.79519385,3.8327212,-0.9787503,9.7308855,0.76683486,0,1683969509.1195774
-0.11336028,0.5260673,0.27507702,-3.2096386,0.79519385,3.8327212,-0.9787503,9.7308855,0.76683486,0,1683969509.1400142
-0.11336028,0.5260673,0.27507702,-3.1874948,0.8533788,3.9423716,-0.9787503,9.7308855,0.76683486,0,1683969509.1451423
-0.11336028,0.5260673,0.27507702,-3.1874948,0.8533788,3.9423716,-0.64884365,9.731845,1.0518293,0,1683969509.1553698
-0.11336028,0.5260673,0.27507702,-3.1874948,0.8533788,3.9423716,-0.13901727,9.69624,1.4831487,0,1683969509.17068
-0.0248795,0.4999072,0.32800692,-3.1874948,0.8533788,3.9423716,-0.13901727,9.69624,1.4831487,0,1683969509.1758149
-0.0248795,0.4999072,0.32800692,-3.140611,0.96990126,4.120286,-0.13901727,9.69624,1.4831487,0,1683969509.1860723
0.070735835,0.50356597,0.33386096,-3.140611,0.96990126,4.120286,-0.13901727,9.69624,1.4831487,0,1683969509.2014031
0.070735835,0.50356597,0.33386096,-3.1239648,1.0969613,4.2465825,-0.13901727,9.69624,1.4831487,0,1683969509.2116652
0.070735835,0.50356597,0.33386096,-3.1239648,1.0969613,4.2465825,0.21340203,9.646743,1.7694336,0,1683969509.2167983
0.12165344,0.5416169,0.37130213,-3.1239648,1.0969613,4.2465825,0.21340203,9.646743,1.7694336,0,1683969509.2424507
0.12165344,0.5416169,0.37130213,-3.1239648,1.0969613,4.2465825,0.5693508,9.574982,2.057098,0,1683969509.2527118
0.12165344,0.5416169,0.37130213,-3.1832187,1.3300064,4.300033,0.5693508,9.574982,2.057098,0,1683969509.2629738
0.16293633,0.52826256,0.3943523,-3.1832187,1.3300064,4.300033,0.5693508,9.574982,2.057098,0,1683969509.2681098
0.16293633,0.52826256,0.3943523,-3.1832187,1.3300064,4.300033,0.91781396,9.479562,2.351949,0,1683969509.2835028
0.16293633,0.52826256,0.3943523,-3.284317,1.5786285,4.3348527,0.91781396,9.479562,2.351949,0,1683969509.2937617
0.71339524,0.3392271,1.4919163,-3.284317,1.5786285,4.3348527,0.91781396,9.479562,2.351949,0,1683969509.3142676
0.71339524,0.3392271,1.4919163,-3.542255,2.9405525,3.4132094,0.91781396,9.479562,2.351949,0,1683969509.324498
0.71339524,0.3392271,1.4919163,-3.542255,2.9405525,3.4132094,3.555091,4.873859,7.735822,0,1683969509.334765
0.73864067,0.35996002,1.5641766,-3.542255,2.9405525,3.4132094,3.555091,4.873859,7.735822,0,1683969509.3551984
0.73864067,0.35996002,1.5641766,-2.8307495,2.896723,3.040429,3.555091,4.873859,7.735822,0,1683969509.3603308
0.73864067,0.35996002,1.5641766,-2.8307495,2.896723,3.040429,3.4880438,4.521422,7.9766164,0,1683969509.3654711
0.73864067,0.35996002,1.5641766,-2.8307495,2.896723,3.040429,3.399659,4.2178802,8.178503,0,1683969509.3911343
0.81199855,0.38471758,1.4303883,-2.8307495,2.896723,3.040429,3.399659,4.2178802,8.178503,0,1683969509.396265
0.81199855,0.38471758,1.4303883,-2.234545,2.6028967,2.6951375,3.399659,4.2178802,8.178503,0,1683969509.4013958
0.81199855,0.38471758,1.4303883,-2.234545,2.6028967,2.6951375,3.2675955,3.8661807,8.4030695,0,1683969509.4270427
0.81199855,0.38471758,1.4303883,-1.5326608,2.101682,2.1610885,3.2675955,3.8661807,8.4030695,0,1683969509.4321756
0.7798016,0.5060051,1.4066675,-1.5326608,2.101682,2.1610885,3.2675955,3.8661807,8.4030695,0,1683969509.4373195
0.7798016,0.5060051,1.4066675,-1.0445796,1.7820467,1.7273742,3.2675955,3.8661807,8.4030695,0,1683969509.4527106
0.7798016,0.5060051,1.4066675,-1.0445796,1.7820467,1.7273742,3.1883733,3.7010145,8.507225,0,1683969509.4732282
0.77425253,0.51789606,1.3630064,-1.0445796,1.7820467,1.7273742,3.1883733,3.7010145,8.507225,0,1683969509.4783614
0.77425253,0.51789606,1.3630064,-0.5873469,1.7713565,1.2457069,3.1883733,3.7010145,8.507225,0,1683969509.4834847
0.6443059,0.515213,1.3748363,-0.5873469,1.7713565,1.2457069,3.1883733,3.7010145,8.507225,0,1683969509.4937158
0.6443059,0.515213,1.3748363,-0.5873469,1.7713565,1.2457069,3.1089723,3.5838768,8.586398,0,1683969509.5142293
0.5721066,0.43831828,1.3247725,-0.5873469,1.7713565,1.2457069,3.1089723,3.5838768,8.586398,0,1683969509.5193238
0.5721066,0.43831828,1.3247725,-0.5410739,2.412765,0.9818132,3.1089723,3.5838768,8.586398,0,1683969509.529588
0.5721066,0.43831828,1.3247725,-0.5410739,2.412765,0.9818132,3.0070717,3.5031462,8.655726,0,1683969509.5347195
0.5721066,0.43831828,1.3247725,-0.82818055,3.2357533,0.72127914,3.0070717,3.5031462,8.655726,0,1683969509.5705879
0.5721066,0.43831828,1.3247725,-0.82818055,3.2357533,0.72127914,2.8430138,3.429643,8.7401905,0,1683969509.5757182
0.5721066,0.43831828,1.3247725,-0.82818055,3.2357533,0.72127914,-0.33758435,4.0208673,8.941743,0,1683969509.5859838
0.07994369,0.47746688,0.68357646,-0.82818055,3.2357533,0.72127914,-0.33758435,4.0208673,8.941743,0,1683969509.6013794
0.07994369,0.47746688,0.68357646,0.32177326,0.97249746,0.14584407,-0.33758435,4.0208673,8.941743,0,1683969509.6065114
0.07994369,0.47746688,0.68357646,0.32177326,0.97249746,0.14584407,-0.41398346,4.0632606,8.919341,0,1683969509.6116278
0.07994369,0.47746688,0.68357646,0.23564127,0.73929965,0.032986723,-0.41398346,4.0632606,8.919341,0,1683969509.6526704
0.019940188,0.46155134,0.74187255,0.23564127,0.73929965,0.032986723,-0.41398346,4.0632606,8.919341,0,1683969509.6629326
0.019940188,0.46155134,0.74187255,0.23564127,0.73929965,0.032986723,-0.5134718,4.105622,8.894735,0,1683969509.6680644
-0.038599815,0.4224027,0.7977904,0.23564127,0.73929965,0.032986723,-0.5134718,4.105622,8.894735,0,1683969509.6731973
-0.038599815,0.4224027,0.7977904,0.22571471,0.603993,0.00061086525,-0.5134718,4.105622,8.894735,0,1683969509.6834538
-0.038599815,0.4224027,0.7977904,0.22571471,0.603993,0.00061086525,-0.56757694,4.1262918,8.881873,0,1683969509.7040203
-0.038599815,0.4224027,0.7977904,0.24190263,0.5012149,0.032986723,-0.56757694,4.1262918,8.881873,0,1683969509.7193158
-0.08921252,0.39099842,0.8392563,0.24190263,0.5012149,0.032986723,-0.56757694,4.1262918,8.881873,0,1683969509.724452
-0.08921252,0.39099842,0.8392563,0.24190263,0.5012149,0.032986723,-0.61338377,4.1453266,8.869956,0,1683969509.7397702
-0.08921252,0.39099842,0.8392563,0.28313604,0.42210788,0.1470658,-0.61338377,4.1453266,8.869956,0,1683969509.7602885
-0.08921252,0.39099842,0.8392563,0.28313604,0.42210788,0.1470658,-0.6510202,4.1652474,8.857934,0,1683969509.76542
-0.12281204,0.37081432,0.8875518,0.28313604,0.42210788,0.1470658,-0.6510202,4.1652474,8.857934,0,1683969509.770552
-0.12281204,0.37081432,0.8875518,0.28313604,0.42210788,0.1470658,-0.68012214,4.1879425,8.8450365,0,1683969509.7910671
-0.099274084,0.36813122,0.9317616,0.28313604,0.42210788,0.1470658,-0.68012214,4.1879425,8.8450365,0,1683969509.8064222
-0.099274084,0.36813122,0.9317616,0.3388775,0.38988474,0.257327,-0.68012214,4.1879425,8.8450365,0,1683969509.8115153
-0.04610025,0.40118194,0.9348716,0.3388775,0.38988474,0.257327,-0.68012214,4.1879425,8.8450365,0,1683969509.8268313
-0.04610025,0.40118194,0.9348716,0.3388775,0.38988474,0.257327,-0.7013959,4.2157607,8.830148,0,1683969509.8319619
-0.04610025,0.40118194,0.9348716,0.39614612,0.36361754,0.3297145,-0.7013959,4.2157607,8.830148,0,1683969509.842226
-0.04610025,0.40118194,0.9348716,0.39614612,0.36361754,0.3297145,-0.72212166,4.2682667,8.803213,0,1683969509.8575737
-0.04610025,0.40118194,0.9348716,0.16203201,-0.031154128,-0.01740966,-0.72212166,4.2682667,8.803213,0,1683969509.8627074
-0.11171384,0.48136955,0.82529205,0.16203201,-0.031154128,-0.01740966,-0.72212166,4.2682667,8.803213,0,1683969509.87806
-0.11171384,0.48136955,0.82529205,0.16203201,-0.031154128,-0.01740966,-1.0125054,4.8570333,8.46287,0,1683969509.8831985
