acc_x,acc_y,acc_z,gyr_x,gyr_y,gyr_z,grav_x,grav_y,grav_z,label,timestamp
0.052366342,0.572663,-0.35196006,4.3784714,-0.3300476,0.37490845,1.3073026,9.685379,-0.8091816,0,1683900349.2351332
0.16390832,0.75276804,-0.74342614,4.1952896,-0.13938904,0.29172897,1.3650765,9.488552,-2.0674474,0,1683900349.2415743
0.21026914,0.7915765,-1.0741242,4.1952896,-0.13938904,0.29172897,1.3650765,9.488552,-2.0674474,0,1683900349.252138
0.30740392,0.9299613,-1.2908539,3.9118385,-1.1812019,-0.31549454,1.3085479,9.342582,-2.6784823,0,1683900349.2628734
0.3108313,0.98413235,-1.3652859,3.9118385,-1.1812019,-0.31549454,1.3085479,9.342582,-2.6784823,0,1683900349.2809997
0.3108313,0.98413235,-1.3652859,3.8788605,-1.4251328,-0.44647217,1.3085479,9.342582,-2.6784823,0,1683900349.2912235
0.3108313,0.98413235,-1.3652859,3.7137032,-1.9396973,-0.8363342,1.3085479,9.342582,-2.6784823,0,1683900349.311671
0.24566533,1.0158737,-1.4743862,3.7137032,-1.9396973,-0.8363342,1.3085479,9.342582,-2.6784823,0,1683900349.316804
0.24566533,1.0158737,-1.4743862,3.3867264,-2.071743,-1.0014915,1.3085479,9.342582,-2.6784823,0,1683900349.3372486
0.24566533,1.0158737,-1.4743862,3.3867264,-2.071743,-1.0014915,0.9287536,8.981224,-3.8269324,0,1683900349.342345
0.24566533,1.0158737,-1.4743862,3.3867264,-2.071743,-1.0014915,1.0905559,9.108062,-3.4676018,0,1683900349.347469
0.12437196,1.0129316,-1.5861558,3.3867264,-2.071743,-1.0014915,1.0905559,9.108062,-3.4676018,0,1683900349.352593
0.12437196,1.0129316,-1.5861558,3.3867264,-2.071743,-1.0014915,0.8423574,8.91962,-3.9876328,0,1683900349.3679266
0.12437196,1.0129316,-1.5861558,3.1331825,-2.021675,-1.037674,0.8423574,8.91962,-3.9876328,0,1683900349.3730674
0.05822021,0.9904867,-1.6278911,3.1331825,-2.021675,-1.037674,0.8423574,8.91962,-3.9876328,0,1683900349.3935127
0.05822021,0.9904867,-1.6278911,3.1331825,-2.021675,-1.037674,0.59789705,8.757372,-4.372797,0,1683900349.4190984
-0.14043218,0.9321603,-1.7728578,3.1331825,-2.021675,-1.037674,0.59789705,8.757372,-4.372797,0,1683900349.4241915
-0.14043218,0.9321603,-1.7728578,2.1254158,-1.4411545,-0.95890045,0.59789705,8.757372,-4.372797,0,1683900349.4293327
-0.22537394,0.8889539,-1.8763468,2.1254158,-1.4411545,-0.95890045,0.59789705,8.757372,-4.372797,0,1683900349.449828
-0.22537394,0.8889539,-1.8763468,2.1254158,-1.4411545,-0.95890045,0.47005114,8.679288,-4.5408607,0,1683900349.460091
-0.22537394,0.8889539,-1.8763468,0.6458092,-0.6506157,-0.6052208,0.47005114,8.679288,-4.5408607,0,1683900349.470314
-0.22537394,0.8889539,-1.8763468,0.6458092,-0.6506157,-0.6052208,0.3731545,8.63004,-4.6425796,0,1683900349.4805624
-0.26783723,0.8567425,-1.9307605,0.6458092,-0.6506157,-0.6052208,0.3731545,8.63004,-4.6425796,0,1683900349.4856935
-0.2841856,0.801343,-1.9117279,0.6458092,-0.6506157,-0.6052208,0.3731545,8.63004,-4.6425796,0,1683900349.5164342
-0.2841856,0.801343,-1.9117279,0.6458092,-0.6506157,-0.6052208,0.25994885,8.604485,-4.6974106,0,1683900349.5215282
-0.2841856,0.801343,-1.9117279,0.061950684,-0.6368637,-0.42297363,0.25994885,8.604485,-4.6974106,0,1683900349.526661
-0.2841856,0.801343,-1.9117279,-0.17770767,-0.7295227,-0.3420639,0.25994885,8.604485,-4.6974106,0,1683900349.5574338
-0.2841856,0.801343,-1.9117279,-0.17770767,-0.7295227,-0.3420639,0.14806959,8.622856,-4.668492,0,1683900349.5830462
-0.2841856,0.801343,-1.9117279,-0.7081604,-1.2451553,-0.15781403,0.14806959,8.622856,-4.668492,0,1683900349.5984402
-0.22561659,0.77254385,-1.7303945,-0.7081604,-1.2451553,-0.15781403,0.14806959,8.622856,-4.668492,0,1683900349.6035647
-0.22561659,0.77254385,-1.7303945,-0.7081604,-1.2451553,-0.15781403,0.019774308,8.668282,-4.585944,0,1683900349.6086984
-0.22561659,0.77254385,-1.7303945,-0.9989548,-1.7095184,-0.06822586,0.019774308,8.668282,-4.585944,0,1683900349.6240911
-0.2085251,0.7364197,-1.5346689,-0.9989548,-1.7095184,-0.06822586,0.019774308,8.668282,-4.585944,0,1683900349.6394954
-0.21536474,0.71079004,-1.4956179,-0.9989548,-1.7095184,-0.06822586,0.019774308,8.668282,-4.585944,0,1683900349.659966
-0.21536474,0.71079004,-1.4956179,-1.070385,-1.825676,-0.04272461,0.019774308,8.668282,-4.585944,0,1683900349.6651008
-0.21536474,0.71079004,-1.4956179,-1.070385,-1.825676,-0.04272461,-0.026358778,8.687087,-4.5501876,0,1683900349.6753223
-0.22780041,0.6370859,-1.4211707,-1.070385,-1.825676,-0.04272461,-0.026358778,8.687087,-4.5501876,0,1683900349.7009354
-0.22780041,0.6370859,-1.4211707,-1.070385,-1.825676,-0.04272461,-0.16673324,8.753571,-4.41787,0,1683900349.706071
-0.22780041,0.6370859,-1.4211707,-1.3271332,-2.1515846,0.08090973,-0.16673324,8.753571,-4.41787,0,1683900349.711198
-0.22780041,0.6370859,-1.4211707,-2.146244,-2.4445152,0.44727325,-0.16673324,8.753571,-4.41787,0,1683900349.762505
-0.22780041,0.6370859,-1.4211707,-1.3271332,-2.1515846,0.08090973,-0.16673324,8.753571,-4.41787,0,1683900349.777858
-0.15215509,0.5375095,-1.1529543,-1.3271332,-2.1515846,0.08090973,-0.16673324,8.753571,-4.41787,0,1683900349.8085506
-0.15215509,0.5375095,-1.1529543,-1.3271332,-2.1515846,0.08090973,-0.40233594,8.951363,-3.9851758,0,1683900349.813675
-0.15215509,0.5375095,-1.1529543,-1.3271332,-2.1515846,0.08090973,-0.42838627,8.993349,-3.8867142,0,1683900349.8290765
-0.13042298,0.5348252,-1.1046371,-1.3271332,-2.1515846,0.08090973,-0.42838627,8.993349,-3.8867142,0,1683900349.8444154
-0.13042298,0.5348252,-1.1046371,-2.2932434,-2.4403763,0.51015854,-0.42838627,8.993349,-3.8867142,0,1683900349.8546324
-0.13042298,0.5348252,-1.1046371,-2.2932434,-2.4403763,0.51015854,-0.46671647,9.083793,-3.665689,0,1683900349.8699946
-0.08113522,0.5245733,-1.0148273,-2.2932434,-2.4403763,0.51015854,-0.46671647,9.083793,-3.665689,0,1683900349.880245
-0.08113522,0.5245733,-1.0148273,-2.582035,-2.410469,0.63058853,-0.46671647,9.083793,-3.665689,0,1683900349.8904397
-0.08113522,0.5245733,-1.0148273,-2.582035,-2.410469,0.63058853,-0.47836068,9.131077,-3.5447125,0,1683900349.9006932
-0.08113522,0.5245733,-1.0148273,-2.72583,-2.396717,0.6922722,-0.47836068,9.131077,-3.5447125,0,1683900349.9057846
-0.047210086,0.52384543,-0.9745478,-2.72583,-2.396717,0.6922722,-0.47836068,9.131077,-3.5447125,0,1683900349.9263344
-0.047210086,0.52384543,-0.9745478,-3.2423973,-2.3199463,0.8807945,-0.47836068,9.131077,-3.5447125,0,1683900349.9314542
-0.047210086,0.52384543,-0.9745478,-3.2423973,-2.3199463,0.8807945,-0.4785303,9.328456,-2.9868581,0,1683900349.9468548
0.07115635,0.5138362,-0.7387855,-3.2423973,-2.3199463,0.8807945,-0.4785303,9.328456,-2.9868581,0,1683900349.9622052
0.07115635,0.5138362,-0.7387855,-3.2423973,-2.3199463,0.8807945,-0.46751273,9.377669,-2.830393,0,1683900349.9877539
0.08800518,0.5150646,-0.67337686,-3.2423973,-2.3199463,0.8807945,-0.46751273,9.377669,-2.830393,0,1683900349.9928906
0.08800518,0.5150646,-0.67337686,-3.35001,-2.2953796,0.91711044,-0.46751273,9.377669,-2.830393,0,1683900349.9980185
0.10069867,0.511895,-0.57185924,-3.35001,-2.2953796,0.91711044,-0.46751273,9.377669,-2.830393,0,1683900350.0031867
0.10069867,0.511895,-0.57185924,-3.5076904,-2.2624016,0.96717834,-0.46751273,9.377669,-2.830393,0,1683900350.0083163
0.10069867,0.511895,-0.57185924,-3.5076904,-2.2624016,0.96717834,-0.4348475,9.471635,-2.503881,0,1683900350.0237207
0.096300684,0.48552227,-0.49791247,-3.5076904,-2.2624016,0.96717834,-0.4348475,9.471635,-2.503881,0,1683900350.0390635
0.096300684,0.48552227,-0.49791247,-3.6088943,-2.2869682,1.0097694,-0.4348475,9.471635,-2.503881,0,1683900350.049311
0.096300684,0.48552227,-0.49791247,-3.6088943,-2.2869682,1.0097694,-0.39007005,9.557144,-2.1631565,0,1683900350.0544689
0.096300684,0.48552227,-0.49791247,-3.6461449,-2.3231506,1.0342026,-0.39007005,9.557144,-2.1631565,0,1683900350.0750039
0.096300684,0.48552227,-0.49791247,-3.6461449,-2.3231506,1.0342026,-0.36315897,9.596127,-1.9881828,0,1683900350.0852315
0.09751392,0.4752856,-0.45446342,-3.6461449,-2.3231506,1.0342026,-0.36315897,9.596127,-1.9881828,0,1683900350.0903623
0.119003385,0.44086,-0.19845524,-3.6461449,-2.3231506,1.0342026,-0.36315897,9.596127,-1.9881828,0,1683900350.1108763
0.119003385,0.44086,-0.19845524,-3.7835312,-2.4232864,1.0853386,-0.36315897,9.596127,-1.9881828,0,1683900350.1263475
0.119003385,0.44086,-0.19845524,-3.7835312,-2.4232864,1.0853386,-0.26555339,9.695276,-1.4496527,0,1683900350.1315565
0.1277842,0.4276812,-0.12644963,-3.7835312,-2.4232864,1.0853386,-0.26555339,9.695276,-1.4496527,0,1683900350.1522315
0.1277842,0.4276812,-0.12644963,-3.799553,-2.4019241,1.0842705,-0.26555339,9.695276,-1.4496527,0,1683900350.157367
0.1277842,0.4276812,-0.12644963,-3.799553,-2.4019241,1.0842705,-0.18724778,9.745439,-1.0778507,0,1683900350.1625075
0.13949193,0.40963432,-0.044935264,-3.799553,-2.4019241,1.0842705,-0.18724778,9.745439,-1.0778507,0,1683900350.1727722
0.13949193,0.40963432,-0.044935264,-3.8070297,-2.3092651,1.0769272,-0.18724778,9.745439,-1.0778507,0,1683900350.1779032
0.13949193,0.40963432,-0.044935264,-3.8070297,-2.3092651,1.0769272,-0.09942343,9.780821,-0.70430785,0,1683900350.19332
0.13779339,0.3576471,0.036579095,-3.8070297,-2.3092651,1.0769272,-0.09942343,9.780821,-0.70430785,0,1683900350.2241213
0.13779339,0.3576471,0.036579095,-3.8070297,-2.3092651,1.0769272,0.052185472,9.805466,-0.14314255,0,1683900350.2344024
0.13779339,0.3576471,0.036579095,-3.827324,-2.1346283,1.1195183,0.052185472,9.805466,-0.14314255,0,1683900350.2395284
0.22588956,0.36886954,0.13518493,-3.827324,-2.1346283,1.1195183,0.052185472,9.805466,-0.14314255,0,1683900350.285675
0.22588956,0.36886954,0.13518493,-3.827324,-2.1346283,1.1195183,0.32011706,9.782174,0.61398184,0,1683900350.3010006
0.22588956,0.36886954,0.13518493,-3.9242554,-2.0141983,1.3921547,0.32011706,9.782174,0.61398184,0,1683900350.3061833
0.2688533,0.3796067,0.1734929,-3.9242554,-2.0141983,1.3921547,0.32011706,9.782174,0.61398184,0,1683900350.3215418
0.2688533,0.3796067,0.1734929,-3.9242554,-2.0141983,1.3921547,0.4881786,9.74359,0.99725455,0,1683900350.3368554
0.2688533,0.3796067,0.1734929,-3.9561653,-1.9951057,1.4614487,0.4881786,9.74359,0.99725455,0,1683900350.3470936
0.2688533,0.3796067,0.1734929,-3.9561653,-1.9951057,1.4614487,0.5791238,9.716898,1.1903318,0,1683900350.3574352
0.2688533,0.3796067,0.1734929,-4.0338707,-1.8906975,1.5870857,0.5791238,9.716898,1.1903318,0,1683900350.3830152
0.33596048,0.37351018,0.27819523,-4.0338707,-1.8906975,1.5870857,0.5791238,9.716898,1.1903318,0,1683900350.3881438
0.33596048,0.37351018,0.27819523,-4.0338707,-1.8906975,1.5870857,1.175597,9.432548,2.4115148,0,1683900350.4700918
0.52974474,0.45722353,0.6618511,-4.0338707,-1.8906975,1.5870857,1.175597,9.432548,2.4115148,0,1683900350.4751806
0.52974474,0.45722353,0.6618511,-4.413185,-0.91804504,1.7181969,1.175597,9.432548,2.4115148,0,1683900350.4905257
0.6925309,0.4735719,0.84050024,-4.413185,-0.91804504,1.7181969,1.175597,9.432548,2.4115148,0,1683900350.5110672
0.6925309,0.4735719,0.84050024,-4.340687,-0.88827133,1.5019035,1.175597,9.432548,2.4115148,0,1683900350.5161912
0.6925309,0.4735719,0.84050024,-4.340687,-0.88827133,1.5019035,1.4501976,9.213653,3.0291784,0,1683900350.5212877
0.6925309,0.4735719,0.84050024,-4.191551,-1.1076355,1.3878822,1.4501976,9.213653,3.0291784,0,1683900350.5366862
0.7559831,0.5048128,0.96130836,-4.191551,-1.1076355,1.3878822,1.4501976,9.213653,3.0291784,0,1683900350.5418234
0.7559831,0.5048128,0.96130836,-4.191551,-1.1076355,1.3878822,1.5389122,9.1336155,3.221677,0,1683900350.5571878
0.7559831,0.5048128,0.96130836,0.20160675,0.87158203,-0.45394897,1.5389122,9.1336155,3.221677,0,1683900350.572564
0.7559831,0.5048128,0.96130836,0.20160675,0.87158203,-0.45394897,2.4137278,8.656897,3.9245977,0,1683900350.5776894
0.5753928,0.65514797,1.4208673,0.20160675,0.87158203,-0.45394897,2.4137278,8.656897,3.9245977,0,1683900350.608381
0.5753928,0.65514797,1.4208673,0.56690216,1.4436913,-0.30694962,2.4137278,8.656897,3.9245977,0,1683900350.6288493
0.5753928,0.65514797,1.4208673,0.56690216,1.4436913,-0.30694962,2.300775,8.677977,3.945827,0,1683900350.6441689
0.5085131,0.6607592,1.3308148,0.56690216,1.4436913,-0.30694962,2.300775,8.677977,3.945827,0,1683900350.6543918
0.5085131,0.6607592,1.3308148,0.8758545,1.6491699,-0.25794983,2.300775,8.677977,3.945827,0,1683900350.6748943
0.5399966,0.6895584,1.157049,0.8758545,1.6491699,-0.25794983,2.300775,8.677977,3.945827,0,1683900350.6851501
0.5399966,0.6895584,1.157049,0.8758545,1.6491699,-0.25794983,2.2200227,8.705426,3.931597,0,1683900350.6902807
0.5399966,0.6895584,1.157049,0.8758545,1.6491699,-0.25794983,2.179693,8.723857,3.9132657,0,1683900350.7158775
0.5399966,0.6895584,1.157049,1.0420799,1.6918945,-0.24726868,2.179693,8.723857,3.9132657,0,1683900350.7260997
0.5399966,0.6895584,1.157049,1.7344856,1.4563751,-0.28985977,2.179693,8.723857,3.9132657,0,1683900350.7311897
0.5399966,0.6895584,1.157049,1.7344856,1.4563751,-0.28985977,2.0333166,8.831401,3.7473142,0,1683900350.7414515
0.6983847,0.77375704,0.92007345,1.7344856,1.4563751,-0.28985977,2.0333166,8.831401,3.7473142,0,1683900350.7619054
0.7269413,0.82842857,0.7872998,1.7344856,1.4563751,-0.28985977,2.0333166,8.831401,3.7473142,0,1683900350.8183
0.7269413,0.82842857,0.7872998,2.0828247,1.3232613,-0.556221,2.0333166,8.831401,3.7473142,0,1683900350.8338962
-0.08723174,0.44672903,-0.770269,2.0828247,1.3232613,-0.556221,2.0333166,8.831401,3.7473142,0,1683900350.8390586
-0.08723174,0.44672903,-0.770269,2.0828247,1.3232613,-0.556221,-0.82602865,9.367917,-2.7803223,0,1683900350.844202
-0.08723174,0.44672903,-0.770269,2.0828247,1.3232613,-0.556221,-0.6936829,9.488002,-2.380547,0,1683900350.8493469
-0.08723174,0.44672903,-0.770269,3.966179,1.6523743,-1.7993736,-0.6936829,9.488002,-2.380547,0,1683900350.8596
-0.34081343,0.3983967,-1.0577759,3.966179,1.6523743,-1.7993736,-0.6936829,9.488002,-2.380547,0,1683900350.8753974
-0.34081343,0.3983967,-1.0577759,3.8906097,1.3637161,-1.7396927,-0.6936829,9.488002,-2.380547,0,1683900350.890804
-0.34081343,0.3983967,-1.0577759,3.8906097,1.3637161,-1.7396927,-0.89075977,9.301238,-2.9772332,0,1683900350.8958907
-0.34081343,0.3983967,-1.0577759,3.8341331,0.607357,-1.5000343,-0.89075977,9.301238,-2.9772332,0,1683900350.900975
-0.4730866,0.41451758,-1.2930377,3.8341331,0.607357,-1.5000343,-0.89075977,9.301238,-2.9772332,0,1683900350.9265022
-0.4730866,0.41451758,-1.2930377,3.8341331,0.607357,-1.5000343,-1.0800366,9.075321,-3.5556233,0,1683900350.931619
-0.4730866,0.41451758,-1.2930377,3.509159,-0.26075363,-1.2976265,-1.0800366,9.075321,-3.5556233,0,1683900350.982859
-0.44355944,0.524088,-1.5014718,3.509159,-0.26075363,-1.2976265,-1.0800366,9.075321,-3.5556233,0,1683900350.987991
-0.44355944,0.524088,-1.5014718,3.509159,-0.26075363,-1.2976265,-1.3377551,8.731511,-4.2592854,0,1683900350.998242
-0.4530682,0.55460095,-1.526601,3.509159,-0.26075363,-1.2976265,-1.3377551,8.731511,-4.2592854,0,1683900351.0136135
-0.4530682,0.55460095,-1.526601,3.509159,-0.26075363,-1.2976265,-1.4685186,8.560542,-4.553126,0,1683900351.0187507
-0.4530682,0.55460095,-1.526601,3.044796,-0.2575493,-1.301899,-1.4685186,8.560542,-4.553126,0,1683900351.0391831
-0.4530682,0.55460095,-1.526601,2.770958,-0.16382217,-1.3083076,-1.4685186,8.560542,-4.553126,0,1683900351.0443144
-0.4735719,0.5633818,-1.5026851,2.770958,-0.16382217,-1.3083076,-1.4685186,8.560542,-4.553126,0,1683900351.0494466
-0.4735719,0.5633818,-1.5026851,2.770958,-0.16382217,-1.3083076,-1.5315135,8.480039,-4.6812186,0,1683900351.059711
-0.4735719,0.5633818,-1.5026851,2.770958,-0.16382217,-1.3083076,-1.6973346,8.263099,-5.001064,0,1683900351.0904968
-0.6485662,0.5353105,-1.4965885,2.770958,-0.16382217,-1.3083076,-1.6973346,8.263099,-5.001064,0,1683900351.09563
-0.6485662,0.5353105,-1.4965885,2.0509148,0.2632904,-1.2539673,-1.6973346,8.263099,-5.001064,0,1683900351.1110148
-0.6485662,0.5353105,-1.4965885,-2.460537,-1.959858,2.1752167,-1.6973346,8.263099,-5.001064,0,1683900351.1161058
-0.6485662,0.5353105,-1.4965885,-2.460537,-1.959858,2.1752167,-1.6016983,8.699868,-4.2328753,0,1683900351.126367
-0.26222602,0.44794226,-0.90425587,-2.460537,-1.959858,2.1752167,-1.6016983,8.699868,-4.2328753,0,1683900351.1366322
-0.15849425,0.4830958,-0.791258,-2.460537,-1.959858,2.1752167,-1.6016983,8.699868,-4.2328753,0,1683900351.1468883
-0.15849425,0.4830958,-0.791258,-2.460537,-1.959858,2.1752167,-1.4199419,8.901297,-3.8627787,0,1683900351.1520197
-0.15849425,0.4830958,-0.791258,-2.674694,-1.9992447,2.3849678,-1.4199419,8.901297,-3.8627787,0,1683900351.1674263
-0.042569455,0.50871027,-0.6997496,-2.9387856,-1.8821526,2.5704193,-1.0970097,9.1643095,-3.3139687,0,1683900351.1725953
0.11997397,0.4972452,-0.36001292,-2.9387856,-1.8821526,2.5704193,-1.0970097,9.1643095,-3.3139687,0,1683900351.18296
0.11997397,0.4972452,-0.36001292,-2.9387856,-1.8821526,2.5704193,-0.45751297,9.524216,-2.2913716,0,1683900351.188076
-0.042569455,0.50871027,-0.6997496,-2.9387856,-1.8821526,2.5704193,-0.45751297,9.524216,-2.2913716,0,1683900351.1931825
-0.042569455,0.50871027,-0.6997496,-3.860302,-1.2109756,2.6789665,-0.45751297,9.524216,-2.2913716,0,1683900351.1983263
-0.042569455,0.50871027,-0.6997496,-3.860302,-1.2109756,2.6789665,-1.0970097,9.1643095,-3.3139687,0,1683900351.2085795
-0.042569455,0.50871027,-0.6997496,-3.860302,-1.2109756,2.6789665,-0.45751297,9.524216,-2.2913716,0,1683900351.2240858
-0.042569455,0.50871027,-0.6997496,-4.145756,-0.9638405,2.6481247,-0.45751297,9.524216,-2.2913716,0,1683900351.2343507
1.0725318,0.8618684,1.0872424,0.6191063,0.72992325,-0.4837227,2.9758892,9.043734,2.3506093,0,1683900351.2394936
0.95586395,0.83623874,0.9876659,0.6191063,0.72992325,-0.4837227,2.9758892,9.043734,2.3506093,0,1683900351.2614377
0.95586395,0.83623874,0.9876659,1.0814667,0.9472847,-0.7554245,2.8767488,9.091768,2.2878945,0,1683900351.2720468
0.5553744,0.4769841,0.42072025,-3.3904648,-2.2369003,1.719265,0.50894594,9.781166,0.49005628,0,1683900351.2791498
0.5553744,0.4769841,0.42072025,-3.0805779,-2.4136734,1.6850853,0.50894594,9.781166,0.49005628,0,1683900351.2895448
0.5553744,0.4769841,0.42072025,-3.0805779,-2.4136734,1.6850853,0.7030701,9.748898,0.796915,0,1683900351.2947805
0.5553744,0.4769841,0.42072025,-3.0805779,-2.4136734,1.6850853,1.6526215,9.471547,1.931065,0,1683900351.29994
0.5553744,0.4769841,0.42072025,-1.6679955,-0.55475235,0.63058853,1.6526215,9.471547,1.931065,0,1683900351.3050926
0.91023105,0.799872,0.921772,-1.6679955,-0.55475235,0.63058853,1.6526215,9.471547,1.931065,0,1683900351.3154795
0.91023105,0.799872,0.921772,-1.5124512,-0.39186478,0.44086456,1.6526215,9.471547,1.931065,0,1683900351.3362184
0.91023105,0.799872,0.921772,-1.5124512,-0.39186478,0.44086456,1.7249097,9.424496,2.0914018,0,1683900351.346517
0.93513274,0.81622034,1.0621132,-1.5124512,-0.39186478,0.44086456,1.7249097,9.424496,2.0914018,0,1683900351.3672903
0.93513274,0.81622034,1.0621132,-1.5124512,-0.39186478,0.44086456,1.7796054,9.384844,2.2199283,0,1683900351.38285
0.93513274,0.81622034,1.0621132,-1.0853386,-0.3865242,0.25554657,1.7796054,9.384844,2.2199283,0,1683900351.3880274
0.96149033,0.83159816,1.1892604,-1.0853386,-0.3865242,0.25554657,1.7796054,9.384844,2.2199283,0,1683900351.4035654
0.96149033,0.83159816,1.1892604,-1.0853386,-0.3865242,0.25554657,1.8008548,9.369958,2.2652128,0,1683900351.4087467
0.96149033,0.83159816,1.1892604,-0.8018875,-0.40454865,0.16288757,1.8008548,9.369958,2.2652128,0,1683900351.4190347
0.97442645,0.84844697,1.2224576,-0.8018875,-0.40454865,0.16288757,1.8008548,9.369958,2.2652128,0,1683900351.4396005
0.97442645,0.84844697,1.2224576,0.10681152,-0.46102524,-0.093860626,1.8008548,9.369958,2.2652128,0,1683900351.4447927
0.98344994,0.8906676,1.2021966,0.10681152,-0.46102524,-0.093860626,1.8008548,9.369958,2.2652128,0,1683900351.4602451
0.98344994,0.8906676,1.2021966,0.10681152,-0.46102524,-0.093860626,1.8420001,9.34999,2.3141139,0,1683900351.4654667
0.9871048,0.9053023,1.1609465,0.37410736,-0.4503441,-0.18011093,1.8343185,9.375969,2.2128828,0,1683900351.4706311
0.9871048,0.9053023,1.1609465,0.93126297,-0.27677536,-0.4837227,1.8343185,9.375969,2.2128828,0,1683900351.4757571
0.97685295,0.90067685,1.0120823,0.93126297,-0.27677536,-0.4837227,1.8343185,9.375969,2.2128828,0,1683900351.4962897
0.919755,0.867237,0.89737076,0.93126297,-0.27677536,-0.4837227,1.8343185,9.375969,2.2128828,0,1683900351.5117016
0.919755,0.867237,0.89737076,0.93126297,-0.27677536,-0.4837227,1.7937028,9.403437,2.1280015,0,1683900351.5219889
0.919755,0.867237,0.89737076,1.093216,-0.0050735474,-0.68826675,1.7937028,9.403437,2.1280015,0,1683900351.5271416
0.919755,0.867237,0.89737076,1.1219215,0.15047073,-0.7787895,1.7937028,9.403437,2.1280015,0,1683900351.5373845
0.8811892,0.84552,0.85636336,1.1219215,0.15047073,-0.7787895,1.7937028,9.403437,2.1280015,0,1683900351.5528886
0.8811892,0.84552,0.85636336,1.1219215,0.15047073,-0.7787895,1.7637215,9.41895,2.0840013,0,1683900351.563212
0.76110905,0.80011463,0.80536187,1.1219215,0.15047073,-0.7787895,1.7637215,9.41895,2.0840013,0,1683900351.5734656
0.76110905,0.80011463,0.80536187,1.1219215,0.15047073,-0.7787895,1.6420791,9.468019,1.9571862,0,1683900351.583775
0.76110905,0.80011463,0.80536187,1.135807,0.6126976,-0.9822655,1.6420791,9.468019,1.9571862,0,1683900351.5889072
0.66201794,0.76814586,0.7812033,1.135807,0.6126976,-0.9822655,1.6420791,9.468019,1.9571862,0,1683900351.6455498
0.66201794,0.76814586,0.7812033,1.3339424,1.1091042,-1.0941505,1.6420791,9.468019,1.9571862,0,1683900351.650682
0.66201794,0.76814586,0.7812033,1.3339424,1.1091042,-1.0941505,1.431979,9.536732,1.7806116,0,1683900351.6609547
0.66201794,0.76814586,0.7812033,1.5203285,1.2753296,-1.1228561,1.431979,9.536732,1.7806116,0,1683900351.6763165
0.66201794,0.76814586,0.7812033,1.5203285,1.2753296,-1.1228561,1.3170781,9.572929,1.6717378,0,1683900351.6865866
0.64958227,0.784752,0.74921936,1.5203285,1.2753296,-1.1228561,1.3170781,9.572929,1.6717378,0,1683900351.6968725
0.64958227,0.784752,0.74921936,1.6258049,1.348896,-1.1463547,1.3170781,9.572929,1.6717378,0,1683900351.7122512
0.64958227,0.7906059,0.71383834,1.6258049,1.348896,-1.1463547,1.3170781,9.572929,1.6717378,0,1683900351.7224865
0.64958227,0.7906059,0.71383834,1.6258049,1.348896,-1.1463547,1.2574936,9.591635,1.6092348,0,1683900351.7276196
0.64958227,0.7906059,0.71383834,1.6258049,1.348896,-1.1463547,1.0680537,9.648485,1.3915423,0,1683900351.737846
0.64958227,0.7906059,0.71383834,1.9017792,1.5395546,-1.2784004,1.0680537,9.648485,1.3915423,0,1683900351.7429867
0.6598341,0.8159777,0.58253574,1.9017792,1.5395546,-1.2784004,1.0680537,9.648485,1.3915423,0,1683900351.7584007
0.6473833,0.81890464,0.5261506,1.9017792,1.5395546,-1.2784004,1.0680537,9.648485,1.3915423,0,1683900351.7841625
0.6473833,0.81890464,0.5261506,1.9688034,1.5928268,-1.3455582,1.0680537,9.648485,1.3915423,0,1683900351.7996473
0.6473833,0.81890464,0.5261506,2.0913696,1.6833496,-1.5841484,1.0680537,9.648485,1.3915423,0,1683900351.8099258
0.6473833,0.81890464,0.5261506,2.0913696,1.6833496,-1.5841484,0.77064604,9.720279,1.0453116,0,1683900351.8254309
0.57977563,0.8045126,0.4204776,2.0913696,1.6833496,-1.5841484,0.77064604,9.720279,1.0453116,0,1683900351.830539
0.52754575,0.7852373,0.38021332,2.0913696,1.6833496,-1.5841484,0.77064604,9.720279,1.0453116,0,1683900351.8407936
0.52754575,0.7852373,0.38021332,2.1712112,1.761055,-1.7141914,0.77064604,9.720279,1.0453116,0,1683900351.8612669
0.52754575,0.7852373,0.38021332,2.1712112,1.761055,-1.7141914,0.6024858,9.750617,0.85607404,0,1683900351.871456
0.5019313,0.7749855,0.32943934,2.1712112,1.761055,-1.7141914,0.6024858,9.750617,0.85607404,0,1683900351.8971887
0.5019313,0.7749855,0.32943934,2.1712112,1.761055,-1.7141914,0.515123,9.763828,0.7567575,0,1683900351.902316
0.5019313,0.7749855,0.32943934,2.2170067,1.8164635,-1.766262,0.515123,9.763828,0.7567575,0,1683900351.9074068
0.5019313,0.7749855,0.32943934,2.2969818,1.9165993,-1.9250107,0.515123,9.763828,0.7567575,0,1683900351.92282
0.39648587,0.75106955,0.1830168,2.2969818,1.9165993,-1.9250107,0.515123,9.763828,0.7567575,0,1683900351.9279895
0.39648587,0.75106955,0.1830168,2.2969818,1.9165993,-1.9250107,0.23882559,9.793837,0.4405816,0,1683900351.9331214
0.39648587,0.75106955,0.1830168,2.3055267,1.9347572,-1.9782829,0.23882559,9.793837,0.4405816,0,1683900351.968943
0.29935107,0.7169017,0.10150244,2.3055267,1.9347572,-1.9782829,0.23882559,9.793837,0.4405816,0,1683900351.9740775
0.29935107,0.7169017,0.10150244,2.3055267,1.9347572,-1.9782829,0.14278634,9.800008,0.33145937,0,1683900351.9844136
0.21101224,0.6812629,0.048544645,2.3055267,1.9347572,-1.9782829,0.14278634,9.800008,0.33145937,0,1683900351.9998257
0.21101224,0.6812629,0.048544645,2.3055267,1.9347572,-1.9782829,-0.15373527,9.805444,-0.0056600706,0,1683900352.0101204
0.21101224,0.6812629,0.048544645,2.3096657,1.9411659,-2.0752144,-0.15373527,9.805444,-0.0056600706,0,1683900352.0152261
0.21101224,0.6812629,0.048544645,2.3096657,1.9411659,-2.0752144,-0.3510939,9.797519,-0.23606998,0,1683900352.0357556
0.21101224,0.6812629,0.048544645,2.321415,1.9368935,-2.0923042,-0.3510939,9.797519,-0.23606998,0,1683900352.0460317
0.14828789,0.676137,0.026327243,2.321415,1.9368935,-2.0923042,-0.3510939,9.797519,-0.23606998,0,1683900352.0511808
0.14828789,0.676137,0.026327243,2.331028,1.9485092,-2.1019173,-0.3510939,9.797519,-0.23606998,0,1683900352.0717025
0.10947947,0.66442925,0.01754644,2.331028,1.9485092,-2.1019173,-0.3510939,9.797519,-0.23606998,0,1683900352.087133
0.10947947,0.66442925,0.01754644,2.331028,1.9485092,-2.1019173,-0.44952133,9.789953,-0.3537346,0,1683900352.0923145
0.10947947,0.66442925,0.01754644,2.383232,1.9943047,-2.0794868,-0.44952133,9.789953,-0.3537346,0,1683900352.1128325
0.10947947,0.66442925,0.01754644,2.383232,1.9943047,-2.0794868,-0.73830914,9.752659,-0.7148021,0,1683900352.1179614
-0.023779444,0.5973069,0.0024113085,2.383232,1.9943047,-2.0794868,-0.73830914,9.752659,-0.7148021,0,1683900352.1230996
-0.023779444,0.5973069,0.0024113085,2.383232,1.9943047,-2.0794868,-0.9167657,9.715583,-0.9681815,0,1683900352.1487885
-0.023779444,0.5973069,0.0024113085,2.4482536,2.0497131,-1.9782829,-0.9167657,9.715583,-0.9681815,0,1683900352.1539161
-0.065757446,0.5794875,-0.055429764,2.4482536,2.0497131,-1.9782829,-0.9167657,9.715583,-0.9681815,0,1683900352.1641831
-0.065757446,0.5794875,-0.055429764,2.4482536,2.0497131,-1.9782829,-1.0790299,9.669054,-1.2310563,0,1683900352.1795387
-0.065757446,0.5794875,-0.055429764,2.4919128,2.1019173,-1.8824196,-1.0790299,9.669054,-1.2310563,0,1683900352.1846724
-0.11286137,0.57022136,-0.16939822,2.4919128,2.1019173,-1.8824196,-1.0790299,9.669054,-1.2310563,0,1683900352.2000802
-0.11286137,0.57022136,-0.16939822,2.466278,2.0913696,-1.7929649,-1.0790299,9.669054,-1.2310563,0,1683900352.2154808
-0.17776956,0.53092766,-0.29290575,2.466278,2.0913696,-1.7929649,-1.0790299,9.669054,-1.2310563,0,1683900352.230978
-0.17776956,0.53092766,-0.29290575,2.466278,2.0913696,-1.7929649,-1.2275414,9.613503,-1.4980248,0,1683900352.2361217
-0.21560737,0.5045701,-0.337568,2.466278,2.0913696,-1.7929649,-1.2275414,9.613503,-1.4980248,0,1683900352.2412522
-0.21560737,0.5045701,-0.337568,2.4290276,2.0454407,-1.7386246,-1.2275414,9.613503,-1.4980248,0,1683900352.246381
-0.21560737,0.5045701,-0.337568,2.2511864,1.8995094,-1.4797401,-1.2275414,9.613503,-1.4980248,0,1683900352.277117
-0.21560737,0.5045701,-0.337568,2.2511864,1.8995094,-1.4797401,-1.4770383,9.483907,-2.01103,0,1683900352.2822032
-0.34519625,0.4442874,-0.37391964,2.2511864,1.8995094,-1.4797401,-1.4770383,9.483907,-2.01103,0,1683900352.2975714
-0.34519625,0.4442874,-0.37391964,2.1733475,1.8846893,-1.3625145,-1.4770383,9.483907,-2.01103,0,1683900352.3078375
-0.37546653,0.4293949,-0.36074087,2.1733475,1.8846893,-1.3625145,-1.4770383,9.483907,-2.01103,0,1683900352.312979
-0.37546653,0.4293949,-0.36074087,2.1733475,1.8846893,-1.3625145,-1.5256827,9.449911,-2.13116,0,1683900352.318106
-0.4167014,0.49845842,-0.2577522,2.1733475,1.8846893,-1.3625145,-1.5256827,9.449911,-2.13116,0,1683900352.3437037
-0.4167014,0.49845842,-0.2577522,2.1733475,1.8846893,-1.3625145,-1.6254373,9.349957,-2.471161,0,1683900352.3591044
-0.4167014,0.49845842,-0.2577522,2.0220757,2.0359612,-0.9833336,-1.6254373,9.349957,-2.471161,0,1683900352.3693845
-0.4110902,0.5214038,-0.30632716,2.0220757,2.0359612,-0.9833336,-1.6254373,9.349957,-2.471161,0,1683900352.3899102
-0.4110902,0.5214038,-0.30632716,2.0220757,2.0359612,-0.9833336,-1.6543669,9.28096,-2.7013397,0,1683900352.3950605
-0.4110902,0.5214038,-0.30632716,2.0913696,2.1765518,-0.7766533,-1.6543669,9.28096,-2.7013397,0,1683900352.4001994
-0.4110902,0.5214038,-0.30632716,2.168007,2.1999168,-0.69360733,-1.6543669,9.28096,-2.7013397,0,1683900352.4207168
-0.4110902,0.5214038,-0.30632716,2.168007,2.1999168,-0.69360733,-1.6595947,9.243985,-2.8222096,0,1683900352.425813
-0.31786808,0.59657896,-0.67411995,2.168007,2.1999168,-0.69360733,-1.6595947,9.243985,-2.8222096,0,1683900352.4462788
-0.31786808,0.59657896,-0.67411995,2.4450493,2.099781,-0.5401993,-1.6595947,9.243985,-2.8222096,0,1683900352.4565108
-0.31786808,0.59657896,-0.67411995,2.4450493,2.099781,-0.5401993,-1.6499255,9.118088,-3.2107036,0,1683900352.4616475
-0.31786808,0.59657896,-0.67411995,2.5291634,2.0028496,-0.5423355,-1.6499255,9.118088,-3.2107036,0,1683900352.482182
-0.31786808,0.59657896,-0.67411995,2.5291634,2.0028496,-0.5423355,-1.6437031,9.069729,-3.3479295,0,1683900352.4872723
-0.32055238,0.67199683,-1.2535013,2.5291634,2.0028496,-0.5423355,-1.6437031,9.069729,-3.3479295,0,1683900352.5129128
-0.32055238,0.67199683,-1.2535013,2.5291634,2.0028496,-0.5423355,-1.6410484,8.9044695,-3.7666662,0,1683900352.5334508
-0.32055238,0.67199683,-1.2535013,2.6005936,1.4659882,-0.64460754,-1.6410484,8.9044695,-3.7666662,0,1683900352.5385845
-0.32055238,0.67199683,-1.2535013,0.38265228,0.18558502,-0.16101837,-1.6410484,8.9044695,-3.7666662,0,1683900352.5539837
-0.32055238,0.67199683,-1.2535013,0.38265228,0.18558502,-0.16101837,-1.566778,8.232825,-5.092758,0,1683900352.5642335
-0.47113025,0.9177531,-1.6022614,0.38265228,0.18558502,-0.16101837,-1.566778,8.232825,-5.092758,0,1683900352.569358
-0.4889497,0.90189004,-1.6181245,0.38265228,0.18558502,-0.16101837,-1.566778,8.232825,-5.092758,0,1683900352.584747
-0.4889497,0.90189004,-1.6181245,0.39653778,-0.15420914,-0.19079208,-1.566778,8.232825,-5.092758,0,1683900352.5949986
-0.4889497,0.90189004,-1.6181245,0.39653778,-0.15420914,-0.19079208,-1.5812663,8.214991,-5.1170235,0,1683900352.6154783
-0.5165205,0.86039734,-1.5634682,0.39653778,-0.15420914,-0.19079208,-1.5812663,8.214991,-5.1170235,0,1683900352.6206212
-0.5165205,0.86039734,-1.5634682,0.29426575,-0.9488869,-0.20360947,-1.5812663,8.214991,-5.1170235,0,1683900352.625754
-0.5165205,0.86039734,-1.5634682,0.29426575,-0.9488869,-0.20360947,-1.6703644,8.164799,-5.1687846,0,1683900352.636044
-0.56094015,0.8235453,-1.4670614,0.10787964,-1.1769295,-0.15888214,-1.8254311,8.1331835,-5.1661897,0,1683900352.641216
-0.6082867,0.780354,-1.3906729,-0.13925552,-1.1790657,-0.043792725,-1.8254311,8.1331835,-5.1661897,0,1683900352.6463902
-0.64295495,0.74130297,-1.3508939,-0.41950226,-1.0917473,0.13097763,-1.8845894,8.141414,-5.13187,0,1683900352.6515214
-0.6453966,0.7320217,-1.3442969,-0.5632973,-1.0479546,0.22577286,-1.9065983,8.152247,-5.1064796,0,1683900352.656716
-0.6453966,0.7320217,-1.3442969,-0.9488869,-1.0511589,0.5016136,-1.9065983,8.152247,-5.1064796,0,1683900352.6618376
-0.6453966,0.7320217,-1.3442969,-3.5087585,-0.86156845,2.2454453,-1.9065983,8.152247,-5.1064796,0,1683900352.6669645
0.15561281,0.5348252,0.27161342,-3.5087585,-0.86156845,2.2454453,-1.9065983,8.152247,-5.1064796,0,1683900352.6720924
0.15561281,0.5348252,0.27161342,-3.5087585,-0.86156845,2.2454453,0.03414986,9.805343,0.15644431,0,1683900352.6977384
0.19196442,0.551674,0.33823532,-3.5087585,-0.86156845,2.2454453,0.03414986,9.805343,0.15644431,0,1683900352.7131224
0.19196442,0.551674,0.33823532,-3.5087585,-0.86156845,2.2454453,0.37102795,9.776107,0.6785702,0,1683900352.728441
0.19196442,0.551674,0.33823532,-3.4959412,-0.69654465,2.2242165,0.37102795,9.776107,0.6785702,0,1683900352.7335753
0.19734816,0.5584985,0.38094124,-3.4959412,-0.69654465,2.2242165,0.37102795,9.776107,0.6785702,0,1683900352.7540977
0.19734816,0.5584985,0.38094124,-3.4789848,-0.6357956,2.2039223,0.37102795,9.776107,0.6785702,0,1683900352.7591918
0.19734816,0.5584985,0.38094124,-3.4789848,-0.6357956,2.2039223,0.4821207,9.757788,0.8505945,0,1683900352.7643113
0.19734816,0.5584985,0.38094124,-3.4789848,-0.6357956,2.2039223,0.8089801,9.680113,1.3458661,0,1683900352.7745612
0.19734816,0.5584985,0.38094124,-3.340397,-0.57718277,2.142105,0.8089801,9.680113,1.3458661,0,1683900352.7796931
0.21174018,0.5821718,0.51078796,-3.340397,-0.57718277,2.142105,0.8089801,9.680113,1.3458661,0,1683900352.7899601
0.22076364,0.5855992,0.55666345,-3.340397,-0.57718277,2.142105,0.8089801,9.680113,1.3458661,0,1683900352.8205485
0.22076364,0.5855992,0.55666345,-3.258419,-0.59000015,2.1155357,0.8089801,9.680113,1.3458661,0,1683900352.8256729
0.22076364,0.5855992,0.55666345,-3.258419,-0.59000015,2.1155357,1.124536,9.575287,1.7943536,0,1683900352.8564124
0.22663267,0.589982,0.74385077,-3.258419,-0.59000015,2.1155357,1.124536,9.575287,1.7943536,0,1683900352.8615253
0.22663267,0.589982,0.74385077,-2.8951263,-0.6570244,2.0100594,1.124536,9.575287,1.7943536,0,1683900352.871799
0.32058272,0.61708266,0.89688545,-2.8951263,-0.6570244,2.0100594,1.124536,9.575287,1.7943536,0,1683900352.8923244
0.32058272,0.61708266,0.89688545,-2.8951263,-0.6570244,2.0100594,1.331189,9.496291,2.0539644,0,1683900352.9025843
0.32058272,0.61708266,0.89688545,-2.5319672,-0.64741135,1.9854927,1.331189,9.496291,2.0539644,0,1683900352.9128358
0.32058272,0.61708266,0.89688545,-2.0897675,-0.5025482,1.9429016,1.331189,9.496291,2.0539644,0,1683900352.9230938
0.32058272,0.61708266,0.89688545,-2.0897675,-0.5025482,1.9429016,1.5344411,9.415437,2.272757,0,1683900352.93336
0.5609856,0.87431926,0.65843886,-2.0897675,-0.5025482,1.9429016,1.5344411,9.415437,2.272757,0,1683900352.9538834
0.5609856,0.87431926,0.65843886,-2.0897675,-0.5025482,1.9429016,1.5262592,9.42217,2.2502534,0,1683900352.9590137
0.5609856,0.87431926,0.65843886,1.9655991,1.1336708,-1.6097832,1.5262592,9.42217,2.2502534,0,1683900352.9742918
0.5609856,0.87431926,0.65843886,1.9655991,1.1336708,-1.6097832,1.2035398,9.539248,1.929927,0,1683900352.9845355
0.557816,0.86259633,0.5710707,1.9655991,1.1336708,-1.6097832,1.2035398,9.539248,1.929927,0,1683900352.9896648
0.557816,0.86259633,0.5710707,2.0103264,1.2199211,-1.6853523,1.2035398,9.539248,1.929927,0,1683900353.035642
0.54732156,0.8491749,0.53567445,2.0103264,1.2199211,-1.6853523,1.2035398,9.539248,1.929927,0,1683900353.0407743
0.54732156,0.8491749,0.53567445,2.1521187,1.3424873,-1.9228745,1.2035398,9.539248,1.929927,0,1683900353.045872
0.54732156,0.8491749,0.53567445,2.1521187,1.3424873,-1.9228745,0.91765434,9.6216345,1.6590539,0,1683900353.066316
0.449201,0.80426997,0.41413844,2.1521187,1.3424873,-1.9228745,0.91765434,9.6216345,1.6590539,0,1683900353.0765586
0.449201,0.80426997,0.41413844,2.2501183,1.3061714,-2.0454407,0.91765434,9.6216345,1.6590539,0,1683900353.0918667
0.37232727,0.7583793,0.36776248,2.2501183,1.3061714,-2.0454407,0.91765434,9.6216345,1.6590539,0,1683900353.096993
0.37232727,0.7583793,0.36776248,2.2501183,1.3061714,-2.0454407,0.710752,9.671022,1.4616915,0,1683900353.1122987
0.33620313,0.7371476,0.35458368,2.2501183,1.3061714,-2.0454407,0.710752,9.671022,1.4616915,0,1683900353.11743
0.33620313,0.7371476,0.35458368,2.3096657,1.2774658,-2.0923042,0.710752,9.671022,1.4616915,0,1683900353.132809
0.33620313,0.7371476,0.35458368,2.3096657,1.2774658,-2.0923042,0.6038682,9.693526,1.3569424,0,1683900353.1379397
0.2903276,0.7222703,0.33383733,2.3096657,1.2774658,-2.0923042,0.6038682,9.693526,1.3569424,0,1683900353.1584415
0.33620313,0.7371476,0.35458368,2.3096657,1.2774658,-2.0923042,0.6038682,9.693526,1.3569424,0,1683900353.1840687
0.112891704,0.65783226,0.28039423,2.3096657,1.2774658,-2.0923042,0.6038682,9.693526,1.3569424,0,1683900353.2199247
-0.5919383,0.49651724,-1.0951132,2.3096657,1.2774658,-2.0923042,0.6038682,9.693526,1.3569424,0,1683900353.245518
-0.633431,0.5365389,-1.1563665,2.3096657,1.2774658,-2.0923042,0.6038682,9.693526,1.3569424,0,1683900353.2660234
-0.633431,0.5365389,-1.1563665,2.3096657,1.2774658,-2.0923042,-3.1403494,7.7618585,-5.105111,0,1683900353.2711549
-0.633431,0.5365389,-1.1563665,1.7642593,1.2870789,-1.4360809,-3.1403494,7.7618585,-5.105111,0,1683900353.2762945
-0.633431,0.5365389,-1.1563665,2.1669388,0.9888077,-1.5958977,-3.1403494,7.7618585,-5.105111,0,1683900353.281419
-0.633431,0.5365389,-1.1563665,2.1669388,0.9888077,-1.5958977,-3.0799813,7.910991,-4.909208,0,1683900353.286555
-0.633431,0.5365389,-1.1563665,2.1669388,0.9888077,-1.5958977,-3.1765363,7.6282206,-5.281123,0,1683900353.2967823
-0.633431,0.5365389,-1.1563665,1.4585114,1.4383507,-1.3061714,-3.1765363,7.6282206,-5.281123,0,1683900353.3121462
-0.7154307,0.5155499,-1.2864559,1.4585114,1.4383507,-1.3061714,-3.1765363,7.6282206,-5.281123,0,1683900353.3223917
-0.7154307,0.5155499,-1.2864559,1.1805344,1.2220573,-1.0674477,-3.1765363,7.6282206,-5.281123,0,1683900353.342904
-0.82061833,0.49748784,-1.4123899,1.1805344,1.2220573,-1.0674477,-3.1765363,7.6282206,-5.281123,0,1683900353.3531327
-0.82061833,0.49748784,-1.4123899,1.1805344,1.2220573,-1.0674477,-3.211568,7.4504204,-5.5088534,0,1683900353.358253
-0.844049,0.50945336,-1.4526541,1.1805344,1.2220573,-1.0674477,-3.211568,7.4504204,-5.5088534,0,1683900353.3633533
-0.844049,0.50945336,-1.4526541,1.0974884,0.3847885,-0.78092575,-3.211568,7.4504204,-5.5088534,0,1683900353.4043205
-0.844049,0.50945336,-1.4526541,1.0974884,0.3847885,-0.78092575,-3.278095,7.234622,-5.751933,0,1683900353.4094627
-0.91946685,0.49528885,-1.5951943,1.0974884,0.3847885,-0.78092575,-3.278095,7.234622,-5.751933,0,1683900353.4197273
-0.91946685,0.49528885,-1.5951943,1.0974884,0.3847885,-0.78092575,-3.3327217,7.136118,-5.842873,0,1683900353.424868
-0.91946685,0.49528885,-1.5951943,1.0559654,0.1483345,-0.7042885,-3.3327217,7.136118,-5.842873,0,1683900353.4351225
-0.9516783,0.4862654,-1.6320465,1.0559654,0.1483345,-0.7042885,-3.3327217,7.136118,-5.842873,0,1683900353.4453619
-0.95876056,0.47991106,-1.6376576,1.0559654,0.1483345,-0.7042885,-3.3327217,7.136118,-5.842873,0,1683900353.4658442
-0.95876056,0.47991106,-1.6376576,0.89401245,-0.21923065,-0.54553986,-3.3327217,7.136118,-5.842873,0,1683900353.4709778
-0.95876056,0.47991106,-1.6376576,0.89401245,-0.21923065,-0.54553986,-3.3634076,7.0919085,-5.879005,0,1683900353.4812396
-0.80866796,0.43304977,-1.1436882,0.89401245,-0.21923065,-0.54553986,-3.3634076,7.0919085,-5.879005,0,1683900353.5016778
-0.80866796,0.43304977,-1.1436882,-1.4730644,-0.75502396,0.99695206,-3.3634076,7.0919085,-5.879005,0,1683900353.5119512
-0.80866796,0.43304977,-1.1436882,-1.4730644,-0.75502396,0.99695206,-3.5182538,7.2688656,-5.563799,0,1683900353.5272932
-0.6990823,0.46844596,-1.0443544,-1.4730644,-0.75502396,0.99695206,-3.5182538,7.2688656,-5.563799,0,1683900353.532389
-0.6990823,0.46844596,-1.0443544,-1.5422249,-0.89574814,1.1653137,-3.5182538,7.2688656,-5.563799,0,1683900353.5528195
-0.6990823,0.46844596,-1.0443544,-1.5422249,-0.89574814,1.1653137,-3.4910247,7.3811116,-5.431603,0,1683900353.5630677
-0.6990823,0.46844596,-1.0443544,-1.5742683,-1.060772,1.3027,-3.4910247,7.3811116,-5.431603,0,1683900353.5784166
-0.6990823,0.46844596,-1.0443544,-1.5742683,-1.060772,1.3027,-3.4575412,7.499006,-5.289679,0,1683900353.5886614
-0.652949,0.48113945,-1.0280061,-1.5742683,-1.060772,1.3027,-3.4575412,7.499006,-5.289679,0,1683900353.5937946
-0.54263544,0.526287,-1.0201958,-1.5742683,-1.060772,1.3027,-3.4575412,7.499006,-5.289679,0,1683900353.604043
-0.54263544,0.526287,-1.0201958,-1.5742683,-1.060772,1.3027,-3.4213426,7.6195364,-5.138819,0,1683900353.609145
-0.54263544,0.526287,-1.0201958,-1.5933609,-1.3878822,1.431675,-3.4213426,7.6195364,-5.138819,0,1683900353.62446
-0.54263544,0.526287,-1.0201958,-1.5933609,-1.3878822,1.431675,-3.3866754,7.740906,-4.977871,0,1683900353.639844
-0.51530725,0.53141296,-1.0204384,-1.5933609,-1.3878822,1.431675,-3.3866754,7.740906,-4.977871,0,1683900353.660318
-0.51530725,0.53141296,-1.0204384,-1.6093826,-1.50177,1.4635849,-3.3866754,7.740906,-4.977871,0,1683900353.6654427
-0.51530725,0.53141296,-1.0204384,-1.6093826,-1.50177,1.4635849,-3.334115,7.9276466,-4.712376,0,1683900353.6757035
-0.44917068,0.5255591,-0.9835864,-1.6093826,-1.50177,1.4635849,-3.334115,7.9276466,-4.712376,0,1683900353.6808317
-0.44917068,0.5255591,-0.9835864,-1.6776085,-1.7020416,1.5264702,-3.334115,7.9276466,-4.712376,0,1683900353.6962109
-0.41036224,0.52384543,-0.92964286,-1.6776085,-1.7020416,1.5264702,-3.334115,7.9276466,-4.712376,0,1683900353.7064793
-0.41036224,0.52384543,-0.92964286,-1.6776085,-1.7020416,1.5264702,-3.291918,8.05871,-4.515622,0,1683900353.71161
-0.41036224,0.52384543,-0.92964286,-1.890564,-1.8522453,1.6319466,-3.291918,8.05871,-4.515622,0,1683900353.7218335
-0.41036224,0.52384543,-0.92964286,-1.9885635,-1.8533134,1.6691971,-3.291918,8.05871,-4.515622,0,1683900353.7577722
-0.41036224,0.52384543,-0.92964286,-1.9885635,-1.8533134,1.6691971,-3.2667432,8.126599,-4.411029,0,1683900353.7680337
0.8880288,0.61684,0.592545,-1.9885635,-1.8533134,1.6691971,-3.2667432,8.126599,-4.411029,0,1683900353.7731752
0.8880288,0.61684,0.592545,-4.368458,0.5040169,3.975525,-3.2667432,8.126599,-4.411029,0,1683900353.783422
0.8880288,0.61684,0.592545,-4.368458,0.5040169,3.975525,1.761819,9.268118,2.6773825,0,1683900353.8142433
1.1393963,0.7459436,0.81951123,-4.368458,0.5040169,3.975525,1.761819,9.268118,2.6773825,0,1683900353.8193355
1.1393963,0.7459436,0.81951123,-4.368458,0.5040169,3.975525,2.2546988,8.950385,3.3132048,0,1683900353.844982
1.1393963,0.7459436,0.81951123,-4.368458,0.5040169,3.975525,2.6250875,8.619578,3.8706794,0,1683900353.8961978
1.442281,0.9182384,1.4694424,-4.368458,0.5040169,3.975525,2.6250875,8.619578,3.8706794,0,1683900353.9013321
1.442281,0.9182384,1.4694424,-3.7047577,-0.07757187,2.2178078,2.6250875,8.619578,3.8706794,0,1683900353.9064693
1.442281,0.9182384,1.4694424,-3.7047577,-0.07757187,2.2178078,2.878003,8.362374,4.237709,0,1683900353.9115992
1.442281,0.9182384,1.4694424,-2.3028564,-0.7496834,1.074791,2.878003,8.362374,4.237709,0,1683900353.9167275
1.542828,0.96045905,1.7325327,-2.3028564,-0.7496834,1.074791,2.878003,8.362374,4.237709,0,1683900353.9423463
1.542828,0.96045905,1.7325327,-1.7574501,-0.96170425,0.7072258,2.878003,8.362374,4.237709,0,1683900353.9577205
1.5459976,0.9733952,1.7786661,-1.7574501,-0.96170425,0.7072258,2.878003,8.362374,4.237709,0,1683900353.9628272
1.5459976,0.9733952,1.7786661,-1.7574501,-0.96170425,0.7072258,2.9392436,8.305223,4.3074913,0,1683900353.9781723
1.5459976,0.9733952,1.7786661,-1.7574501,-0.96170425,0.7072258,3.054925,8.231216,4.368626,0,1683900353.993521
1.5459976,0.9733952,1.7786661,-0.1862526,-1.3196564,-0.2909279,3.054925,8.231216,4.368626,0,1683900354.003774
1.5459976,0.9733952,1.7786661,0.53819656,-1.3271332,-0.7851982,3.054925,8.231216,4.368626,0,1683900354.024277
1.5459976,0.9733952,1.7786661,0.53819656,-1.3271332,-0.7851982,3.0756109,8.251814,4.314925,0,1683900354.0345545
1.2697283,0.83623874,1.4972558,0.53819656,-1.3271332,-0.7851982,3.0756109,8.251814,4.314925,0,1683900354.0397193
0.14096297,0.4459859,0.10320097,0.53819656,-1.3271332,-0.7851982,3.0756109,8.251814,4.314925,0,1683900354.0551634
0.14096297,0.4459859,0.10320097,3.619976,1.5053749,-2.4214172,3.0756109,8.251814,4.314925,0,1683900354.0706203
0.14096297,0.4459859,0.10320097,3.619976,1.5053749,-2.4214172,-0.15741022,9.7673435,0.86290646,0,1683900354.0808694
0.14096297,0.4459859,0.10320097,3.7329292,1.2817383,-2.507801,-0.15741022,9.7673435,0.86290646,0,1683900354.0911934
0.08116555,0.43623453,-0.0024719704,3.7329292,1.2817383,-2.507801,-0.15741022,9.7673435,0.86290646,0,1683900354.0963006
0.08116555,0.43623453,-0.0024719704,3.7329292,1.2817383,-2.507801,-0.52865577,9.787318,0.31514004,0,1683900354.106604
0.06798677,0.4303655,-0.025659962,3.7329292,1.2817383,-2.507801,-0.52865577,9.787318,0.31514004,0,1683900354.153031
0.06798677,0.4303655,-0.025659962,3.8574982,1.023922,-2.590847,-0.52865577,9.787318,0.31514004,0,1683900354.163333
0.06798677,0.4303655,-0.025659962,3.8574982,1.023922,-2.590847,-1.0236963,9.742786,-0.44782814,0,1683900354.1787746
0.007946703,0.4115755,-0.07276389,3.8574982,1.023922,-2.590847,-1.0236963,9.742786,-0.44782814,0,1683900354.183901
0.007946703,0.4115755,-0.07276389,3.9034271,0.98560333,-2.613144,-1.0236963,9.742786,-0.44782814,0,1683900354.1941457
0.007946703,0.4115755,-0.07276389,3.9034271,0.98560333,-2.613144,-1.2695048,9.68786,-0.83912224,0,1683900354.209569
-0.029148018,0.40450838,-0.1510935,3.9034271,0.98560333,-2.613144,-1.2695048,9.68786,-0.83912224,0,1683900354.214747
-0.04989437,0.39913982,-0.20015377,3.9034271,0.98560333,-2.613144,-1.2695048,9.68786,-0.83912224,0,1683900354.2353227
-0.04989437,0.39913982,-0.20015377,3.9203835,0.95783234,-2.623825,-1.2695048,9.68786,-0.83912224,0,1683900354.240451
-0.04989437,0.39913982,-0.20015377,3.9203835,0.95783234,-2.623825,-1.3918848,9.651805,-1.0371686,0,1683900354.245568
-0.04989437,0.39913982,-0.20015377,3.9554977,0.8418083,-2.6473236,-1.3918848,9.651805,-1.0371686,0,1683900354.2557492
-0.10041053,0.40743533,-0.2892357,3.9554977,0.8418083,-2.6473236,-1.3918848,9.651805,-1.0371686,0,1683900354.281174
-0.10041053,0.40743533,-0.2892357,3.9554977,0.8418083,-2.6473236,-1.7533704,9.5099325,-1.6301062,0,1683900354.2862594
-0.9326456,0.40644956,-1.0050607,3.9554977,0.8418083,-2.6473236,-1.7533704,9.5099325,-1.6301062,0,1683900354.327035
-0.9326456,0.40644956,-1.0050607,-1.2088394,-0.9798622,1.3709259,-1.7533704,9.5099325,-1.6301062,0,1683900354.3321574
-0.9326456,0.40644956,-1.0050607,-1.2088394,-0.9798622,1.3709259,-4.5559063,7.2182393,-4.828159,0,1683900354.3527753
-0.85016066,0.41573083,-0.95234555,-1.2088394,-0.9798622,1.3709259,-4.5559063,7.2182393,-4.828159,0,1683900354.3579407
-0.85016066,0.41573083,-0.95234555,-1.2674522,-1.2344742,1.5647888,-4.5559063,7.2182393,-4.828159,0,1683900354.373381
-0.85016066,0.41573083,-0.95234555,-1.2674522,-1.2344742,1.5647888,-4.485796,7.390946,-4.628385,0,1683900354.383649
-0.8181767,0.4215847,-0.9491608,-1.2674522,-1.2344742,1.5647888,-4.485796,7.390946,-4.628385,0,1683900354.4246995
-0.715916,0.43574923,-0.9267159,-1.2674522,-1.2344742,1.5647888,-4.485796,7.390946,-4.628385,0,1683900354.4349766
-0.715916,0.43574923,-0.9267159,-1.2674522,-1.2344742,1.5647888,-4.3645034,7.6463923,-4.319048,0,1683900354.460665
-0.715916,0.43574923,-0.9267159,-1.2674522,-1.2344742,1.5647888,-4.327514,7.7161207,-4.2313714,0,1683900354.481219
-0.715916,0.43574923,-0.9267159,-1.4974976,-1.4538383,1.8044472,-4.327514,7.7161207,-4.2313714,0,1683900354.4863493
-0.633431,0.4420884,-0.8676616,-1.8107224,-1.4741325,1.937561,-4.327514,7.7161207,-4.2313714,0,1683900354.491487
-0.633431,0.4420884,-0.8676616,-1.8107224,-1.4741325,1.937561,-4.2444015,7.8618803,-4.0430536,0,1683900354.4966629
-0.61171407,0.41500288,-0.75856125,-2.1708107,-1.4347458,2.0856285,-4.0945463,8.095836,-3.7232394,0,1683900354.5018432
-0.61171407,0.41500288,-0.75856125,-2.1708107,-1.4347458,2.0856285,-4.036308,8.177273,-3.6070514,0,1683900354.5121024
-0.61171407,0.41500288,-0.75856125,-2.2826958,-1.4155197,2.15065,-4.036308,8.177273,-3.6070514,0,1683900354.5326295
1.1574584,0.6585602,1.5729163,-2.2826958,-1.4155197,2.15065,-4.036308,8.177273,-3.6070514,0,1683900354.5429041
1.1574584,0.6585602,1.5729163,-2.2826958,-1.4155197,2.15065,2.4138143,8.210384,4.7888904,0,1683900354.55318
1.1574584,0.6585602,1.5729163,-3.8293266,-0.018959045,2.8813744,2.4138143,8.210384,4.7888904,0,1683900354.5691733
1.4771767,0.8142792,1.8626069,-2.8536034,-0.61870575,2.2475815,2.4138143,8.210384,4.7888904,0,1683900354.5914085
1.4771767,0.8142792,1.8626069,-2.8536034,-0.61870575,2.2475815,2.6550272,7.9766726,5.04915,0,1683900354.5965612
1.4771767,0.8142792,1.8626069,-2.8536034,-0.61870575,2.2475815,2.763047,7.8829856,5.1375575,0,1683900354.6122417
1.6001837,0.886027,1.950233,-2.8536034,-0.61870575,2.2475815,2.763047,7.8829856,5.1375575,0,1683900354.62252
1.6001837,0.886027,1.950233,-2.2634697,-0.8508873,1.8651962,2.763047,7.8829856,5.1375575,0,1683900354.632807
1.7556449,0.9646144,1.8672476,-2.2634697,-0.8508873,1.8651962,2.763047,7.8829856,5.1375575,0,1683900354.648228
1.7556449,0.9646144,1.8672476,-2.2634697,-0.8508873,1.8651962,3.0096433,7.72568,5.2370133,0,1683900354.6534133
1.7556449,0.9646144,1.8672476,-0.4578209,-1.2184525,0.6017494,3.0096433,7.72568,5.2370133,0,1683900354.6688702
1.4166514,0.7688738,1.3854864,0.899353,-1.3260651,-0.7554245,3.1505477,7.833434,4.9881597,0,1683900354.6999252
1.4166514,0.7688738,1.3854864,1.1336708,-1.2781334,-1.158104,3.1505477,7.833434,4.9881597,0,1683900354.7102458
1.4166514,0.7688738,1.3854864,1.1336708,-1.2781334,-1.158104,3.1388295,7.8759966,4.9281645,0,1683900354.7154152
1.3282974,0.7459436,1.3915828,1.1336708,-1.2781334,-1.158104,3.1388295,7.8759966,4.9281645,0,1683900354.7206101
1.3282974,0.7459436,1.3915828,4.7875595,0.3486061,-3.2139587,3.1388295,7.8759966,4.9281645,0,1683900354.7464712
0.07018576,0.33690074,-0.17014132,4.7875595,0.3486061,-3.2139587,3.1388295,7.8759966,4.9281645,0,1683900354.7567408
0.07018576,0.33690074,-0.17014132,4.7875595,0.3486061,-3.2139587,-0.9396396,9.735333,-0.714663,0,1683900354.777975
0.035047382,0.33567235,-0.22895299,4.7875595,0.3486061,-3.2139587,-0.9396396,9.735333,-0.714663,0,1683900354.7988353
0.035047382,0.33567235,-0.22895299,4.8205376,0.32190323,-3.276844,-0.9396396,9.735333,-0.714663,0,1683900354.804014
0.035047382,0.33567235,-0.22895299,4.8205376,0.32190323,-3.276844,-1.0957966,9.698651,-0.9517228,0,1683900354.8092165
0.035047382,0.33567235,-0.22895299,4.8205376,0.32190323,-3.276844,-1.575516,9.535184,-1.6638535,0,1683900354.8298542
-0.12604016,0.32836258,-0.47496712,4.56913,0.5754471,-3.3994102,-1.575516,9.535184,-1.6638535,0,1683900354.8403208
-0.3537344,0.2878405,-0.7788223,4.56913,0.5754471,-3.3994102,-1.575516,9.535184,-1.6638535,0,1683900354.8713272
-0.3537344,0.2878405,-0.7788223,4.41679,0.65101624,-3.3504105,-1.575516,9.535184,-1.6638535,0,1683900354.8823128
-0.3537344,0.2878405,-0.7788223,4.41679,0.65101624,-3.3504105,-2.043013,9.30085,-2.3432226,0,1683900354.8874714
-0.3537344,0.2878405,-0.7788223,4.41679,0.65101624,-3.3504105,-2.4685068,9.018591,-2.9566681,0,1683900354.8977854
-0.3537344,0.2878405,-0.7788223,3.9289284,0.7703781,-3.1681633,-2.4685068,9.018591,-2.9566681,0,1683900354.9029577
-0.51262295,0.32420725,-0.9682086,3.9289284,0.7703781,-3.1681633,-2.4685068,9.018591,-2.9566681,0,1683900354.918361
-0.51262295,0.32420725,-0.9682086,3.9289284,0.7703781,-3.1681633,-2.975614,8.591929,-3.6735349,0,1683900354.9805295
-0.51262295,0.32420725,-0.9682086,3.517704,0.4560852,-2.928505,-2.975614,8.591929,-3.6735349,0,1683900354.9857037
-0.6932285,0.36545733,-1.2483906,3.517704,0.4560852,-2.928505,-2.975614,8.591929,-3.6735349,0,1683900354.9961505
-0.6646719,0.4342782,-0.77906495,3.517704,0.4560852,-2.928505,-2.975614,8.591929,-3.6735349,0,1683900355.0066562
-0.736177,0.42549738,-0.8029809,3.517704,0.4560852,-2.928505,-2.975614,8.591929,-3.6735349,0,1683900355.0170774
-0.736177,0.42549738,-0.8029809,-1.5849495,-1.9758797,1.9396973,-2.975614,8.591929,-3.6735349,0,1683900355.037896
-0.736177,0.42549738,-0.8029809,-1.6679955,-2.0409012,2.117672,-2.975614,8.591929,-3.6735349,0,1683900355.0430474
-0.736177,0.42549738,-0.8029809,-1.6679955,-2.0409012,2.117672,-3.950937,8.177804,-3.69919,0,1683900355.0533178
-0.736177,0.42549738,-0.8029809,-1.6679955,-2.0409012,2.117672,-3.8610208,8.309149,-3.4958475,0,1683900355.058435
-0.6156116,0.44233105,-0.7729533,-1.7360878,-2.0471764,2.2039223,-3.8610208,8.309149,-3.4958475,0,1683900355.068825
-0.6156116,0.44233105,-0.7729533,-1.7360878,-2.0471764,2.2039223,-3.8078895,8.37707,-3.390436,0,1683900355.0739932
-0.5079823,0.4416031,-0.7507511,-1.7360878,-2.0471764,2.2039223,-3.8078895,8.37707,-3.390436,0,1683900355.0896406
-0.5079823,0.4416031,-0.7507511,-2.03022,-1.9833565,2.4361038,-3.8078895,8.37707,-3.390436,0,1683900355.0949435
-0.5079823,0.4416031,-0.7507511,-2.03022,-1.9833565,2.4361038,-3.6133802,8.59088,-3.051336,0,1683900355.1052887
-0.4643058,0.4376904,-0.7485521,-2.03022,-1.9833565,2.4361038,-3.6133802,8.59088,-3.051336,0,1683900355.1207137
-0.4643058,0.4376904,-0.7485521,-2.8760338,-1.7031097,2.8090096,-3.2705271,8.892041,-2.5309372,0,1683900355.1259716
-0.25343004,0.42501208,-0.53353614,-2.8760338,-1.7031097,2.8090096,-3.0646632,9.043376,-2.2350826,0,1683900355.1311724
-0.33250275,0.43304977,-0.63579684,-2.8760338,-1.7031097,2.8090096,-3.0646632,9.043376,-2.2350826,0,1683900355.1363974
-0.33250275,0.43304977,-0.63579684,-3.0262375,-1.604042,2.8430557,-3.0646632,9.043376,-2.2350826,0,1683900355.1519043
-0.22049066,0.42598268,-0.47740877,-3.0262375,-1.604042,2.8430557,-3.0646632,9.043376,-2.2350826,0,1683900355.1570728
-0.22049066,0.42598268,-0.47740877,-3.0262375,-1.604042,2.8430557,-2.9533684,9.117618,-2.0777504,0,1683900355.1622336
1.080342,0.7757134,1.3049426,-1.7670631,-0.9340668,1.2686539,1.7460988,9.066565,3.3043797,0,1683900355.1674907
1.1908983,0.8159777,1.411116,-1.7670631,-0.9340668,1.2686539,1.7460988,9.066565,3.3043797,0,1683900355.1931267
1.2499526,0.83720934,1.4469823,-0.87438583,-1.0810661,0.8989525,1.969642,8.960204,3.464914,0,1683900355.1986074
1.2499526,0.83720934,1.4469823,-0.87438583,-1.0810661,0.8989525,2.0900037,8.915089,3.5104787,0,1683900355.203784
1.2499526,0.83720934,1.4469823,-0.36836624,-0.94581604,0.64113617,2.0900037,8.915089,3.5104787,0,1683900355.2192802
1.2499526,0.83720934,1.4469823,-0.36836624,-0.94581604,0.64113617,2.1374364,8.899995,3.520204,0,1683900355.2245219
1.2570349,0.846248,1.442099,-0.36836624,-0.94581604,0.64113617,2.1374364,8.899995,3.520204,0,1683900355.2296784
1.2570349,0.846248,1.442099,-0.16061783,-0.7913399,0.50268173,2.1374364,8.899995,3.520204,0,1683900355.2348564
1.2570349,0.846248,1.442099,-0.16061783,-0.7913399,0.50268173,2.218049,8.880766,3.5189,0,1683900355.2400389
1.1774769,0.8308702,1.369138,-0.16061783,-0.7913399,0.50268173,2.218049,8.880766,3.5189,0,1683900355.2452002
1.1774769,0.8308702,1.369138,0.2846527,-0.16275406,0.07343292,2.218049,8.880766,3.5189,0,1683900355.2555017
1.0595957,0.797673,1.332028,0.2846527,-0.16275406,0.07343292,2.218049,8.880766,3.5189,0,1683900355.260677
1.0595957,0.797673,1.332028,0.5179024,0.21001816,-0.18117905,2.218049,8.880766,3.5189,0,1683900355.2658253
1.0595957,0.797673,1.332028,0.5179024,0.21001816,-0.18117905,2.224517,8.881982,3.511738,0,1683900355.276094
0.93170536,0.76814586,1.2910358,0.5179024,0.21001816,-0.18117905,2.224517,8.881982,3.511738,0,1683900355.3121176
0.93170536,0.76814586,1.2910358,0.80242157,0.4988098,-0.37931442,2.224517,8.881982,3.511738,0,1683900355.3223958
0.93170536,0.76814586,1.2910358,0.80242157,0.4988098,-0.37931442,2.1932526,8.907636,3.4661312,0,1683900355.3275948
0.8040728,0.7432593,1.2424608,1.1208534,0.70856094,-0.5220413,2.1932526,8.907636,3.4661312,0,1683900355.3483887
0.19196442,0.7862079,-0.18527645,1.1208534,0.70856094,-0.5220413,2.1932526,8.907636,3.4661312,0,1683900355.368981
0.19196442,0.7862079,-0.18527645,3.1267738,0.82258224,-2.0880318,2.1932526,8.907636,3.4661312,0,1683900355.37919
0.19196442,0.7862079,-0.18527645,3.1267738,0.82258224,-2.0880318,0.15408434,9.794049,0.47248998,0,1683900355.3842933
0.19196442,0.7862079,-0.18527645,3.1267738,0.82258224,-2.0880318,-0.053173814,9.804971,0.1734901,0,1683900355.409909
0.19196442,0.7862079,-0.18527645,2.9797745,0.7682419,-2.1519852,-0.053173814,9.804971,0.1734901,0,1683900355.415046
0.16804849,0.76814586,-0.13645883,2.9797745,0.7682419,-2.1519852,-0.053173814,9.804971,0.1734901,0,1683900355.4253166
0.16804849,0.76814586,-0.13645883,2.9797745,0.7682419,-2.1519852,-0.15808949,9.80533,0.029821448,0,1683900355.430452
0.16804849,0.76814586,-0.13645883,2.8860474,0.8471489,-2.1678734,-0.15808949,9.80533,0.029821448,0,1683900355.4458761
0.14243403,0.760093,-0.12620698,2.8860474,0.8471489,-2.1678734,-0.15808949,9.80533,0.029821448,0,1683900355.4510605
0.14243403,0.760093,-0.12620698,2.516346,1.3008308,-2.1455765,-0.15808949,9.80533,0.029821448,0,1683900355.4614198
0.14243403,0.760093,-0.12620698,2.516346,1.3008308,-2.1455765,-0.4683271,9.788603,-0.36648482,0,1683900355.4717145
0.027722465,0.6873594,-0.08594268,2.516346,1.3008308,-2.1455765,-0.4683271,9.788603,-0.36648482,0,1683900355.4820454
0.027722465,0.6873594,-0.08594268,2.279892,1.636486,-2.0614624,-0.4683271,9.788603,-0.36648482,0,1683900355.5079243
0.027722465,0.6873594,-0.08594268,2.279892,1.636486,-2.0614624,-0.66371375,9.765511,-0.60388476,0,1683900355.5182183
-0.04134105,0.6485662,-0.056900814,2.279892,1.636486,-2.0614624,-0.66371375,9.765511,-0.60388476,0,1683900355.5284748
-0.04134105,0.6485662,-0.056900814,2.279892,1.636486,-2.0614624,-0.8424592,9.735329,-0.8270688,0,1683900355.5541575
-0.04134105,0.6485662,-0.056900814,2.1243477,1.9506454,-1.928215,-0.8424592,9.735329,-0.8270688,0,1683900355.5592568
-0.09919729,0.5904673,0.0031392507,2.1243477,1.9506454,-1.928215,-0.8424592,9.735329,-0.8270688,0,1683900355.5643973
-0.0969983,0.61439836,0.093206935,2.1243477,1.9506454,-1.928215,-0.8424592,9.735329,-0.8270688,0,1683900355.5746627
-0.0969983,0.61439836,0.093206935,2.1243477,1.9506454,-1.928215,-0.99961334,9.699139,-1.0477926,0,1683900355.5900743
-0.0969983,0.61439836,0.093206935,2.1009827,2.2724152,-1.7833519,-0.99961334,9.699139,-1.0477926,0,1683900355.6002285
-0.0969983,0.61439836,0.093206935,2.1722794,2.4343681,-1.7375565,-0.99961334,9.699139,-1.0477926,0,1683900355.6104574
-0.08723174,0.629033,0.0868526,2.1722794,2.4343681,-1.7375565,-0.99961334,9.699139,-1.0477926,0,1683900355.6207314
-0.08723174,0.629033,0.0868526,2.1722794,2.4343681,-1.7375565,-1.0701977,9.67845,-1.1630459,0,1683900355.6258707
-1.1093384,0.5675371,-1.6305754,2.1722794,2.4343681,-1.7375565,-1.0701977,9.67845,-1.1630459,0,1683900355.6464021
-1.1093384,0.5675371,-1.6305754,-0.4364586,-0.21816254,0.5304527,-1.0701977,9.67845,-1.1630459,0,1683900355.6514966
-1.1093384,0.5675371,-1.6305754,-0.4364586,-0.21816254,0.5304527,-3.1175544,7.5316224,-5.452146,0,1683900355.6566284
-1.0595502,0.5780316,-1.5771322,-0.4364586,-0.21816254,0.5304527,-3.1175544,7.5316224,-5.452146,0,1683900355.6719775
-1.0595502,0.5780316,-1.5771322,-0.4364586,-0.21816254,0.5304527,-3.1076617,7.550235,-5.432014,0,1683900355.677117
-1.0595502,0.5780316,-1.5771322,-0.5952072,-0.37050247,0.70295334,-3.1076617,7.550235,-5.432014,0,1683900355.692462
-0.8828574,0.6141557,-1.4751142,-0.5952072,-0.37050247,0.70295334,-3.1076617,7.550235,-5.432014,0,1683900355.7077882
-0.8828574,0.6141557,-1.4751142,-0.9798622,-0.78386307,1.1407471,-3.1076617,7.550235,-5.432014,0,1683900355.7282891
-0.8828574,0.6141557,-1.4751142,-0.9798622,-0.78386307,1.1407471,-3.061954,7.6424193,-5.328063,0,1683900355.7334256
-0.76937425,0.6307467,-1.3899298,-0.9798622,-0.78386307,1.1407471,-3.061954,7.6424193,-5.328063,0,1683900355.7642896
-0.76937425,0.6307467,-1.3899298,-0.9798622,-0.78386307,1.1407471,-3.021397,7.729113,-5.2251654,0,1683900355.7694535
-0.76937425,0.6307467,-1.3899298,-1.2099075,-1.0320663,1.3516998,-3.021397,7.729113,-5.2251654,0,1683900355.7746422
-0.715188,0.6366006,-1.3420979,-1.2099075,-1.0320663,1.3516998,-3.021397,7.729113,-5.2251654,0,1683900355.7851777
-0.05574824,0.52336013,-0.31657904,-3.9689827,-1.0671806,2.957077,-1.37135,9.552446,-1.7437218,0,1683900355.7910168
-0.05574824,0.52336013,-0.31657904,-3.9689827,-1.0671806,2.957077,-1.2390016,9.603718,-1.5504386,0,1683900355.7961452
0.020154899,0.50945336,-0.25873795,-3.9689827,-1.0671806,2.957077,-1.2390016,9.603718,-1.5504386,0,1683900355.8064535
0.020154899,0.50945336,-0.25873795,-3.9689827,-1.0671806,2.957077,-0.8114482,9.728387,-0.93296117,0,1683900355.822022
0.020154899,0.50945336,-0.25873795,-4.218254,-0.82431793,3.0433273,-0.8114482,9.728387,-0.93296117,0,1683900355.8271837
0.046512473,0.49431825,-0.22505546,-4.3567085,-0.6869316,3.0743027,-0.8114482,9.728387,-0.93296117,0,1683900355.8375335
0.20709956,0.43793306,-0.06495368,-4.902115,-0.16489029,3.1488037,-0.8114482,9.728387,-0.93296117,0,1683900355.8427942
0.34524176,0.42549738,0.14737797,-4.902115,-0.16489029,3.1488037,0.27088803,9.775607,0.73111105,0,1683900355.8480296
0.34524176,0.42549738,0.14737797,-5.1439095,-0.07116318,3.081646,0.27088803,9.775607,0.73111105,0,1683900355.8531272
0.43309528,0.42695326,0.29333037,-5.139637,-0.19906998,2.9624176,0.5734072,9.711506,1.2362244,0,1683900355.8634343
0.43309528,0.42695326,0.29333037,-5.079956,-0.3375244,2.8718948,0.5734072,9.711506,1.2362244,0,1683900355.8685658
0.43309528,0.42695326,0.29333037,-0.53352356,-0.8786583,0.11922836,0.5734072,9.711506,1.2362244,0,1683900355.878834
0.93293375,0.675409,1.3464353,-0.53352356,-0.8786583,0.11922836,0.5734072,9.711506,1.2362244,0,1683900355.883928
0.93293375,0.675409,1.3464353,-0.53352356,-0.8786583,0.11922836,2.2728775,8.78227,3.7250698,0,1683900355.8941553
0.93293375,0.675409,1.3464353,-0.3576851,-0.74768066,0.10000229,2.2728775,8.78227,3.7250698,0,1683900355.9248645
0.93293375,0.675409,1.3464353,-0.3576851,-0.74768066,0.10000229,2.2987459,8.768113,3.7425063,0,1683900355.9299946
0.93293375,0.675409,1.3464353,0.23031235,-0.049800873,-0.091724396,2.2987459,8.768113,3.7425063,0,1683900355.950535
0.9792946,0.7373903,1.2651635,0.23031235,-0.049800873,-0.091724396,2.2987459,8.768113,3.7425063,0,1683900355.9557207
0.9792946,0.7373903,1.2651635,0.23031235,-0.049800873,-0.091724396,2.3541346,8.744808,3.7625465,0,1683900355.9762368
0.9792946,0.7373903,1.2651635,0.35287857,0.12804031,-0.16622543,2.3541346,8.744808,3.7625465,0,1683900355.9813914
0.9792946,0.7373903,1.2651635,0.35287857,0.12804031,-0.16622543,2.3524797,8.747317,3.7577486,0,1683900355.9917204
0.9121874,0.7105474,1.1980412,0.35287857,0.12804031,-0.16622543,2.3524797,8.747317,3.7577486,0,1683900355.9968715
0.9121874,0.7105474,1.1980412,0.35287857,0.12804031,-0.16622543,2.3295915,8.762276,3.737099,0,1683900356.0174646
0.9121874,0.7105474,1.1980412,0.5829239,0.39546967,-0.33351898,2.3295915,8.762276,3.737099,0,1683900356.0226574
0.76599234,0.6922427,1.1253228,0.5829239,0.39546967,-0.33351898,2.3295915,8.762276,3.737099,0,1683900356.0380394
0.76599234,0.6922427,1.1253228,0.5829239,0.39546967,-0.33351898,2.284222,8.790673,3.6982138,0,1683900356.0584183
0.76599234,0.6922427,1.1253228,0.8353996,0.56583405,-0.48051834,2.284222,8.790673,3.6982138,0,1683900356.0635135
0.76599234,0.6922427,1.1253228,0.9674454,0.6191063,-0.5412674,2.284222,8.790673,3.6982138,0,1683900356.0889397
0.76599234,0.6922427,1.1253228,0.9674454,0.6191063,-0.5412674,2.2551413,8.809554,3.671035,0,1683900356.0940247
0.76599234,0.6922427,1.1253228,1.3563728,0.76610565,-0.6339264,2.2551413,8.809554,3.671035,0,1683900356.109423
0.6691002,0.66637045,1.0638117,1.3563728,0.76610565,-0.6339264,2.2551413,8.809554,3.671035,0,1683900356.1196394
0.6691002,0.66637045,1.0638117,1.3563728,0.76610565,-0.6339264,2.1129198,8.910898,3.5074022,0,1683900356.1298609
-0.12872444,0.5021285,-0.75464857,1.3563728,0.76610565,-0.6339264,2.1129198,8.910898,3.5074022,0,1683900356.1552963
-0.12872444,0.5021285,-0.75464857,4.044018,1.17733,-1.8888283,2.1129198,8.910898,3.5074022,0,1683900356.1603808
-0.12872444,0.5021285,-0.75464857,4.044018,1.17733,-1.8888283,-1.1296905,9.322074,-2.8272104,0,1683900356.1705568
-0.12872444,0.5021285,-0.75464857,4.044018,1.17733,-1.8888283,-1.3464004,9.099188,-3.4003491,0,1683900356.206144
-0.12872444,0.5021285,-0.75464857,3.7990189,0.8193779,-1.8430328,-1.3464004,9.099188,-3.4003491,0,1683900356.211232
-0.17728426,0.54337853,-0.7900448,3.7990189,0.8193779,-1.8430328,-1.3464004,9.099188,-3.4003491,0,1683900356.216318
-0.20438494,0.57778895,-0.78271985,3.7990189,0.8193779,-1.8430328,-1.3464004,9.099188,-3.4003491,0,1683900356.277278
-0.20438494,0.57778895,-0.78271985,3.7990189,0.8193779,-1.8430328,-1.6147813,8.772996,-4.073993,0,1683900356.2823582
-0.20438494,0.57778895,-0.78271985,3.3217049,0.8908081,-1.8270111,-1.6147813,8.772996,-4.073993,0,1683900356.2874382
-0.23780961,0.5838855,-0.85057014,3.3217049,0.8908081,-1.8270111,-1.6147813,8.772996,-4.073993,0,1683900356.2925262
-0.23780961,0.5838855,-0.85057014,3.1502724,1.0814667,-1.8834877,-1.6147813,8.772996,-4.073993,0,1683900356.2976067
-0.23780961,0.5838855,-0.85057014,3.1502724,1.0814667,-1.8834877,-1.7344531,8.6019,-4.3782854,0,1683900356.307781
-0.23780961,0.5838855,-0.85057014,3.1012726,1.1187172,-1.9101906,-1.7344531,8.6019,-4.3782854,0,1683900356.3281097
-0.2724627,0.5775463,-0.91622144,3.1012726,1.1187172,-1.9101906,-1.7344531,8.6019,-4.3782854,0,1683900356.3331957
-0.2724627,0.5775463,-0.91622144,3.1012726,1.1187172,-1.9101906,-1.792533,8.512651,-4.526807,0,1683900356.348563
-0.43794823,0.52238953,-1.1351348,3.1012726,1.1187172,-1.9101906,-1.792533,8.512651,-4.526807,0,1683900356.369006
-0.43794823,0.52238953,-1.1351348,3.0319786,0.9834671,-1.9356918,-1.792533,8.512651,-4.526807,0,1683900356.3791878
-0.43794823,0.52238953,-1.1351348,3.0319786,0.9834671,-1.9356918,-1.9674252,8.228513,-4.958951,0,1683900356.384282
-0.4752856,0.50602597,-1.2293427,3.0319786,0.9834671,-1.9356918,-1.9674252,8.228513,-4.958951,0,1683900356.3996482
-0.4752856,0.50602597,-1.2293427,3.0148888,0.86517334,-1.9069862,-1.9674252,8.228513,-4.958951,0,1683900356.4047728
-0.4752856,0.50602597,-1.2293427,3.0148888,0.86517334,-1.9069862,-2.0263522,8.128605,-5.0980444,0,1683900356.4201534
-0.4752856,0.50602597,-1.2293427,3.0148888,0.86517334,-1.9069862,-2.819891,7.0144825,-6.2462497,0,1683900356.435543
-0.9590032,0.4928472,-1.6183672,3.0148888,0.86517334,-1.9069862,-2.819891,7.0144825,-6.2462497,0,1683900356.4458053
-0.9590032,0.4928472,-1.6183672,-0.124435425,-0.018959045,-0.25794983,-2.819891,7.0144825,-6.2462497,0,1683900356.4509144
-0.9741383,0.4796684,-1.6151975,-0.124435425,-0.018959045,-0.25794983,-2.819891,7.0144825,-6.2462497,0,1683900356.4663234
-0.9741383,0.4796684,-1.6151975,-0.22136688,-0.47597885,-0.03845215,-2.819891,7.0144825,-6.2462497,0,1683900356.4817011
-0.9741383,0.4796684,-1.6151975,-0.22136688,-0.47597885,-0.03845215,-2.8387036,7.0091853,-6.2436748,0,1683900356.497111
-0.9741383,0.4796684,-1.6151975,-0.35341263,-0.8925438,0.21615982,-2.8387036,7.0091853,-6.2436748,0,1683900356.5022397
-0.9707261,0.47478512,-1.5920095,-0.35341263,-0.8925438,0.21615982,-2.8387036,7.0091853,-6.2436748,0,1683900356.5124583
-0.9707261,0.47478512,-1.5920095,-0.35341263,-0.8925438,0.21615982,-2.9115548,7.0138884,-6.2047243,0,1683900356.5278554
-0.9236222,0.46429065,-1.5231887,-0.35341263,-0.8925438,0.21615982,-2.9115548,7.0138884,-6.2047243,0,1683900356.5534275
-0.9236222,0.46429065,-1.5231887,-0.35341263,-0.8925438,0.21615982,-2.9846308,7.062248,-6.1144934,0,1683900356.55852
-0.9236222,0.46429065,-1.5231887,-0.35341263,-0.8925438,0.21615982,-3.002734,7.0911455,-6.072037,0,1683900356.5739138
-0.8999489,0.4630774,-1.5046414,-0.35341263,-0.8925438,0.21615982,-3.002734,7.0911455,-6.072037,0,1683900356.5790465
-0.8999489,0.4630774,-1.5046414,-0.84127426,-1.293087,0.7487488,-3.002734,7.0911455,-6.072037,0,1683900356.5841954
-0.8999489,0.4630774,-1.5046414,-0.84127426,-1.293087,0.7487488,-3.0258055,7.2195497,-5.9070287,0,1683900356.5944226
-0.79133385,0.46112105,-1.4721873,-0.84127426,-1.293087,0.7487488,-3.0258055,7.2195497,-5.9070287,0,1683900356.6046855
-0.79133385,0.46112105,-1.4721873,-1.3633156,-1.316452,1.1364746,-3.0258055,7.2195497,-5.9070287,0,1683900356.6251962
-0.79133385,0.46112105,-1.4721873,-1.9332886,-1.3697243,1.446495,-3.0258055,7.2195497,-5.9070287,0,1683900356.676301
-0.65149313,0.4830958,-1.3948131,-1.9332886,-1.3697243,1.446495,-3.0258055,7.2195497,-5.9070287,0,1683900356.681435
-0.65149313,0.4830958,-1.3948131,-1.9332886,-1.3697243,1.446495,-3.0043566,7.410593,-5.676912,0,1683900356.696827
-0.524088,0.5057833,-1.2478901,-1.9332886,-1.3697243,1.446495,-3.0043566,7.410593,-5.676912,0,1683900356.7173233
-0.524088,0.5057833,-1.2478901,-2.4307632,-1.4379501,1.6446304,-3.0043566,7.410593,-5.676912,0,1683900356.7224405
-0.524088,0.5057833,-1.2478901,-2.4307632,-1.4379501,1.6446304,-2.9490771,7.651861,-5.377952,0,1683900356.7326972
-0.524088,0.5057833,-1.2478901,-2.883377,-1.681881,1.86306,-2.9490771,7.651861,-5.377952,0,1683900356.7941833
-0.524088,0.5057833,-1.2478901,-2.883377,-1.681881,1.86306,-2.8391383,8.01469,-4.886144,0,1683900356.7992716
-0.44184574,0.4823527,-1.0421554,-2.883377,-1.681881,1.86306,-2.8391383,8.01469,-4.886144,0,1683900356.8094904
-0.44184574,0.4823527,-1.0421554,-2.962284,-1.7521095,1.923809,-2.8391383,8.01469,-4.886144,0,1683900356.824887
-0.42134205,0.4845517,-0.97259146,-2.962284,-1.7521095,1.923809,-2.8391383,8.01469,-4.886144,0,1683900356.8300192
-0.36667055,0.49114868,-0.82909584,-2.962284,-1.7521095,1.923809,-2.8391383,8.01469,-4.886144,0,1683900356.8504624
-0.36667055,0.49114868,-0.82909584,-3.0698967,-1.8618584,2.039833,-2.8391383,8.01469,-4.886144,0,1683900356.8709185
-0.36667055,0.49114868,-0.82909584,-3.0698967,-1.8618584,2.039833,-2.7279756,8.297777,-4.4581885,0,1683900356.8760362
-0.3068883,0.5043275,-0.71803916,-3.0698967,-1.8618584,2.039833,-2.7279756,8.297777,-4.4581885,0,1683900356.886305
-0.3068883,0.5043275,-0.71803916,-3.0698967,-1.8618584,2.039833,-2.5850863,8.572181,-4.000679,0,1683900356.8914223
-0.3068883,0.5043275,-0.71803916,-3.1306458,-1.9194031,2.1198082,-2.5850863,8.572181,-4.000679,0,1683900356.9016867
-0.3068883,0.5043275,-0.71803916,-3.1306458,-1.9194031,2.1198082,-2.5302975,8.660153,-3.8431396,0,1683900356.9170818
-0.3068883,0.5043275,-0.71803916,-3.1700325,-1.9587898,2.1720123,-2.5302975,8.660153,-3.8431396,0,1683900356.9375732
-0.23756696,0.5177489,-0.65361625,-3.1700325,-1.9587898,2.1720123,-2.5302975,8.660153,-3.8431396,0,1683900356.9427009
-0.23756696,0.5177489,-0.65361625,-3.258419,-1.9951057,2.1879005,-2.5302975,8.660153,-3.8431396,0,1683900356.9631786
-0.23756696,0.5177489,-0.65361625,-3.258419,-1.9951057,2.1879005,-2.3496525,8.908809,-3.3589654,0,1683900356.9734418
0.73743576,0.76180667,0.66332215,-3.258419,-1.9951057,2.1879005,-2.3496525,8.908809,-3.3589654,0,1683900356.9836967
0.73743576,0.76180667,0.66332215,-1.9481087,-1.460247,1.3080406,-2.3496525,8.908809,-3.3589654,0,1683900356.9888334
0.73743576,0.76180667,0.66332215,-1.9481087,-1.460247,1.3080406,0.95860356,9.510842,2.1898317,0,1683900357.0042126
0.99418706,0.86211103,0.902982,-1.9481087,-1.460247,1.3080406,0.95860356,9.510842,2.1898317,0,1683900357.0246701
0.99418706,0.86211103,0.902982,-1.9481087,-1.460247,1.3080406,1.4266455,9.33426,2.6470118,0,1683900357.040055
1.0451885,0.909215,1.0726076,-1.9481087,-1.460247,1.3080406,1.4266455,9.33426,2.6470118,0,1683900357.0502746
1.0451885,0.909215,1.0726076,-1.6370201,-1.5380859,1.0311317,1.4266455,9.33426,2.6470118,0,1683900357.070758
1.0451885,0.909215,1.0726076,-1.6370201,-1.5380859,1.0311317,1.2087134,9.419853,2.4445386,0,1683900357.075891
1.0451885,0.909215,1.0726076,-1.4889526,-1.5475655,0.91176987,1.2087134,9.419853,2.4445386,0,1683900357.0810187
1.0920498,0.908487,1.1365453,-1.4889526,-1.5475655,0.91176987,1.2087134,9.419853,2.4445386,0,1683900357.0912492
1.0920498,0.908487,1.1365453,-1.4889526,-1.5475655,0.91176987,1.4861802,9.309989,2.6992106,0,1683900357.0963888
1.0920498,0.908487,1.1365453,-1.1354065,-1.4112473,0.6368637,1.4861802,9.309989,2.6992106,0,1683900357.1066496
1.0495865,0.90091944,1.238806,-1.1354065,-1.4112473,0.6368637,1.4861802,9.309989,2.6992106,0,1683900357.1271565
1.0495865,0.90091944,1.238806,-0.579319,-0.87652206,0.21936417,1.4861802,9.309989,2.6992106,0,1683900357.1322675
1.0495865,0.90091944,1.238806,-0.579319,-0.87652206,0.21936417,1.6114163,9.255978,2.810801,0,1683900357.1579015
0.938545,0.8584562,1.2283114,-0.579319,-0.87652206,0.21936417,1.6114163,9.255978,2.810801,0,1683900357.1989152
0.938545,0.8584562,1.2283114,0.09719849,-0.0146865845,-0.2568817,1.6114163,9.255978,2.810801,0,1683900357.2245886
0.938545,0.8584562,1.2283114,0.09719849,-0.0146865845,-0.2568817,1.6511675,9.230743,2.870092,0,1683900357.2297308
0.87533534,0.8194051,1.153379,0.09719849,-0.0146865845,-0.2568817,1.6511675,9.230743,2.870092,0,1683900357.2502625
0.87533534,0.8194051,1.153379,0.45087814,0.35808563,-0.4272461,1.6511675,9.230743,2.870092,0,1683900357.2604783
-0.03451659,0.5665513,-0.49180079,0.45087814,0.35808563,-0.4272461,1.6511675,9.230743,2.870092,0,1683900357.2810004
-0.03451659,0.5665513,-0.49180079,0.45087814,0.35808563,-0.4272461,-2.0949657,9.372399,-1.9848508,0,1683900357.2861469
-0.03451659,0.5665513,-0.49180079,3.5048866,1.4308739,-3.0104828,-2.0949657,9.372399,-1.9848508,0,1683900357.291239
-0.2619682,0.503099,-0.646534,3.5048866,1.4308739,-3.0104828,-2.0949657,9.372399,-1.9848508,0,1683900357.3528
-0.2619682,0.503099,-0.646534,3.4218407,0.9556961,-3.2192993,-2.0949657,9.372399,-1.9848508,0,1683900357.357949
-0.2619682,0.503099,-0.646534,3.4218407,0.9556961,-3.2192993,-2.624094,9.055729,-2.6978314,0,1683900357.3682156
-0.2619682,0.503099,-0.646534,3.3473396,0.87265015,-3.285389,-2.624094,9.055729,-2.6978314,0,1683900357.3784466
-0.2619682,0.503099,-0.646534,3.3473396,0.87265015,-3.285389,-2.894391,8.864529,-3.0352974,0,1683900357.3835545
-0.38156304,0.4808968,-0.72512144,3.3473396,0.87265015,-3.285389,-2.894391,8.864529,-3.0352974,0,1683900357.3988717
-0.44868538,0.46600434,-0.76564354,3.3473396,0.87265015,-3.285389,-2.894391,8.864529,-3.0352974,0,1683900357.4193244
-0.44868538,0.46600434,-0.76564354,3.3078194,0.8183098,-3.3056831,-2.894391,8.864529,-3.0352974,0,1683900357.4346488
-0.44868538,0.46600434,-0.76564354,3.3078194,0.8183098,-3.3056831,-3.0291486,8.76147,-3.1986392,0,1683900357.4397755
-0.44868538,0.46600434,-0.76564354,3.2044792,0.6329918,-3.317299,-3.0291486,8.76147,-3.1986392,0,1683900357.4602957
-0.67882127,0.41084754,-0.92915756,3.2044792,0.6329918,-3.317299,-3.0291486,8.76147,-3.1986392,0,1683900357.4654286
-0.67882127,0.41084754,-0.92915756,3.2044792,0.6329918,-3.317299,-3.4325237,8.421387,-3.6699362,0,1683900357.470553
-0.67882127,0.41084754,-0.92915756,3.1139565,0.3985405,-3.235321,-3.4325237,8.421387,-3.6699362,0,1683900357.501252
-0.67882127,0.41084754,-0.92915756,3.1139565,0.3985405,-3.235321,-3.6948154,8.174351,-3.9621613,0,1683900357.5063841
-0.799144,0.39205754,-1.0709547,3.1139565,0.3985405,-3.235321,-3.6948154,8.174351,-3.9621613,0,1683900357.5115159
-0.85284495,0.3905865,-1.1449014,3.1139565,0.3985405,-3.235321,-3.6948154,8.174351,-3.9621613,0,1683900357.5370593
-0.85284495,0.3905865,-1.1449014,3.1139565,0.3985405,-3.235321,-4.974544,7.156106,-4.496049,0,1683900357.552369
-0.9612022,0.3703406,-0.9562431,3.1139565,0.3985405,-3.235321,-4.974544,7.156106,-4.496049,0,1683900357.557503
-0.9612022,0.3703406,-0.9562431,-1.0245895,-1.3303375,1.9833565,-4.974544,7.156106,-4.496049,0,1683900357.5626347
-0.8011004,0.4101196,-0.8593509,-1.0245895,-1.3303375,1.9833565,-4.974544,7.156106,-4.496049,0,1683900357.5677626
-0.8011004,0.4101196,-0.8593509,-1.0245895,-1.3303375,1.9833565,-4.8305116,7.385039,-4.2775855,0,1683900357.578025
-0.8011004,0.4101196,-0.8593509,-1.3047028,-1.3782692,2.3701477,-4.8305116,7.385039,-4.2775855,0,1683900357.6036716
-0.8011004,0.4101196,-0.8593509,-1.3047028,-1.3782692,2.3701477,-4.7709026,7.4688168,-4.1982913,0,1683900357.624191
-0.8011004,0.4101196,-0.8593509,-1.3047028,-1.3782692,2.3701477,-4.560342,7.7354097,-3.9417121,0,1683900357.6549191
-0.8011004,0.4101196,-0.8593509,-1.6530418,-1.3153839,2.6789665,-4.560342,7.7354097,-3.9417121,0,1683900357.6600392
-0.6090298,0.4559951,-0.8012672,-1.6530418,-1.3153839,2.6789665,-4.560342,7.7354097,-3.9417121,0,1683900357.6651723
-0.6090298,0.4559951,-0.8012672,-1.6530418,-1.3153839,2.6789665,-4.4008822,7.919487,-3.7529135,0,1683900357.6855805
-0.5311703,0.45892206,-0.76881313,-1.6530418,-1.3153839,2.6789665,-4.4008822,7.919487,-3.7529135,0,1683900357.6958003
-0.5311703,0.45892206,-0.76881313,-1.8267441,-1.3452911,2.752533,-4.4008822,7.919487,-3.7529135,0,1683900357.7009268
-0.5311703,0.45892206,-0.76881313,-1.9012451,-1.3825417,2.7770996,-4.4008822,7.919487,-3.7529135,0,1683900357.7162983
-0.5311703,0.45892206,-0.76881313,-1.9012451,-1.3825417,2.7770996,-4.3171997,8.012187,-3.6519892,0,1683900357.7265508
-0.50285643,0.45795146,-0.73928595,-1.9012451,-1.3825417,2.7770996,-4.3171997,8.012187,-3.6519892,0,1683900357.7316792
-0.50285643,0.45795146,-0.73928595,-1.9012451,-1.3825417,2.7770996,-4.0557456,8.285861,-3.3265347,0,1683900357.7521694
-0.45550984,0.43135124,-0.6355542,-1.9012451,-1.3825417,2.7770996,-4.0557456,8.285861,-3.3265347,0,1683900357.7573023
-0.45550984,0.43135124,-0.6355542,-2.09404,-1.510315,2.8323746,-4.0557456,8.285861,-3.3265347,0,1683900357.767565
-0.45550984,0.43135124,-0.6355542,-2.09404,-1.510315,2.8323746,2.8081772,8.918037,2.9585707,0,1683900357.8444548
-0.45550984,0.43135124,-0.6355542,-0.7422066,-0.58893204,0.5591583,2.8081772,8.918037,2.9585707,0,1683900357.8547206
1.0586251,0.76937425,1.1240944,-0.7422066,-0.58893204,0.5591583,2.8081772,8.918037,2.9585707,0,1683900357.8598714
1.0459316,0.7530107,1.1670581,-0.7422066,-0.58893204,0.5591583,2.8081772,8.918037,2.9585707,0,1683900357.86501
1.0459316,0.7530107,1.1670581,-0.7422066,-0.58893204,0.5591583,2.8967218,8.865057,3.0315263,0,1683900357.875182
1.0459316,0.7530107,1.1670581,-0.7422066,-0.58893204,0.5591583,2.9334228,8.842989,3.0605485,0,1683900357.8957064
1.0459316,0.7530107,1.1670581,-0.5941391,-0.458889,0.4930687,2.9334228,8.842989,3.0605485,0,1683900357.9008367
1.0447032,0.75595284,1.1848624,-0.5941391,-0.458889,0.4930687,2.9334228,8.842989,3.0605485,0,1683900357.9111044
1.0005262,0.73446333,1.2227002,-0.5941391,-0.458889,0.4930687,2.9334228,8.842989,3.0605485,0,1683900357.926495
1.0005262,0.73446333,1.2227002,-0.19680023,0.010814667,0.31309128,2.9334228,8.842989,3.0605485,0,1683900357.9316266
1.0005262,0.73446333,1.2227002,-0.19680023,0.010814667,0.31309128,3.011941,8.793764,3.1254303,0,1683900357.9367576
0.96246094,0.70860624,1.2234281,-0.19680023,0.010814667,0.31309128,3.011941,8.793764,3.1254303,0,1683900357.962374
0.96246094,0.70860624,1.2234281,-0.19680023,0.010814667,0.31309128,3.0377674,8.774493,3.1544626,0,1683900357.9726212
0.96246094,0.70860624,1.2234281,0.0481987,0.36876678,0.2150917,3.0377674,8.774493,3.1544626,0,1683900357.9828722
0.96246094,0.70860624,1.2234281,0.28038025,0.72244644,0.12990952,3.0377674,8.774493,3.1544626,0,1683900357.9930892
0.95537865,0.6966407,1.2107347,0.28038025,0.72244644,0.12990952,3.0377674,8.774493,3.1544626,0,1683900358.0135636
0.95537865,0.6966407,1.2107347,0.28038025,0.72244644,0.12990952,3.0444145,8.76524,3.1737216,0,1683900358.0238326
0.95537865,0.6966407,1.2107347,0.53071976,1.0089684,0.028705597,3.0444145,8.76524,3.1737216,0,1683900358.0494344
0.95537865,0.6966407,1.2107347,0.53071976,1.0089684,0.028705597,3.0332236,8.766781,3.1801748,0,1683900358.054563
0.95489335,0.7222703,1.1477677,0.53071976,1.0089684,0.028705597,3.0332236,8.766781,3.1801748,0,1683900358.0750992
0.95489335,0.7222703,1.1477677,0.6702423,1.098423,-0.03845215,3.0332236,8.766781,3.1801748,0,1683900358.085354
0.35036767,0.6549053,-0.30754042,0.6702423,1.098423,-0.03845215,3.0332236,8.766781,3.1801748,0,1683900358.1110177
0.35036767,0.6549053,-0.30754042,-2.3433113,8.073883,3.7741852,3.0332236,8.766781,3.1801748,0,1683900358.1212919
0.35036767,0.6549053,-0.30754042,-2.3433113,8.073883,3.7741852,2.7851133,8.871852,3.1150856,0,1683900358.1315055
0.4399349,0.6944417,-0.15720518,-2.3433113,8.073883,3.7741852,2.7851133,8.871852,3.1150856,0,1683900358.1520329
0.4399349,0.6944417,-0.15720518,-2.3433113,8.073883,3.7741852,2.8567314,8.667937,3.58836,0,1683900358.15718
0.4399349,0.6944417,-0.15720518,-2.9952621,8.276291,3.9413452,2.8567314,8.667937,3.58836,0,1683900358.1674361
0.4399349,0.6944417,-0.15720518,-3.2637596,8.238907,3.9850044,2.8567314,8.667937,3.58836,0,1683900358.1828282
0.5194929,0.7191007,-0.1964989,-3.2637596,8.238907,3.9850044,2.8567314,8.667937,3.58836,0,1683900358.1930966
0.5194929,0.7191007,-0.1964989,-3.2637596,8.238907,3.9850044,2.8790836,8.551343,3.8413277,0,1683900358.2033596
0.5194929,0.7191007,-0.1964989,-4.0392113,7.9268837,3.8582993,2.8790836,8.551343,3.8413277,0,1683900358.228951
0.5194929,0.7191007,-0.1964989,-4.0392113,7.9268837,3.8582993,2.8748183,8.14364,4.6461754,0,1683900358.2340817
0.66373163,0.77375704,0.012420514,-4.0392113,7.9268837,3.8582993,2.8748183,8.14364,4.6461754,0,1683900358.239177
0.66373163,0.77375704,0.012420514,-4.208641,7.7649307,3.7410736,2.8748183,8.14364,4.6461754,0,1683900358.2545602
0.6881329,0.7906059,0.117122866,-4.208641,7.7649307,3.7410736,2.8748183,8.14364,4.6461754,0,1683900358.2699122
0.6881329,0.7906059,0.117122866,-4.208641,7.7649307,3.7410736,2.8451805,7.989959,4.9229956,0,1683900358.2750454
0.6881329,0.7906059,0.117122866,-4.422798,7.115116,3.2564163,2.8451805,7.989959,4.9229956,0,1683900358.2852619
0.6881329,0.7906059,0.117122866,-4.422798,7.115116,3.2564163,2.6719508,7.4990826,5.726677,0,1683900358.3006208
0.67763835,0.8213463,0.3816692,-4.422798,7.115116,3.2564163,2.6719508,7.4990826,5.726677,0,1683900358.3056998
0.70790863,0.8181767,0.62939703,-4.422798,7.115116,3.2564163,2.6719508,7.4990826,5.726677,0,1683900358.331334
0.70790863,0.8181767,0.62939703,-4.422798,7.115116,3.2564163,2.4986277,7.1606774,6.217069,0,1683900358.3415723
0.70790863,0.8181767,0.62939703,-4.334278,6.6506195,2.9134178,2.4986277,7.1606774,6.217069,0,1683900358.3467002
0.70790863,0.8181767,0.62939703,-4.188347,6.585598,2.6758957,2.4986277,7.1606774,6.217069,0,1683900358.351832
0.70790863,0.8181767,0.62939703,-4.188347,6.585598,2.6758957,2.3907886,6.9958878,6.442987,0,1683900358.362077
0.7313393,0.85430086,0.6833254,-4.188347,6.585598,2.6758957,2.3907886,6.9958878,6.442987,0,1683900358.372297
-0.045739036,0.53506786,0.86027604,-4.188347,6.585598,2.6758957,2.3907886,6.9958878,6.442987,0,1683900358.3876538
-0.045739036,0.53506786,0.86027604,-0.31402588,2.1988487,-0.15033722,2.3907886,6.9958878,6.442987,0,1683900358.3978755
-0.045739036,0.53506786,0.86027604,-0.31402588,2.1988487,-0.15033722,-0.73137933,4.9924984,8.40895,0,1683900358.403029
-0.045739036,0.53506786,0.86027604,-0.41309357,1.9272804,-0.2280426,-0.73137933,4.9924984,8.40895,0,1683900358.4286382
-0.13310726,0.57656056,0.74336547,-0.41309357,1.9272804,-0.2280426,-0.73137933,4.9924984,8.40895,0,1683900358.4337697
-0.13310726,0.57656056,0.74336547,-0.41309357,1.9272804,-0.2280426,-1.0040036,4.9448757,8.4089575,0,1683900358.444048
-0.13310726,0.57656056,0.74336547,-0.41309357,1.9272804,-0.2280426,-1.1583589,4.908183,8.410608,0,1683900358.4594219
-0.28638458,0.5548436,0.80487657,-0.41309357,1.9272804,-0.2280426,-1.1583589,4.908183,8.410608,0,1683900358.469683
-0.28638458,0.5548436,0.80487657,-0.41736603,1.5299416,-0.28772354,-1.1583589,4.908183,8.410608,0,1683900358.4799538
-0.28638458,0.5548436,0.80487657,-0.36943436,1.2870789,-0.27490616,-1.1583589,4.908183,8.410608,0,1683900358.4953253
-0.3664279,0.5209185,0.87418276,-0.36943436,1.2870789,-0.27490616,-1.1583589,4.908183,8.410608,0,1683900358.510707
-0.3664279,0.5209185,0.87418276,-0.36943436,1.2870789,-0.27490616,-1.2218041,4.891033,8.411621,0,1683900358.5158408
-0.3664279,0.5209185,0.87418276,-0.36943436,1.2870789,-0.27490616,-1.3470349,4.8647056,8.407766,0,1683900358.5414507
-0.41548818,0.38814485,1.1079887,-0.36943436,1.2870789,-0.27490616,-1.3470349,4.8647056,8.407766,0,1683900358.546581
-0.41548818,0.38814485,1.1079887,0.17276764,0.52431107,0.11816025,-1.3470349,4.8647056,8.407766,0,1683900358.5619783
-0.35837504,0.38668895,1.1228812,0.17276764,0.52431107,0.11816025,-1.3470349,4.8647056,8.407766,0,1683900358.577367
-0.35837504,0.38668895,1.1228812,0.17276764,0.52431107,0.11816025,-1.3847153,4.884354,8.390234,0,1683900358.5825028
-0.35837504,0.38668895,1.1228812,0.3624916,0.45181274,0.2363205,-1.3847153,4.884354,8.390234,0,1683900358.5876343
-0.35837504,0.38668895,1.1228812,0.69374084,0.47851562,0.3791809,-1.3847153,4.884354,8.390234,0,1683900358.6132739
-0.2334268,0.4228131,1.1126293,0.69374084,0.47851562,0.3791809,-1.3847153,4.884354,8.390234,0,1683900358.618401
-0.1455581,0.47015968,1.027445,0.69374084,0.47851562,0.3791809,-1.3847153,4.884354,8.390234,0,1683900358.6235309
-0.1455581,0.47015968,1.027445,0.8822632,0.69374084,0.38866043,-1.3847153,4.884354,8.390234,0,1683900358.6286623
-0.1455581,0.47015968,1.027445,0.8822632,0.69374084,0.38866043,-1.4080172,4.936052,8.356031,0,1683900358.6389203
-0.1455581,0.47015968,1.027445,0.8822632,0.69374084,0.38866043,-1.4655778,5.048107,8.278833,0,1683900358.6491828
-0.3913296,0.5499603,0.34872982,0.8822632,0.69374084,0.38866043,-1.4655778,5.048107,8.278833,0,1683900358.6594415
-0.3913296,0.5499603,0.34872982,0.16115189,1.5363503,-0.11936188,-1.4655778,5.048107,8.278833,0,1683900358.6696656
-0.3913296,0.5499603,0.34872982,0.16115189,1.5363503,-0.11936188,-3.2359767,5.352976,7.5527806,0,1683900358.6748006
-0.3913296,0.5499603,0.34872982,0.14619827,0.2494049,-0.083179474,-3.2359767,5.352976,7.5527806,0,1683900358.6901999
-0.3913296,0.5499603,0.34872982,0.14619827,0.2494049,-0.083179474,-3.313621,5.379376,7.500173,0,1683900358.695287
