acc_x,acc_y,acc_z,gyr_x,gyr_y,gyr_z,grav_x,grav_y,grav_z,label,timestamp
0.040734082,0.35075217,0.39032766,-0.8597928,0.49281552,-4.481002,-1.8384533,7.3929205,6.1806903,0,1683969551.751688
-0.042075627,0.2733696,0.32562876,-0.948521,0.5853616,-4.477031,-1.8384533,7.3929205,6.1806903,0,1683969551.7934783
-0.12342183,0.2367821,0.1911087,-1.4440855,0.64721173,-4.3020186,-2.4847455,7.108925,6.2869177,0,1683969551.809082
-0.22824502,0.20306063,0.07097975,-1.4440855,0.64721173,-4.3020186,-2.4847455,7.108925,6.2869177,0,1683969551.8193743
-0.22824502,0.20306063,0.07097975,-1.4440855,0.64721173,-4.3020186,-2.969937,6.8443546,6.3694897,0,1683969551.8245494
-0.22824502,0.20306063,0.07097975,-1.8229746,0.46563202,-4.148386,-2.969937,6.8443546,6.3694897,0,1683969551.850374
-0.34892282,0.13915445,0.1445816,-1.8229746,0.46563202,-4.148386,-2.969937,6.8443546,6.3694897,0,1683969551.8555431
-0.34892282,0.13915445,0.1445816,-1.8229746,0.46563202,-4.148386,-3.2814996,6.631057,6.4418135,0,1683969551.865901
-0.34892282,0.13915445,0.1445816,-1.9417878,0.3932445,-3.9376373,-3.2814996,6.631057,6.4418135,0,1683969551.886583
-0.34892282,0.13915445,0.1445816,-1.9417878,0.3932445,-3.9376373,-3.5667048,6.3861246,6.5369825,0,1683969551.8968947
-0.44380638,0.037868064,0.40575537,-1.9417878,0.3932445,-3.9376373,-3.5667048,6.3861246,6.5369825,0,1683969551.9020338
-0.46594182,0.0014025208,0.4856381,-1.9417878,0.3932445,-3.9376373,-3.5667048,6.3861246,6.5369825,0,1683969551.9175467
-0.46594182,0.0014025208,0.4856381,-1.8897116,0.36025777,-3.6809213,-3.5667048,6.3861246,6.5369825,0,1683969551.9330716
-0.46594182,0.0014025208,0.4856381,-1.8897116,0.36025777,-3.6809213,-3.824202,6.127126,6.6385174,0,1683969551.9382498
-0.50332206,0.004817354,0.5163716,-1.8897116,0.36025777,-3.6809213,-3.824202,6.127126,6.6385174,0,1683969551.9485717
-0.50332206,0.004817354,0.5163716,-1.8897116,0.36025777,-3.6809213,-4.055269,5.8700376,6.7330194,0,1683969551.9692795
-0.50332206,0.004817354,0.5163716,-1.750129,0.28848112,-3.4639113,-4.055269,5.8700376,6.7330194,0,1683969551.974457
-0.50332206,0.004817354,0.5163716,-1.750129,0.28848112,-3.4639113,-4.354974,5.5003853,6.856827,0,1683969551.9796379
-0.5538128,0.0074394583,0.48655275,-1.750129,0.28848112,-3.4639113,-4.354974,5.5003853,6.856827,0,1683969551.984766
-0.5538128,0.0074394583,0.48655275,-1.5473217,0.06154467,-3.2213979,-4.354974,5.5003853,6.856827,0,1683969551.9950783
-0.56680137,0.01603752,0.46417344,-1.5473217,0.06154467,-3.2213979,-4.354974,5.5003853,6.856827,0,1683969552.0209088
-0.56680137,0.01603752,0.46417344,-1.5473217,0.06154467,-3.2213979,-4.4407487,5.3826513,6.8951387,0,1683969552.0363832
-0.56680137,0.01603752,0.46417344,-1.4014776,-0.18707748,-3.0363057,-4.4407487,5.3826513,6.8951387,0,1683969552.0467236
-0.5214329,0.06695513,0.45899022,-1.4014776,-0.18707748,-3.0363057,-4.4407487,5.3826513,6.8951387,0,1683969552.0570722
-0.5214329,0.06695513,0.45899022,-1.2956452,-0.44837508,-2.8892398,-4.4407487,5.3826513,6.8951387,0,1683969552.067416
-0.5214329,0.06695513,0.45899022,-1.2956452,-0.44837508,-2.8892398,-4.650258,5.047887,7.009284,0,1683969552.0777643
-0.5214329,0.06695513,0.45899022,-1.2956452,-0.44837508,-2.8892398,-4.7538624,4.834984,7.089418,0,1683969552.0984464
-0.5225305,0.12451946,0.4612464,-1.2956452,-0.44837508,-2.8892398,-4.7538624,4.834984,7.089418,0,1683969552.1138668
-0.5225305,0.12451946,0.4612464,-1.2750285,-0.7180721,-2.8269317,-4.7538624,4.834984,7.089418,0,1683969552.119047
-0.6097917,0.102688916,0.6143041,-1.2750285,-0.7180721,-2.8269317,-4.7538624,4.834984,7.089418,0,1683969552.1449265
-0.6097917,0.102688916,0.6143041,-1.3176364,-0.95172805,-2.840676,-4.7538624,4.834984,7.089418,0,1683969552.150074
-0.6097917,0.102688916,0.6143041,-1.3176364,-0.95172805,-2.840676,-4.8348083,4.6212864,7.1766605,0,1683969552.1552215
-0.7247374,-0.04524654,0.8377318,-1.3176364,-0.95172805,-2.840676,-4.8348083,4.6212864,7.1766605,0,1683969552.1655757
-0.7247374,-0.04524654,0.8377318,-1.2395983,-1.0708468,-2.716365,-4.8348083,4.6212864,7.1766605,0,1683969552.1759355
-0.7247374,-0.04524654,0.8377318,-1.2395983,-1.0708468,-2.716365,-4.9171324,4.2909875,7.324298,0,1683969552.1862986
-0.8684653,-0.15830192,0.9873137,-1.2395983,-1.0708468,-2.716365,-4.9171324,4.2909875,7.324298,0,1683969552.1966805
-0.8684653,-0.15830192,0.9873137,-1.2395983,-1.0708468,-2.716365,-4.9513316,4.081472,7.420379,0,1683969552.2017999
-0.8684653,-0.15830192,0.9873137,-1.0403035,-1.0519099,-2.3457224,-4.9513316,4.081472,7.420379,0,1683969552.2223585
-0.8684653,-0.15830192,0.9873137,-1.0403035,-1.0519099,-2.3457224,-4.9704294,3.8957624,7.5069284,0,1683969552.2428446
-0.8684653,-0.15830192,0.9873137,-0.8550586,-0.9837985,-1.9497292,-4.9704294,3.8957624,7.5069284,0,1683969552.2480025
-0.95651925,-0.20171909,1.074087,-0.8550586,-0.9837985,-1.9497292,-4.9704294,3.8957624,7.5069284,0,1683969552.2582529
-0.95651925,-0.20171909,1.074087,-0.6640105,-0.88361657,-1.5441146,-4.9704294,3.8957624,7.5069284,0,1683969552.2736604
-0.95651925,-0.20171909,1.074087,-0.6640105,-0.88361657,-1.5441146,-4.9759755,3.7395933,7.582296,0,1683969552.2788093
-0.98737466,-0.22233005,1.1431764,-0.6640105,-0.88361657,-1.5441146,-4.9759755,3.7395933,7.582296,0,1683969552.2993653
-0.9731055,-0.21922012,1.1868376,-0.6640105,-0.88361657,-1.5441146,-4.9759755,3.7395933,7.582296,0,1683969552.3045216
-0.9731055,-0.21922012,1.1868376,-0.6640105,-0.88361657,-1.5441146,-4.971968,3.6139717,7.645577,0,1683969552.3250785
-0.9731055,-0.21922012,1.1868376,-0.45570546,-0.66645396,-1.0694723,-4.971968,3.6139717,7.645577,0,1683969552.335351
-0.9731055,-0.21922012,1.1868376,-0.32910365,-0.49861875,-0.77549344,-4.971968,3.6139717,7.645577,0,1683969552.340496
-0.9731055,-0.21922012,1.1868376,-0.32910365,-0.49861875,-0.77549344,-4.961253,3.4785318,7.715043,0,1683969552.3610408
-0.88828355,-0.17251006,1.1920818,-0.32910365,-0.49861875,-0.77549344,-4.961253,3.4785318,7.715043,0,1683969552.3713362
-0.88828355,-0.17251006,1.1920818,-0.32910365,-0.49861875,-0.77549344,-4.9541125,3.4146004,7.7481213,0,1683969552.3918598
-0.88828355,-0.17251006,1.1920818,-0.24388795,-0.41508293,-0.61315596,-4.9541125,3.4146004,7.7481213,0,1683969552.3970137
-0.8361463,-0.094456725,1.1936061,-0.24388795,-0.41508293,-0.61315596,-4.9541125,3.4146004,7.7481213,0,1683969552.4021375
-0.8361463,-0.094456725,1.1936061,-0.24388795,-0.41508293,-0.61315596,-4.9455686,3.3640075,7.7756615,0,1683969552.4175956
-0.8361463,-0.094456725,1.1936061,-0.13255776,-0.4250095,-0.5710063,-4.9455686,3.3640075,7.7756615,0,1683969552.4279675
-0.8555377,-0.010183521,1.2194613,-0.13255776,-0.4250095,-0.5710063,-4.9455686,3.3640075,7.7756615,0,1683969552.4434228
-0.8555377,-0.010183521,1.2194613,0.08689558,-0.46502116,-0.5684101,-4.9455686,3.3640075,7.7756615,0,1683969552.458921
-0.8555377,-0.010183521,1.2194613,0.08689558,-0.46502116,-0.5684101,-4.9347873,3.3244185,7.799502,0,1683969552.469242
-0.9081018,0.012561709,1.2505608,0.08689558,-0.46502116,-0.5684101,-4.9347873,3.3244185,7.799502,0,1683969552.4744608
-0.9704834,-0.032136023,1.2445239,0.08689558,-0.46502116,-0.5684101,-4.9347873,3.3244185,7.799502,0,1683969552.5003324
-0.9704834,-0.032136023,1.2445239,0.31474832,-0.52198434,-0.50579643,-4.9347873,3.3244185,7.799502,0,1683969552.5055118
-0.9704834,-0.032136023,1.2445239,0.31474832,-0.52198434,-0.50579643,-4.9217687,3.2987173,7.818617,0,1683969552.5106926
-1.0589643,-0.110189356,1.2722694,0.31474832,-0.52198434,-0.50579643,-4.9217687,3.2987173,7.818617,0,1683969552.5313141
-1.0589643,-0.110189356,1.2722694,0.31474832,-0.52198434,-0.50579643,-4.888982,3.296347,7.840157,0,1683969552.5364952
-1.0589643,-0.110189356,1.2722694,0.6030767,-0.66248333,-0.29123,-4.888982,3.296347,7.840157,0,1683969552.552031
-1.0431097,-0.12817821,1.24678,0.6030767,-0.66248333,-0.29123,-4.888982,3.296347,7.840157,0,1683969552.5727031
-1.0431097,-0.12817821,1.24678,0.6030767,-0.66248333,-0.29123,-4.8503103,3.326577,7.8514,0,1683969552.5778985
-1.0431097,-0.12817821,1.24678,0.8750645,-0.783282,-0.03176499,-4.8503103,3.326577,7.8514,0,1683969552.5830646
-1.0486587,-0.22287886,1.2861725,0.8750645,-0.783282,-0.03176499,-4.8503103,3.326577,7.8514,0,1683969552.5985975
-1.0486587,-0.22287886,1.2861725,1.3203852,-1.0395399,0.4111123,-4.8503103,3.326577,7.8514,0,1683969552.619236
-1.0486587,-0.22287886,1.2861725,1.3203852,-1.0395399,0.4111123,-4.791904,3.3899097,7.8601704,0,1683969552.6244142
-1.01573,-0.21415883,1.3744705,1.3203852,-1.0395399,0.4111123,-4.791904,3.3899097,7.8601704,0,1683969552.6399362
-1.01573,-0.21415883,1.3744705,1.3203852,-1.0395399,0.4111123,-4.70941,3.4945302,7.864211,0,1683969552.6451058
-1.01573,-0.21415883,1.3744705,1.6896533,-1.0068586,0.7985536,-4.70941,3.4945302,7.864211,0,1683969552.6502512
-1.01573,-0.21415883,1.3744705,2.0193677,-0.73746705,1.2151637,-4.70941,3.4945302,7.864211,0,1683969552.6761212
-0.8377318,-0.13092227,1.2687936,2.1125247,-0.46196684,1.4753923,-4.617016,3.6403892,7.8528237,0,1683969552.6866639
-0.8377318,-0.13092227,1.2687936,2.1125247,-0.46196684,1.4753923,-4.4835243,3.9141004,7.7983294,0,1683969552.6969655
-0.8377318,-0.13092227,1.2687936,2.0798435,-0.009315695,1.7256943,-4.4835243,3.9141004,7.7983294,0,1683969552.7020798
-0.7968757,-0.08232188,1.1695803,2.0798435,-0.009315695,1.7256943,-4.4835243,3.9141004,7.7983294,0,1683969552.7225113
-0.7968757,-0.08232188,1.1695803,2.0798435,-0.009315695,1.7256943,-4.4074116,4.114217,7.7384787,0,1683969552.7327623
-0.76705694,-0.04116094,1.0398778,2.0798435,-0.009315695,1.7256943,-4.4074116,4.114217,7.7384787,0,1683969552.7481246
-0.76705694,-0.04116094,1.0398778,2.0798435,-0.009315695,1.7256943,-4.3467565,4.316955,7.661966,0,1683969552.7532322
-0.76705694,-0.04116094,1.0398778,2.0089831,0.2078469,1.8474092,-4.3467565,4.316955,7.661966,0,1683969552.7634535
-0.76705694,-0.04116094,1.0398778,1.8661933,0.44211373,2.0674734,-4.3467565,4.316955,7.661966,0,1683969552.7890222
-0.72845715,-0.0014025208,0.9204195,1.8661933,0.44211373,2.0674734,-4.3467565,4.316955,7.661966,0,1683969552.794162
-0.72845715,-0.0014025208,0.9204195,1.8661933,0.44211373,2.0674734,-4.2954907,4.517252,7.5749125,0,1683969552.799275
-0.6577823,0.034880083,0.8708435,1.8661933,0.44211373,2.0674734,-4.2954907,4.517252,7.5749125,0,1683969552.819734
-0.6577823,0.034880083,0.8708435,1.8661933,0.44211373,2.0674734,-4.2449822,4.7140937,7.4828844,0,1683969552.824844
-0.6577823,0.034880083,0.8708435,1.7734945,0.5403103,2.250733,-4.2449822,4.7140937,7.4828844,0,1683969552.8350766
-0.6577823,0.034880083,0.8708435,1.7734945,0.5403103,2.250733,-4.1560974,5.008684,7.3400307,0,1683969552.8555365
-0.5992423,0.095066525,0.86669695,1.7734945,0.5403103,2.250733,-4.1560974,5.008684,7.3400307,0,1683969552.8657727
-0.5992423,0.095066525,0.86669695,1.7224873,0.6070473,2.4514022,-4.1560974,5.008684,7.3400307,0,1683969552.8708863
-0.57728976,0.13525179,0.86425775,1.7224873,0.6070473,2.4514022,-4.1560974,5.008684,7.3400307,0,1683969552.8862276
-0.57728976,0.13525179,0.86425775,1.7562376,0.68645984,2.623208,-4.1560974,5.008684,7.3400307,0,1683969552.9015603
-0.57728976,0.13525179,0.86425775,1.7562376,0.68645984,2.623208,-4.0862985,5.207044,7.240509,0,1683969552.9066799
-0.57728976,0.13525179,0.86425775,1.7562376,0.68645984,2.623208,-2.5498106,7.36757,5.954284,0,1683969552.9374125
-0.57728976,0.13525179,0.86425775,2.074193,-0.18692477,3.67466,-2.5498106,7.36757,5.954284,0,1683969552.9425256
-0.107750185,0.44472107,0.37807086,2.074193,-0.18692477,3.67466,-2.5498106,7.36757,5.954284,0,1683969552.9527407
-0.15866779,0.3609357,0.40368208,2.074193,-0.18692477,3.67466,-2.5498106,7.36757,5.954284,0,1683969552.9731932
-0.15866779,0.3609357,0.40368208,2.074193,-0.18692477,3.67466,-2.2894466,7.558572,5.819153,0,1683969552.9885333
-0.15866779,0.3609357,0.40368208,2.1783454,-0.33857206,3.6259434,-2.2894466,7.558572,5.819153,0,1683969552.9936574
-0.15866779,0.3609357,0.40368208,2.3258693,-0.44104472,3.8114936,-2.2894466,7.558572,5.819153,0,1683969553.0141075
-0.15866779,0.3609357,0.40368208,2.3258693,-0.44104472,3.8114936,-2.019275,7.741211,5.6773486,0,1683969553.0243464
-0.21519548,0.26745462,0.41325584,2.3258693,-0.44104472,3.8114936,-2.019275,7.741211,5.6773486,0,1683969553.0294554
-0.22037871,0.14933798,0.4101459,2.3258693,-0.44104472,3.8114936,-2.019275,7.741211,5.6773486,0,1683969553.034575
-0.22037871,0.14933798,0.4101459,2.3258693,-0.44104472,3.8114936,-1.7302923,7.9180055,5.526969,0,1683969553.0601237
-0.22037871,0.14933798,0.4101459,2.462856,-0.46074513,4.155258,-1.7302923,7.9180055,5.526969,0,1683969553.0652406
-0.22037871,0.14933798,0.4101459,2.6251934,-0.42913285,4.6865582,-1.7302923,7.9180055,5.526969,0,1683969553.075468
-0.18434003,0.100859545,0.3731925,2.6251934,-0.42913285,4.6865582,-1.7302923,7.9180055,5.526969,0,1683969553.0857778
-0.18434003,0.100859545,0.3731925,2.6251934,-0.42913285,4.6865582,-1.2383655,8.175736,5.2782493,0,1683969553.0961401
0.008720021,0.16757075,0.3421541,2.6251934,-0.42913285,4.6865582,-1.2383655,8.175736,5.2782493,0,1683969553.106496
0.008720021,0.16757075,0.3421541,2.6881125,-0.33383787,5.0475793,-1.2383655,8.175736,5.2782493,0,1683969553.116858
0.008720021,0.16757075,0.3421541,2.6881125,-0.33383787,5.0475793,-0.8605412,8.338175,5.0961175,0,1683969553.1220071
0.008720021,0.16757075,0.3421541,2.6881125,-0.33383787,5.0475793,-0.4477222,8.486282,4.900886,0,1683969553.1427011
0.008720021,0.16757075,0.3421541,2.629164,-0.09682214,5.18762,-0.4477222,8.486282,4.900886,0,1683969553.147883
0.2716012,0.33648303,0.28849244,2.629164,-0.09682214,5.18762,-0.4477222,8.486282,4.900886,0,1683969553.1530619
0.2716012,0.33648303,0.28849244,2.3985624,0.22831088,4.9858823,-0.4477222,8.486282,4.900886,0,1683969553.1945133
0.2716012,0.33648303,0.28849244,0.32345316,0.2218968,1.5900823,-0.4477222,8.486282,4.900886,0,1683969553.2099814
0.2716012,0.33648303,0.28849244,0.32345316,0.2218968,1.5900823,4.160195,8.190271,3.4421456,0,1683969553.2151601
0.83139,0.9142607,0.15610667,0.32345316,0.2218968,1.5900823,4.160195,8.190271,3.4421456,0,1683969553.2203393
0.81657207,0.82870686,0.19787739,0.32345316,0.2218968,1.5900823,4.160195,8.190271,3.4421456,0,1683969553.2410588
0.81657207,0.82870686,0.19787739,-0.03772093,0.52610767,1.6354389,4.160195,8.190271,3.4421456,0,1683969553.2462435
0.81657207,0.82870686,0.19787739,-0.03772093,0.52610767,1.6354389,4.2760296,8.133297,3.4352827,0,1683969553.2616677
0.8962108,0.8804172,0.23794071,-0.03772093,0.52610767,1.6354389,4.2760296,8.133297,3.4352827,0,1683969553.272028
0.8962108,0.8804172,0.23794071,-0.36163223,0.8764389,1.7417295,4.2760296,8.133297,3.4352827,0,1683969553.2823858
0.8962108,0.8804172,0.23794071,-0.36163223,0.8764389,1.7417295,4.3862686,8.060969,3.466633,0,1683969553.2927532
0.9975582,0.9963386,0.24111164,-0.36163223,0.8764389,1.7417295,4.3862686,8.060969,3.466633,0,1683969553.3186398
0.9975582,0.9963386,0.24111164,-0.36163223,0.8764389,1.7417295,4.492325,7.97681,3.524999,0,1683969553.3237727
0.9975582,0.9963386,0.24111164,-0.46379945,0.9615019,1.7333301,4.492325,7.97681,3.524999,0,1683969553.3289578
1.1565309,1.1511037,0.23489174,-0.46379945,0.9615019,1.7333301,4.492325,7.97681,3.524999,0,1683969553.3495898
1.1565309,1.1511037,0.23489174,-0.46379945,0.9615019,1.7333301,4.591926,7.8897777,3.5918968,0,1683969553.359942
1.1565309,1.1511037,0.23489174,-0.41630468,0.82848597,1.5525141,4.591926,7.8897777,3.5918968,0,1683969553.3702698
1.2545244,1.2680008,0.23513566,-0.41630468,0.82848597,1.5525141,4.591926,7.8897777,3.5918968,0,1683969553.3805833
1.2545244,1.2680008,0.23513566,-0.15439619,0.40775254,1.1241448,4.591926,7.8897777,3.5918968,0,1683969553.385763
1.2545244,1.2680008,0.23513566,-0.15439619,0.40775254,1.1241448,4.7198877,7.779501,3.6658072,0,1683969553.39095
1.2545244,1.2680008,0.23513566,-0.15439619,0.40775254,1.1241448,4.7553368,7.753335,3.675416,0,1683969553.4271789
1.2690984,1.2859286,0.23757485,-0.15439619,0.40775254,1.1241448,4.7553368,7.753335,3.675416,0,1683969553.4323497
1.2690984,1.2859286,0.23757485,0.10308351,0.040011674,0.75655663,4.7553368,7.753335,3.675416,0,1683969553.4427147
1.273306,1.290868,0.25647837,0.10308351,0.040011674,0.75655663,4.7553368,7.753335,3.675416,0,1683969553.4582691
1.273306,1.290868,0.25647837,0.2835942,-0.21517728,0.42332962,4.7553368,7.753335,3.675416,0,1683969553.4685514
1.273306,1.290868,0.25647837,0.2835942,-0.21517728,0.42332962,0.3068192,8.911129,4.09069,0,1683969553.4737284
1.273306,1.290868,0.25647837,0.2835942,-0.21517728,0.42332962,-0.0154577,8.877445,4.174546,0,1683969553.509935
1.273306,1.290868,0.25647837,-0.980286,0.31215215,-3.9866593,-0.0154577,8.877445,4.174546,0,1683969553.5202157
0.24696562,0.55167854,0.27812597,-0.980286,0.31215215,-3.9866593,-0.0154577,8.877445,4.174546,0,1683969553.525382
0.14567922,0.4908213,0.25690526,-0.980286,0.31215215,-3.9866593,-0.0154577,8.877445,4.174546,0,1683969553.5357413
0.14567922,0.4908213,0.25690526,-0.9266826,0.1994475,-4.021173,-0.0154577,8.877445,4.174546,0,1683969553.546129
0.14567922,0.4908213,0.25690526,-0.9266826,0.1994475,-4.021173,-0.33898416,8.834046,4.252156,0,1683969553.561589
0.078480184,0.4422209,0.23873344,-0.9266826,0.1994475,-4.021173,-0.33898416,8.834046,4.252156,0,1683969553.5822875
0.078480184,0.4422209,0.23873344,-0.9266826,0.1994475,-4.021173,-0.6608719,8.77948,4.326672,0,1683969553.5926244
0.078480184,0.4422209,0.23873344,-0.93874717,0.13194689,-3.9904773,-0.6608719,8.77948,4.326672,0,1683969553.5978093
0.019574312,0.4027674,0.22733033,-0.93874717,0.13194689,-3.9904773,-0.6608719,8.77948,4.326672,0,1683969553.6081593
0.019574312,0.4027674,0.22733033,-0.93874717,0.13194689,-3.9904773,-0.977068,8.712429,4.4017086,0,1683969553.6133313
0.019574312,0.4027674,0.22733033,-0.98547834,0.07895433,-3.9354994,-0.977068,8.712429,4.4017086,0,1683969553.623678
0.019574312,0.4027674,0.22733033,-0.98547834,0.07895433,-3.9354994,-1.4377605,8.586271,4.5216045,0,1683969553.6495285
0.019574312,0.4027674,0.22733033,-1.0580186,0.01863139,-3.8551705,-1.4377605,8.586271,4.5216045,0,1683969553.6547155
-0.033172667,0.37800986,0.23391607,-1.0580186,0.01863139,-3.8551705,-1.4377605,8.586271,4.5216045,0,1683969553.6702461
-0.033172667,0.37800986,0.23391607,-1.108415,-0.03436117,-3.7893498,-1.4377605,8.586271,4.5216045,0,1683969553.6805258
-0.10299382,0.35752088,0.2373919,-1.108415,-0.03436117,-3.7893498,-1.4377605,8.586271,4.5216045,0,1683969553.6908908
-0.10299382,0.35752088,0.2373919,-1.108415,-0.03436117,-3.7893498,-1.7351832,8.485454,4.606768,0,1683969553.7012367
-0.1958041,0.31135964,0.25153908,-1.108415,-0.03436117,-3.7893498,-1.7351832,8.485454,4.606768,0,1683969553.7270465
-0.1958041,0.31135964,0.25153908,-1.108415,-0.03436117,-3.7893498,-2.0244017,8.371751,4.6959233,0,1683969553.737393
-0.1958041,0.31135964,0.25153908,-1.1443033,-0.14095716,-3.662137,-2.0244017,8.371751,4.6959233,0,1683969553.7425754
-0.1958041,0.31135964,0.25153908,-1.2073752,-0.8863655,-1.7838793,-2.0244017,8.371751,4.6959233,0,1683969553.7684326
-0.6275976,0.26714975,0.72467643,-1.2073752,-0.8863655,-1.7838793,-2.0244017,8.371751,4.6959233,0,1683969553.778784
-0.6275976,0.26714975,0.72467643,-1.2073752,-0.8863655,-1.7838793,-4.5032406,5.9832973,6.3369617,0,1683969553.78914
-0.6551602,0.2681254,0.75162923,-1.2073752,-0.8863655,-1.7838793,-4.5032406,5.9832973,6.3369617,0,1683969553.8149421
-0.6551602,0.2681254,0.75162923,-1.2073752,-0.8863655,-1.7838793,-4.551856,5.8334327,6.4411006,0,1683969553.8201244
-0.6551602,0.2681254,0.75162923,-1.0332786,-1.0123564,-1.7018706,-4.551856,5.8334327,6.4411006,0,1683969553.8253002
-0.6551602,0.2681254,0.75162923,-1.0332786,-1.0123564,-1.7018706,-4.5852556,5.6957426,6.539882,0,1683969553.8408244
-0.6551602,0.2681254,0.75162923,-0.8481864,-1.1774428,-1.6010778,-4.5852556,5.6957426,6.539882,0,1683969553.8512056
-0.6812593,0.27879676,0.7732159,-0.8481864,-1.1774428,-1.6010778,-4.5852556,5.6957426,6.539882,0,1683969553.8563294
-0.7097975,0.29959065,0.79333895,-0.8481864,-1.1774428,-1.6010778,-4.5852556,5.6957426,6.539882,0,1683969553.8718622
-0.7097975,0.29959065,0.79333895,-0.6786713,-1.3733778,-1.5028812,-4.5852556,5.6957426,6.539882,0,1683969553.877045
-0.7097975,0.29959065,0.79333895,-0.6786713,-1.3733778,-1.5028812,-4.600633,5.572213,6.6348124,0,1683969553.8822188
-0.75553185,0.3172746,0.8816368,-0.6786713,-1.3733778,-1.5028812,-4.600633,5.572213,6.6348124,0,1683969553.9184146
-0.75553185,0.3172746,0.8816368,-0.6786713,-1.3733778,-1.5028812,-4.586864,5.4120774,6.775412,0,1683969553.9235554
-0.75553185,0.3172746,0.8816368,-0.5140431,-1.6012305,-1.3874277,-4.586864,5.4120774,6.775412,0,1683969553.928748
-0.75553185,0.3172746,0.8816368,-0.5140431,-1.6012305,-1.3874277,-4.555357,5.3197174,6.869166,0,1683969553.949442
-0.75553185,0.3172746,0.8816368,-0.3943135,-1.6882788,-1.2680036,-4.555357,5.3197174,6.869166,0,1683969553.9546227
-0.77906984,0.3085546,1.0079247,-0.3943135,-1.6882788,-1.2680036,-4.555357,5.3197174,6.869166,0,1683969553.9598067
-0.7975465,0.2983101,1.118236,-0.3943135,-1.6882788,-1.2680036,-4.555357,5.3197174,6.869166,0,1683969553.990824
-0.7975465,0.2983101,1.118236,-0.23823744,-1.6113098,-1.0709995,-4.555357,5.3197174,6.869166,0,1683969553.9960065
-0.7975465,0.2983101,1.118236,-0.23823744,-1.6113098,-1.0709995,-4.5119786,5.2399564,6.9585214,0,1683969554.0063684
-0.825597,0.29806617,1.1975088,-0.23823744,-1.6113098,-1.0709995,-4.5119786,5.2399564,6.9585214,0,1683969554.0270698
-0.825597,0.29806617,1.1975088,-0.23823744,-1.6113098,-1.0709995,-4.463812,5.1747856,7.0379043,0,1683969554.032203
-0.3949011,0.08707825,0.44514793,-0.23823744,-1.6113098,-1.0709995,-4.463812,5.1747856,7.0379043,0,1683969554.047749
-0.3949011,0.08707825,0.44514793,-0.23823744,-1.6113098,-1.0709995,-3.4854534,7.155851,5.734242,0,1683969554.0580962
-0.3949011,0.08707825,0.44514793,1.1236867,1.2944235,3.3096678,-3.4854534,7.155851,5.734242,0,1683969554.068427
-0.3949011,0.08707825,0.44514793,1.0786353,1.2939653,3.5837936,-3.4854534,7.155851,5.734242,0,1683969554.0736241
-0.3949011,0.08707825,0.44514793,1.0786353,1.2939653,3.5837936,-3.3434038,7.3059564,5.628567,0,1683969554.0788095
-0.38136372,0.067077085,0.4065481,1.0786353,1.2939653,3.5837936,-3.3434038,7.3059564,5.628567,0,1683969554.1045468
-0.38136372,0.067077085,0.4065481,1.0786353,1.2939653,3.5837936,-3.082637,7.532435,5.476851,0,1683969554.1252105
-0.38136372,0.067077085,0.4065481,1.0491611,1.2093605,3.9683332,-3.082637,7.532435,5.476851,0,1683969554.1303906
-0.29056573,0.096651986,0.35081315,1.0491611,1.2093605,3.9683332,-3.082637,7.532435,5.476851,0,1683969554.1355762
-0.19915795,0.13500789,0.3313608,1.0491611,1.2093605,3.9683332,-3.082637,7.532435,5.476851,0,1683969554.1613927
-0.19915795,0.13500789,0.3313608,1.043816,1.1195632,4.2493315,-3.082637,7.532435,5.476851,0,1683969554.1665683
-0.19915795,0.13500789,0.3313608,1.043816,1.1195632,4.2493315,-2.867756,7.6845446,5.381437,0,1683969554.1717277
-0.11451888,0.15403338,0.30812773,1.0607675,1.0250319,4.5011606,-2.618398,7.8355136,5.2900705,0,1683969554.2027922
-0.013415418,0.199036,0.23836756,1.0607675,1.0250319,4.5011606,-2.618398,7.8355136,5.2900705,0,1683969554.2233946
-0.013415418,0.199036,0.23836756,1.1049025,0.8472701,4.779257,-2.618398,7.8355136,5.2900705,0,1683969554.228598
-0.013415418,0.199036,0.23836756,1.1049025,0.8472701,4.779257,-2.3359213,7.983519,5.2002897,0,1683969554.2337751
0.1718393,0.33819047,0.19549921,1.1049025,0.8472701,4.779257,-2.3359213,7.983519,5.2002897,0,1683969554.2390225
0.1718393,0.33819047,0.19549921,1.110553,0.61193424,4.865847,-2.3359213,7.983519,5.2002897,0,1683969554.244213
0.1718393,0.33819047,0.19549921,1.110553,0.61193424,4.865847,-2.0163844,8.128718,5.1082525,0,1683969554.249385
0.24666072,0.40752378,0.16665606,1.110553,0.61193424,4.865847,-2.0163844,8.128718,5.1082525,0,1683969554.2699194
0.24666072,0.40752378,0.16665606,1.110553,0.61193424,4.865847,-1.6690936,8.264312,5.015116,0,1683969554.2750733
0.24666072,0.40752378,0.16665606,1.110553,0.61193424,4.865847,3.0433013,8.306304,4.2402534,0,1683969554.2853444
1.0810996,1.4498407,0.31788442,1.110553,0.61193424,4.865847,3.0433013,8.306304,4.2402534,0,1683969554.290497
1.0810996,1.4498407,0.31788442,0.08231409,0.14202617,-0.7275405,3.0433013,8.306304,4.2402534,0,1683969554.3008192
1.0810996,1.4498407,0.31788442,-0.050396383,0.20463985,-1.0458013,3.0433013,8.306304,4.2402534,0,1683969554.3316293
1.0265843,1.3978864,0.3070911,-0.050396383,0.20463985,-1.0458013,3.0433013,8.306304,4.2402534,0,1683969554.341895
1.0265843,1.3978864,0.3070911,-0.050396383,0.20463985,-1.0458013,2.9534993,8.3424635,4.2327585,0,1683969554.3470333
1.0265843,1.3978864,0.3070911,-0.123547494,0.20815234,-1.2657127,2.9534993,8.3424635,4.2327585,0,1683969554.3676107
0.96804434,1.3440418,0.31361586,-0.123547494,0.20815234,-1.2657127,2.9534993,8.3424635,4.2327585,0,1683969554.372747
0.96804434,1.3440418,0.31361586,-0.123547494,0.20815234,-1.2657127,2.8681717,8.369404,4.238253,0,1683969554.377888
0.8968206,1.2664154,0.31825027,-0.123547494,0.20815234,-1.2657127,2.8681717,8.369404,4.238253,0,1683969554.3933077
0.8968206,1.2664154,0.31825027,-0.17058411,0.16768251,-1.4903585,2.8681717,8.369404,4.238253,0,1683969554.3984542
0.8968206,1.2664154,0.31825027,-0.17058411,0.16768251,-1.4903585,2.7671056,8.398184,4.2484965,0,1683969554.4139583
0.84303695,1.2179369,0.33410487,-0.17058411,0.16768251,-1.4903585,2.7671056,8.398184,4.2484965,0,1683969554.4399278
0.8024249,1.1777517,0.3518498,-0.13255776,-0.021227567,-1.8075503,2.5312054,8.4615345,4.2698417,0,1683969554.4452667
0.8024249,1.1777517,0.3518498,-0.13255776,-0.021227567,-1.8075503,2.4003696,8.497178,4.2746115,0,1683969554.4659553
0.76473975,1.1365907,0.37502187,-0.13255776,-0.021227567,-1.8075503,2.4003696,8.497178,4.2746115,0,1683969554.471121
0.76473975,1.1365907,0.37502187,-0.06582073,-0.13179417,-1.9689714,2.4003696,8.497178,4.2746115,0,1683969554.4814284
0.72309095,1.0978689,0.3927668,-0.06582073,-0.13179417,-1.9689714,2.4003696,8.497178,4.2746115,0,1683969554.502059
0.72309095,1.0978689,0.3927668,0.0346666,-0.26450464,-2.1775818,2.4003696,8.497178,4.2746115,0,1683969554.507191
0.72309095,1.0978689,0.3927668,-1.2475395,-1.2518156,-3.441462,2.4003696,8.497178,4.2746115,0,1683969554.5226667
-0.15708233,0.34062964,0.28410196,-1.2475395,-1.2518156,-3.441462,2.4003696,8.497178,4.2746115,0,1683969554.5278254
-0.15708233,0.34062964,0.28410196,-1.2475395,-1.2518156,-3.441462,-2.7896652,7.8681483,5.152294,0,1683969554.5329828
-0.19745055,0.30196884,0.32562876,-1.2475395,-1.2518156,-3.441462,-2.7896652,7.8681483,5.152294,0,1683969554.563893
-0.19745055,0.30196884,0.32562876,-1.4504995,-1.2333369,-3.34632,-2.7896652,7.8681483,5.152294,0,1683969554.5690556
-0.19745055,0.30196884,0.32562876,-1.4504995,-1.2333369,-3.34632,-2.9750693,7.713877,5.280264,0,1683969554.574215
-0.2306232,0.28708994,0.38648596,-1.4504995,-1.2333369,-3.34632,-2.9750693,7.713877,5.280264,0,1683969554.594757
-0.2306232,0.28708994,0.38648596,-1.5700763,-1.2302825,-3.2701144,-2.9750693,7.713877,5.280264,0,1683969554.605072
-0.2306232,0.28708994,0.38648596,-1.5700763,-1.2302825,-3.2701144,-3.1494339,7.545856,5.420078,0,1683969554.615349
-0.2306232,0.28708994,0.38648596,-1.6484199,-1.1972959,-3.1513011,-3.1494339,7.545856,5.420078,0,1683969554.6308148
-0.286907,0.2519659,0.4598439,-1.6484199,-1.1972959,-3.1513011,-3.1494339,7.545856,5.420078,0,1683969554.6359782
-0.286907,0.2519659,0.4598439,-1.6484199,-1.1972959,-3.1513011,-3.3129294,7.365643,5.5684757,0,1683969554.651435
-0.286907,0.2519659,0.4598439,-1.6520851,-1.1575897,-3.02699,-3.3129294,7.365643,5.5684757,0,1683969554.6669192
-0.286907,0.2519659,0.4598439,-1.6520851,-1.1575897,-3.02699,-3.5362606,7.0798917,5.7970777,0,1683969554.6771963
-0.3360562,0.20434119,0.5657647,-1.6520851,-1.1575897,-3.02699,-3.5362606,7.0798917,5.7970777,0,1683969554.6823602
-0.39240095,0.16196068,0.6493062,-1.6520851,-1.1575897,-3.02699,-3.5362606,7.0798917,5.7970777,0,1683969554.6978562
-0.39240095,0.16196068,0.6493062,-1.5693128,-1.0887146,-2.8341093,-3.5362606,7.0798917,5.7970777,0,1683969554.7133265
-0.39240095,0.16196068,0.6493062,-1.5693128,-1.0887146,-2.8341093,-3.6690958,6.8858294,5.94636,0,1683969554.718475
-0.4816135,0.12659276,0.69583327,-1.5693128,-1.0887146,-2.8341093,-3.6690958,6.8858294,5.94636,0,1683969554.7339551
-0.4816135,0.12659276,0.69583327,-1.5693128,-1.0887146,-2.8341093,-3.7892556,6.6949153,6.087345,0,1683969554.7442284
-0.4816135,0.12659276,0.69583327,-1.4488196,-1.0230466,-2.62275,-3.7892556,6.6949153,6.087345,0,1683969554.749391
-0.4816135,0.12659276,0.69583327,-1.3185526,-0.9757045,-2.392912,-3.7892556,6.6949153,6.087345,0,1683969554.7648005
-0.4816135,0.12659276,0.69583327,-1.3185526,-0.9757045,-2.392912,-3.895144,6.512884,6.2166147,0,1683969554.7751305
-0.8514522,0.18580353,1.4412426,-1.3185526,-0.9757045,-2.392912,-3.895144,6.512884,6.2166147,0,1683969554.8008666
-0.8514522,0.18580353,1.4412426,-1.3185526,-0.9757045,-2.392912,-3.8314197,5.032618,7.4986057,0,1683969554.8111885
-0.8514522,0.18580353,1.4412426,0.16203201,0.44990227,0.2864958,-3.8314197,5.032618,7.4986057,0,1683969554.8266416
-0.8631601,0.16135088,1.3894103,0.16203201,0.44990227,0.2864958,-3.8314197,5.032618,7.4986057,0,1683969554.8317976
-0.8631601,0.16135088,1.3894103,0.20906863,0.72601336,0.49770245,-3.8314197,5.032618,7.4986057,0,1683969554.8421004
-0.8631601,0.16135088,1.3894103,0.20906863,0.72601336,0.49770245,-3.8568616,5.047471,7.4755445,0,1683969554.8575356
-0.8597453,0.15000875,1.3351998,0.20906863,0.72601336,0.49770245,-3.8568616,5.047471,7.4755445,0,1683969554.878179
-0.8597453,0.15000875,1.3351998,0.29168814,0.947452,0.72402805,-3.8568616,5.047471,7.4755445,0,1683969554.8832831
-0.8597453,0.15000875,1.3351998,0.29168814,0.947452,0.72402805,-3.8897936,5.0737963,7.440579,0,1683969554.8884528
-0.8597453,0.15000875,1.3351998,0.4540256,1.122923,1.0021244,-3.8897936,5.0737963,7.440579,0,1683969554.9090827
-0.8597453,0.15000875,1.3351998,0.4540256,1.122923,1.0021244,-3.9251235,5.11479,7.3938103,0,1683969554.9142578
-0.83114606,0.14921603,1.2501949,0.4540256,1.122923,1.0021244,-3.9251235,5.11479,7.3938103,0,1683969554.9245386
-0.83114606,0.14921603,1.2501949,0.61621034,1.1924089,1.2076806,-3.9251235,5.11479,7.3938103,0,1683969554.9554496
-0.8095594,0.15092343,1.1810445,0.61621034,1.1924089,1.2076806,-3.9251235,5.11479,7.3938103,0,1683969554.9657078
-0.8095594,0.15092343,1.1810445,0.79213953,1.2179126,1.4074335,-3.9251235,5.11479,7.3938103,0,1683969554.9811149
-0.78955823,0.15317966,1.1220777,0.79213953,1.2179126,1.4074335,-3.9251235,5.11479,7.3938103,0,1683969554.9862764
-0.78955823,0.15317966,1.1220777,0.79213953,1.2179126,1.4074335,-3.9845288,5.2495165,7.266513,0,1683969554.9914024
-0.78955823,0.15317966,1.1220777,0.99128157,1.2093605,1.6441438,-3.9845288,5.2495165,7.266513,0,1683969555.0120304
-0.78955823,0.15317966,1.1220777,0.99128157,1.2093605,1.6441438,-4.0017962,5.3446536,7.1872406,0,1683969555.022343
-0.7519341,0.1683025,1.0084735,0.99128157,1.2093605,1.6441438,-4.0017962,5.3446536,7.1872406,0,1683969555.0326428
-0.7519341,0.1683025,1.0084735,1.116509,1.173014,1.8072448,-4.0017962,5.3446536,7.1872406,0,1683969555.0635931
-0.7519341,0.1683025,1.0084735,1.116509,1.173014,1.8072448,-4.0052943,5.518343,7.0527744,0,1683969555.068715
0.31068885,0.6707099,0.113116354,1.116509,1.173014,1.8072448,-4.0052943,5.518343,7.0527744,0,1683969555.0738533
0.31068885,0.6707099,0.113116354,1.116509,1.173014,1.8072448,0.6080707,8.755453,4.3827405,0,1683969555.0790117
0.31068885,0.6707099,0.113116354,0.45249844,0.65057147,2.6439774,0.6080707,8.755453,4.3827405,0,1683969555.0841453
0.31068885,0.6707099,0.113116354,0.17684549,0.6301075,2.6401596,0.6080707,8.755453,4.3827405,0,1683969555.1099577
0.31068885,0.6707099,0.113116354,0.17684549,0.6301075,2.6401596,0.9003789,8.757547,4.3279095,0,1683969555.1151407
0.30873755,0.66052634,0.11598238,0.17684549,0.6301075,2.6401596,0.9003789,8.757547,4.3279095,0,1683969555.1254568
0.30873755,0.66052634,0.11598238,0.17684549,0.6301075,2.6401596,1.0950274,8.742043,4.314361,0,1683969555.146093
0.30873755,0.66052634,0.11598238,0.01160644,0.5491679,2.688418,1.0950274,8.742043,4.314361,0,1683969555.1512144
0.35520366,0.7063217,0.15244792,0.01160644,0.5491679,2.688418,1.0950274,8.742043,4.314361,0,1683969555.1615121
0.45764863,0.8026078,0.20513393,0.01160644,0.5491679,2.688418,1.0950274,8.742043,4.314361,0,1683969555.1923387
0.45764863,0.8026078,0.20513393,0.01160644,0.5491679,2.688418,1.2962193,8.71447,4.314389,0,1683969555.2025945
0.45764863,0.8026078,0.20513393,-0.07849618,0.4269948,2.6751316,1.2962193,8.71447,4.314389,0,1683969555.2077506
0.56924057,0.925115,0.26306412,-0.07849618,0.4269948,2.6751316,1.2962193,8.71447,4.314389,0,1683969555.2180667
0.56924057,0.925115,0.26306412,-0.12568553,0.30573806,2.5534167,1.2962193,8.71447,4.314389,0,1683969555.2386706
0.56924057,0.925115,0.26306412,-0.12568553,0.30573806,2.5534167,1.6022097,8.657777,4.325727,0,1683969555.24379
0.56924057,0.925115,0.26306412,-0.12568553,0.30573806,2.5534167,1.7953882,8.614399,4.336451,0,1683969555.2746341
0.6454645,1.0082296,0.29812714,-0.12568553,0.30573806,2.5534167,1.7953882,8.614399,4.336451,0,1683969555.2797873
0.6454645,1.0082296,0.29812714,-0.15806139,0.2554944,2.3362541,1.7953882,8.614399,4.336451,0,1683969555.2849386
0.6454645,1.0082296,0.29812714,-0.20738874,0.23441954,2.0883956,1.7953882,8.614399,4.336451,0,1683969555.3003747
0.6454645,1.0082296,0.29812714,-0.20738874,0.23441954,2.0883956,1.9703144,8.5692425,4.3499484,0,1683969555.3106534
0.67888105,1.0485368,0.32197002,-0.20738874,0.23441954,2.0883956,1.9703144,8.5692425,4.3499484,0,1683969555.315822
0.71802974,1.0971981,0.35837457,-0.20738874,0.23441954,2.0883956,1.9703144,8.5692425,4.3499484,0,1683969555.3312535
0.71802974,1.0971981,0.35837457,-0.20738874,0.23441954,2.0883956,2.1264205,8.52287,4.367511,0,1683969555.3364043
0.71802974,1.0971981,0.35837457,-0.27382034,0.22174409,1.8197676,2.1264205,8.52287,4.367511,0,1683969555.3467257
0.97792286,1.3734949,0.29666364,-0.27382034,0.22174409,1.8197676,2.8146925,8.321401,4.366682,0,1683969555.3519723
0.94273794,1.3197721,0.31068885,-0.16157386,0.1553125,-1.2072225,2.6522038,8.370653,4.374254,0,1683969555.357235
0.94273794,1.3197721,0.31068885,-0.27412578,0.17821993,-1.4117095,2.6522038,8.370653,4.374254,0,1683969555.3727014
0.87511206,1.1903133,0.41325584,-0.27412578,0.17821993,-1.4117095,2.6522038,8.370653,4.374254,0,1683969555.3881445
0.87511206,1.1903133,0.41325584,-0.27412578,0.17821993,-1.4117095,2.544924,8.393199,4.394736,0,1683969555.4087517
0.87511206,1.1903133,0.41325584,-0.29458976,0.172264,-1.606881,2.544924,8.393199,4.394736,0,1683969555.4139025
0.87511206,1.1903133,0.41325584,-0.20525073,0.1020145,-1.8634444,2.544924,8.393199,4.394736,0,1683969555.424192
0.87511206,1.1903133,0.41325584,-0.20525073,0.1020145,-1.8634444,2.4226537,8.417864,4.4166074,0,1683969555.444816
0.8451103,1.1453718,0.44661143,-0.20525073,0.1020145,-1.8634444,2.4226537,8.417864,4.4166074,0,1683969555.4499738
0.8451103,1.1453718,0.44661143,-0.20525073,0.1020145,-1.8634444,2.287073,8.447291,4.437378,0,1683969555.4653957
0.8451103,1.1453718,0.44661143,-0.093004234,0.04550946,-2.069917,2.287073,8.447291,4.437378,0,1683969555.4705894
0.7889485,1.0934784,0.4633807,-0.093004234,0.04550946,-2.069917,2.287073,8.447291,4.437378,0,1683969555.4860387
0.7889485,1.0934784,0.4633807,-0.093004234,0.04550946,-2.069917,2.0573487,8.502619,4.439471,0,1683969555.4911835
0.7471777,1.0628059,0.44191605,-0.093004234,0.04550946,-2.069917,2.0573487,8.502619,4.439471,0,1683969555.5066137
0.7471777,1.0628059,0.44191605,0.012064588,-0.02565634,-2.277611,2.0573487,8.502619,4.439471,0,1683969555.516935
0.67930794,1.0242062,0.3931937,0.012064588,-0.02565634,-2.277611,2.0573487,8.502619,4.439471,0,1683969555.5271947
0.67930794,1.0242062,0.3931937,0.118966006,-0.14614952,-2.5448647,2.0573487,8.502619,4.439471,0,1683969555.5374908
-0.4425868,0.26623505,0.61631644,0.118966006,-0.14614952,-2.5448647,2.0573487,8.502619,4.439471,0,1683969555.5581162
-0.4425868,0.26623505,0.61631644,-1.1491902,-0.9505063,-2.284636,2.0573487,8.502619,4.439471,0,1683969555.5683677
-0.4425868,0.26623505,0.61631644,-1.1491902,-0.9505063,-2.284636,-3.5646403,6.9230227,5.9666758,0,1683969555.5786529
-0.4425868,0.26623505,0.61631644,-1.1491902,-0.9505063,-2.284636,-3.6603339,6.778125,6.074133,0,1683969555.6043873
-0.4425868,0.26623505,0.61631644,-1.0401508,-0.9049969,-2.1696405,-3.6603339,6.778125,6.074133,0,1683969555.6197238
-0.4749058,0.26714975,0.62625605,-1.0401508,-0.9049969,-2.1696405,-3.6603339,6.778125,6.074133,0,1683969555.6248837
-0.4749058,0.26714975,0.62625605,-0.98547834,-0.8921687,-2.1180224,-3.6603339,6.778125,6.074133,0,1683969555.6403005
-0.4938703,0.27093044,0.6208289,-0.98547834,-0.8921687,-2.1180224,-3.6603339,6.778125,6.074133,0,1683969555.645408
-0.4938703,0.27093044,0.6208289,-0.98547834,-0.8921687,-2.1180224,-3.7052917,6.7082086,6.1242843,0,1683969555.6505764
-0.532775,0.3108718,0.58997345,-0.98547834,-0.8921687,-2.1180224,-3.7052917,6.7082086,6.1242843,0,1683969555.6763394
-0.532775,0.3108718,0.58997345,-0.8671232,-1.0071641,-1.9631681,-3.7052917,6.7082086,6.1242843,0,1683969555.6814961
-0.532775,0.3108718,0.58997345,-0.8671232,-1.0071641,-1.9631681,-3.8612792,6.445716,6.3070903,0,1683969555.6918454
-0.55777645,0.33599523,0.6032669,-0.8671232,-1.0071641,-1.9631681,-3.8612792,6.445716,6.3070903,0,1683969555.7021773
-0.55777645,0.33599523,0.6032669,-0.82726425,-1.212873,-1.8924606,-3.8612792,6.445716,6.3070903,0,1683969555.7072918
-0.55777645,0.33599523,0.6032669,-0.82726425,-1.212873,-1.8924606,-3.919603,6.3214006,6.3963056,0,1683969555.7227404
-0.55777645,0.33599523,0.6032669,-0.8219192,-1.3367258,-1.8551978,-3.919603,6.3214006,6.3963056,0,1683969555.7382054
-0.5975349,0.34178823,0.62540233,-0.8219192,-1.3367258,-1.8551978,-3.919603,6.3214006,6.3963056,0,1683969555.7433527
-0.5975349,0.34178823,0.62540233,-0.8219192,-1.3367258,-1.8551978,-3.9427953,6.260192,6.442085,0,1683969555.7536554
-0.5975349,0.34178823,0.62540233,-0.8219192,-1.3367258,-1.8551978,-3.9889133,6.0780787,6.5864754,0,1683969555.7845788
-0.6429643,0.33904418,0.6822959,-0.82879144,-1.4973835,-1.8020525,-3.9889133,6.0780787,6.5864754,0,1683969555.7897205
-0.7251033,0.30690816,0.8130962,-0.82879144,-1.4973835,-1.8020525,-3.9889133,6.0780787,6.5864754,0,1683969555.800023
-0.7251033,0.30690816,0.8130962,-0.82879144,-1.4973835,-1.8020525,-4.0006027,5.9563904,6.6897464,0,1683969555.8051717
-0.7251033,0.30690816,0.8130962,-0.8373435,-1.6394095,-1.6953038,-4.0006027,5.9563904,6.6897464,0,1683969555.8206077
-0.7251033,0.30690816,0.8130962,0.90408057,1.0870347,1.2892311,-4.0006027,5.9563904,6.6897464,0,1683969555.8257713
-0.7805334,0.18982814,1.314284,0.90408057,1.0870347,1.2892311,-4.0006027,5.9563904,6.6897464,0,1683969555.8308885
-0.7805334,0.18982814,1.314284,0.90408057,1.0870347,1.2892311,-3.5539594,5.5939875,7.2327576,0,1683969555.846283
-0.7805334,0.18982814,1.314284,0.99128157,1.2614367,1.4535538,-3.5539594,5.5939875,7.2327576,0,1683969555.8514247
-0.7399822,0.22184221,1.1909232,0.99128157,1.2614367,1.4535538,-3.5539594,5.5939875,7.2327576,0,1683969555.8565416
-0.7399822,0.22184221,1.1909232,0.99128157,1.2614367,1.4535538,-3.5728276,5.7518654,7.0983844,0,1683969555.8874276
-0.7096146,0.24458744,1.0670744,0.99128157,1.2614367,1.4535538,-3.5728276,5.7518654,7.0983844,0,1683969555.8977993
-0.7096146,0.24458744,1.0670744,1.0676397,1.3917037,1.6278032,-3.5728276,5.7518654,7.0983844,0,1683969555.9029465
-0.6834545,0.25160006,0.97859365,1.0676397,1.3917037,1.6278032,-3.5728276,5.7518654,7.0983844,0,1683969555.9287245
-0.6834545,0.25160006,0.97859365,1.1163563,1.4515685,1.7765489,-3.5728276,5.7518654,7.0983844,0,1683969555.9338703
-0.6834545,0.25160006,0.97859365,1.1163563,1.4515685,1.7765489,-3.5809238,5.866854,6.999508,0,1683969555.9441776
-0.658514,0.25184396,0.91340697,1.1163563,1.4515685,1.7765489,-3.5809238,5.866854,6.999508,0,1683969555.949299
-0.658514,0.25184396,0.91340697,1.1163563,1.4515685,1.7765489,-3.5805323,5.989087,6.8954144,0,1683969555.9647155
-0.658514,0.25184396,0.91340697,1.1650727,1.4601207,1.975691,-3.5805323,5.989087,6.8954144,0,1683969555.9800994
-0.6288172,0.25946635,0.8641358,1.1650727,1.4601207,1.975691,-3.5805323,5.989087,6.8954144,0,1683969555.9852529
-0.6288172,0.25946635,0.8641358,1.2021828,1.4387404,2.0943515,-3.5805323,5.989087,6.8954144,0,1683969556.005793
-0.6288172,0.25946635,0.8641358,1.2021828,1.4387404,2.0943515,-3.5680494,6.11787,6.78799,0,1683969556.0109222
-0.5957055,0.24922185,0.8202918,1.2021828,1.4387404,2.0943515,-3.5680494,6.11787,6.78799,0,1683969556.0315106
-0.5957055,0.24922185,0.8202918,1.2767084,1.4057536,2.2999077,-3.5680494,6.11787,6.78799,0,1683969556.0366645
-0.5957055,0.24922185,0.8202918,1.2767084,1.4057536,2.2999077,-3.5413785,6.253264,6.677682,0,1683969556.0418184
-0.5957055,0.24922185,0.8202918,1.3646729,1.3913983,2.510198,-3.5413785,6.253264,6.677682,0,1683969556.0572617
-0.5377753,0.245868,0.78626543,1.3646729,1.3913983,2.510198,-3.5413785,6.253264,6.677682,0,1683969556.0675666
-0.5377753,0.245868,0.78626543,1.3646729,1.3913983,2.510198,-3.4723375,6.4694,6.505832,0,1683969556.0830352
-0.48521125,0.25940537,0.7526049,1.3646729,1.3913983,2.510198,-3.4723375,6.4694,6.505832,0,1683969556.1036158
-0.48521125,0.25940537,0.7526049,1.3646729,1.3913983,2.510198,-0.48956048,8.749258,4.4098654,0,1683969556.1242125
0.2013532,0.54125106,0.2420873,1.3646729,1.3913983,2.510198,-0.48956048,8.749258,4.4098654,0,1683969556.1345167
0.2013532,0.54125106,0.2420873,0.44043383,1.2472341,3.273016,-0.48956048,8.749258,4.4098654,0,1683969556.1396675
0.22001283,0.53350675,0.23495273,0.44043383,1.2472341,3.273016,-0.48956048,8.749258,4.4098654,0,1683969556.1602707
0.22001283,0.53350675,0.23495273,0.44043383,1.2472341,3.273016,-0.3789765,8.76514,4.3891726,0,1683969556.165425
0.22001283,0.53350675,0.23495273,0.44073927,1.2189816,3.2548428,-0.3789765,8.76514,4.3891726,0,1683969556.1757243
0.31160355,0.57594824,0.2508683,0.44073927,1.2189816,3.2548428,-0.3789765,8.76514,4.3891726,0,1683969556.1860535
0.31160355,0.57594824,0.2508683,0.52122074,1.0612257,3.2633948,-0.041961666,8.802847,4.329463,0,1683969556.1913486
0.31160355,0.57594824,0.2508683,0.68325275,0.8866709,3.2053626,-0.041961666,8.802847,4.329463,0,1683969556.196518
0.31160355,0.57594824,0.2508683,0.68325275,0.8866709,3.2053626,0.19155538,8.823541,4.283054,0,1683969556.211967
0.436123,0.6952235,0.2294646,0.68325275,0.8866709,3.2053626,0.19155538,8.823541,4.283054,0,1683969556.2171192
0.541373,0.8244993,0.17501022,0.68325275,0.8866709,3.2053626,0.19155538,8.823541,4.283054,0,1683969556.237706
0.541373,0.8244993,0.17501022,0.8009971,0.7125743,3.000723,0.19155538,8.823541,4.283054,0,1683969556.2428532
0.541373,0.8244993,0.17501022,0.8009971,0.7125743,3.000723,0.54239917,8.851378,4.194643,0,1683969556.2531593
0.541373,0.8244993,0.17501022,0.8009971,0.7125743,3.000723,0.7642232,8.866087,4.1285105,0,1683969556.2685761
0.541373,0.8244993,0.17501022,0.7725918,0.6414085,2.7629435,0.7642232,8.866087,4.1285105,0,1683969556.2737312
0.5655818,0.89986956,0.12701961,0.7725918,0.6414085,2.7629435,0.7642232,8.866087,4.1285105,0,1683969556.2891781
0.5354581,0.95359224,0.03811198,0.7725918,0.6414085,2.7629435,0.7642232,8.866087,4.1285105,0,1683969556.2943318
0.5354581,0.95359224,0.03811198,0.7725918,0.6414085,2.7629435,0.96759844,8.874075,4.0682487,0,1683969556.304586
0.5354581,0.95359224,0.03811198,0.50671273,0.6600399,2.446668,0.96759844,8.874075,4.0682487,0,1683969556.3097296
0.47149092,0.93340814,-0.010610376,0.50671273,0.6600399,2.446668,0.96759844,8.874075,4.0682487,0,1683969556.3457382
0.47149092,0.93340814,-0.010610376,0.50671273,0.6600399,2.446668,1.1487361,8.8707485,4.0281944,0,1683969556.3508947
0.47149092,0.93340814,-0.010610376,-0.29642236,0.15057829,-2.1410828,1.1487361,8.8707485,4.0281944,0,1683969556.3663585
0.47149092,0.93340814,-0.010610376,-0.5056437,0.23609942,-2.415972,1.1487361,8.8707485,4.0281944,0,1683969556.376684
0.47149092,0.93340814,-0.010610376,-0.5056437,0.23609942,-2.415972,2.2273111,8.709594,3.926599,0,1683969556.3869853
0.77858204,1.1636655,0.23312336,-0.5056437,0.23609942,-2.415972,2.2273111,8.709594,3.926599,0,1683969556.3972793
0.72577405,1.1117722,0.24849011,-0.5056437,0.23609942,-2.415972,2.2273111,8.709594,3.926599,0,1683969556.4127867
0.72577405,1.1117722,0.24849011,-0.58093286,0.21624629,-2.638327,2.2273111,8.709594,3.926599,0,1683969556.4179366
0.72577405,1.1117722,0.24849011,-0.58093286,0.21624629,-2.638327,2.039363,8.738732,3.963796,0,1683969556.4385524
0.6882109,1.0696356,0.25660032,-0.58093286,0.21624629,-2.638327,2.039363,8.738732,3.963796,0,1683969556.4540145
0.6882109,1.0696356,0.25660032,-0.58093286,0.21624629,-2.638327,1.7213073,8.775622,4.032577,0,1683969556.469461
0.6882109,1.0696356,0.25660032,-0.5853616,0.14813483,-2.7966938,1.7213073,8.775622,4.032577,0,1683969556.4797645
0.65595293,1.0366459,0.26471058,-0.5853616,0.14813483,-2.7966938,1.7213073,8.775622,4.032577,0,1683969556.5054781
0.65595293,1.0366459,0.26471058,-0.5671884,0.08399397,-2.8962648,1.7213073,8.775622,4.032577,0,1683969556.5157895
0.65595293,1.0366459,0.26471058,-0.47540587,-0.13622294,-3.1801646,1.7213073,8.775622,4.032577,0,1683969556.5312088
0.65595293,1.0366459,0.26471058,-0.47540587,-0.13622294,-3.1801646,1.3797555,8.807832,4.093223,0,1683969556.5363598
0.57588726,0.9488969,0.27708933,-0.47540587,-0.13622294,-3.1801646,1.3797555,8.807832,4.093223,0,1683969556.5415146
0.48813823,0.8591355,0.28117493,-0.47540587,-0.13622294,-3.1801646,1.3797555,8.807832,4.093223,0,1683969556.5569618
0.48813823,0.8591355,0.28117493,-0.47540587,-0.13622294,-3.1801646,1.0194402,8.833894,4.1423626,0,1683969556.5672069
0.48813823,0.8591355,0.28117493,-0.42073345,-0.2677117,-3.3438764,1.0194402,8.833894,4.1423626,0,1683969556.5826497
0.4195977,0.78626543,0.26013714,-0.42073345,-0.2677117,-3.3438764,1.0194402,8.833894,4.1423626,0,1683969556.6083524
0.4195977,0.78626543,0.26013714,-0.44028112,-0.3370449,-3.447418,1.0194402,8.833894,4.1423626,0,1683969556.6186602
0.4195977,0.78626543,0.26013714,-0.44028112,-0.3370449,-3.447418,0.77076334,8.84551,4.1712136,0,1683969556.6238017
0.4195977,0.78626543,0.26013714,-0.44028112,-0.3370449,-3.447418,0.38934302,8.848106,4.2184772,0,1683969556.6289647
0.4195977,0.78626543,0.26013714,-0.44028112,-0.3370449,-3.447418,-4.170309,5.738817,6.7757363,0,1683969556.6494997
-0.61875564,0.22239104,0.8991378,-0.44028112,-0.3370449,-3.447418,-4.170309,5.738817,6.7757363,0,1683969556.6546528
-0.61875564,0.22239104,0.8991378,-1.2136365,-1.2432635,-1.9822577,-4.170309,5.738817,6.7757363,0,1683969556.6649103
-0.61875564,0.22239104,0.8991378,-1.2136365,-1.2432635,-1.9822577,-4.210718,5.5010805,6.9457955,0,1683969556.6752026
-0.6660145,0.23836756,0.9390182,-1.2136365,-1.2432635,-1.9822577,-4.210718,5.5010805,6.9457955,0,1683969556.6854641
-0.6660145,0.23836756,0.9390182,-1.0522153,-1.3176364,-1.8748982,-4.210718,5.5010805,6.9457955,0,1683969556.6958003
-0.6660145,0.23836756,0.9390182,-1.0522153,-1.3176364,-1.8748982,-4.220505,5.3585873,7.05046,0,1683969556.721524
-0.7118708,0.25300255,0.9852404,-1.0522153,-1.3176364,-1.8748982,-4.220505,5.3585873,7.05046,0,1683969556.7266386
-0.7118708,0.25300255,0.9852404,-0.91538155,-1.3984233,-1.7724255,-4.220505,5.3585873,7.05046,0,1683969556.7369409
-0.7118708,0.25300255,0.9852404,-0.91538155,-1.3984233,-1.7724255,-4.2173305,5.227552,7.150031,0,1683969556.7472155
-0.7771185,0.2406238,1.0788434,-0.91538155,-1.3984233,-1.7724255,-4.2173305,5.227552,7.150031,0,1683969556.7677872
-0.7771185,0.2406238,1.0788434,-0.7677049,-1.4741706,-1.6358972,-4.2173305,5.227552,7.150031,0,1683969556.7729387
-0.7771185,0.2406238,1.0788434,-0.67164636,-1.4999796,-1.5302174,-4.2173305,5.227552,7.150031,0,1683969556.778099
-0.8128523,0.21562232,1.1489085,-0.67164636,-1.4999796,-1.5302174,-4.2173305,5.227552,7.150031,0,1683969556.7832024
-0.8128523,0.21562232,1.1489085,-0.67164636,-1.4999796,-1.5302174,-4.201658,5.107609,7.2453103,0,1683969556.7935097
-0.8128523,0.21562232,1.1489085,-0.48243082,-1.4802792,-1.2901474,-4.201658,5.107609,7.2453103,0,1683969556.814109
-0.8607819,0.18458393,1.2799526,-0.48243082,-1.4802792,-1.2901474,-4.201658,5.107609,7.2453103,0,1683969556.824364
-0.8607819,0.18458393,1.2799526,-0.48243082,-1.4802792,-1.2901474,-4.1743703,5.0014606,7.3345838,0,1683969556.8449657
-0.87627065,0.17141244,1.3820319,-0.48243082,-1.4802792,-1.2901474,-4.1743703,5.0014606,7.3345838,0,1683969556.8501182
-0.87627065,0.17141244,1.3820319,-0.48243082,-1.4802792,-1.2901474,-4.116114,4.876011,7.451056,0,1683969556.8655033
-0.87627065,0.17141244,1.3820319,-0.28680122,-1.3646729,-1.0089967,-4.116114,4.876011,7.451056,0,1683969556.8809578
-0.86645305,0.17165637,1.431486,-0.28680122,-1.3646729,-1.0089967,-4.116114,4.876011,7.451056,0,1683969556.8963623
-0.86645305,0.17165637,1.431486,-0.16172658,-1.2229522,-0.7979427,-4.116114,4.876011,7.451056,0,1683969556.9015176
-0.86645305,0.17165637,1.431486,-0.16172658,-1.2229522,-0.7979427,-4.0714664,4.81526,7.514822,0,1683969556.9066718
-0.86645305,0.17165637,1.431486,1.8639026,1.2910637,3.1552718,-4.0714664,4.81526,7.514822,0,1683969556.9323332
-0.33203158,0.31020102,0.5321042,1.8639026,1.2910637,3.1552718,-4.0714664,4.81526,7.514822,0,1683969556.9374573
-0.33203158,0.31020102,0.5321042,1.8639026,1.2910637,3.1552718,-3.5454624,6.837285,6.0759645,0,1683969556.9426222
-0.33203158,0.31020102,0.5321042,1.9283489,1.2073752,3.2731688,-3.5454624,6.837285,6.0759645,0,1683969556.9580302
-0.26440567,0.3463007,0.4413672,1.9283489,1.2073752,3.2731688,-3.5454624,6.837285,6.0759645,0,1683969556.9631896
-0.26440567,0.3463007,0.4413672,1.9283489,1.2073752,3.2731688,-3.4165025,7.036018,5.920986,0,1683969556.968342
-0.26440567,0.3463007,0.4413672,1.9112446,1.1594223,3.2963815,-3.4165025,7.036018,5.920986,0,1683969556.983788
-0.17793721,0.39849886,0.36959475,1.9112446,1.1594223,3.2963815,-3.4165025,7.036018,5.920986,0,1683969556.9889503
-0.17793721,0.39849886,0.36959475,1.9112446,1.1594223,3.2963815,-3.2696512,7.2346225,5.7624416,0,1683969557.0094867
-0.17793721,0.39849886,0.36959475,1.9112446,1.1594223,3.2963815,-3.0264962,7.52093,5.5237713,0,1683969557.024957
-0.17793721,0.39849886,0.36959475,1.8322903,1.1377366,3.2339206,-3.0264962,7.52093,5.5237713,0,1683969557.0403576
-0.12043386,0.43856218,0.3155672,1.8322903,1.1377366,3.2339206,-3.0264962,7.52093,5.5237713,0,1683969557.045509
-0.12043386,0.43856218,0.3155672,1.8322903,1.1377366,3.2339206,-2.9426813,7.6107,5.4455466,0,1683969557.0609267
-0.12043386,0.43856218,0.3155672,1.740966,1.1230757,3.157715,-2.9426813,7.6107,5.4455466,0,1683969557.071194
-0.12043386,0.43856218,0.3155672,1.5074627,1.0445796,2.990949,-2.9426813,7.6107,5.4455466,0,1683969557.1071506
-0.12043386,0.43856218,0.3155672,1.5074627,1.0445796,2.990949,-2.690028,7.857314,5.2213473,0,1683969557.1123097
-0.09274931,0.49679726,0.21482961,1.5074627,1.0445796,2.990949,-2.690028,7.857314,5.2213473,0,1683969557.1174636
-0.09274931,0.49679726,0.21482961,1.5074627,1.0445796,2.990949,-2.5219183,8.001037,5.0852194,0,1683969557.1380708
-0.09274931,0.49679726,0.21482961,1.3281738,0.9753991,2.941469,-2.5219183,8.001037,5.0852194,0,1683969557.1432056
-0.13439809,0.4689298,0.17836407,1.3281738,0.9753991,2.941469,-2.5219183,8.001037,5.0852194,0,1683969557.1535091
-0.13439809,0.4689298,0.17836407,1.3281738,0.9753991,2.941469,-2.3512988,8.128459,4.9634314,0,1683969557.1586404
-0.16080207,0.4466724,0.18312044,1.3281738,0.9753991,2.941469,-2.3512988,8.128459,4.9634314,0,1683969557.1637948
-0.16080207,0.4466724,0.18312044,1.151481,0.9239337,2.9955304,-2.3512988,8.128459,4.9634314,0,1683969557.1740549
-0.16080207,0.4466724,0.18312044,-0.8145888,0.49449542,2.5961773,-2.3512988,8.128459,4.9634314,0,1683969557.1946633
-0.16080207,0.4466724,0.18312044,-0.8145888,0.49449542,2.5961773,0.89646095,8.746178,4.351648,0,1683969557.1997674
0.33264136,0.81657207,0.25861263,-0.8145888,0.49449542,2.5961773,0.89646095,8.746178,4.351648,0,1683969557.2048728
0.4665516,0.9314568,0.336544,-0.8145888,0.49449542,2.5961773,0.89646095,8.746178,4.351648,0,1683969557.209977
0.4665516,0.9314568,0.336544,-0.8145888,0.49449542,2.5961773,1.0905049,8.691817,4.4157906,0,1683969557.2201903
0.4665516,0.9314568,0.336544,-0.6627888,0.16279559,2.543643,1.0905049,8.691817,4.4157906,0,1683969557.2354865
0.4665516,0.9314568,0.336544,-0.6627888,0.16279559,2.543643,1.3928977,8.611328,4.4878693,0,1683969557.2660367
0.64772075,1.0914661,0.41319484,-0.6627888,0.16279559,2.543643,1.3928977,8.611328,4.4878693,0,1683969557.2711291
0.64772075,1.0914661,0.41319484,-0.43401974,-0.16035213,2.3550382,1.3928977,8.611328,4.4878693,0,1683969557.276227
0.64772075,1.0914661,0.41319484,-0.43401974,-0.16035213,2.3550382,1.5887833,8.566922,4.5077424,0,1683969557.296602
0.64772075,1.0914661,0.41319484,-0.15806139,-0.4343252,2.0566306,1.5887833,8.566922,4.5077424,0,1683969557.3017044
0.7218714,1.1775078,0.46667355,-0.15806139,-0.4343252,2.0566306,1.5887833,8.566922,4.5077424,0,1683969557.3119025
0.7218714,1.1775078,0.46667355,0.10354166,-0.6107125,1.6526959,1.5887833,8.566922,4.5077424,0,1683969557.3220804
0.714188,1.2163515,0.49801686,0.10354166,-0.6107125,1.6526959,1.5887833,8.566922,4.5077424,0,1683969557.3373942
0.714188,1.2163515,0.49801686,0.10354166,-0.6107125,1.6526959,1.7683594,8.534031,4.503259,0,1683969557.347711
0.6649168,1.1872034,0.50118774,0.10354166,-0.6107125,1.6526959,1.7683594,8.534031,4.503259,0,1683969557.3631952
0.6649168,1.1872034,0.50118774,0.1518,-0.55481833,1.4025466,1.9271488,8.510613,4.482373,0,1683969557.3684149
0.6649168,1.1872034,0.50118774,0.070554934,-0.34972036,1.2950343,2.0633788,8.490641,4.4595513,0,1683969557.3736382
0.6097917,1.1372005,0.5053344,0.070554934,-0.34972036,1.2950343,2.0633788,8.490641,4.4595513,0,1683969557.3890774
0.6097917,1.1372005,0.5053344,-0.19425514,0.44638976,1.3518448,2.0633788,8.490641,4.4595513,0,1683969557.4095902
0.77967966,1.2553781,0.5389339,-0.19425514,0.44638976,1.3518448,2.0633788,8.490641,4.4595513,0,1683969557.414745
0.77967966,1.2553781,0.5389339,-0.19425514,0.44638976,1.3518448,2.4421935,8.380963,4.4756308,0,1683969557.4250472
0.18263261,0.646928,0.30026144,-0.19425514,0.44638976,1.3518448,2.4421935,8.380963,4.4756308,0,1683969557.4301775
0.18263261,0.646928,0.30026144,-0.19425514,0.44638976,1.3518448,-0.75791526,8.585526,4.685126,0,1683969557.4352913
0.12561709,0.60466945,0.29428545,-0.9092729,-0.29260445,-3.67466,-0.75791526,8.585526,4.685126,0,1683969557.4456892
0.07896802,0.5753994,0.27032065,-0.91706145,-0.38728857,-3.7218492,-1.5438179,8.355226,4.90336,0,1683969557.4509711
0.07896802,0.5753994,0.27032065,-0.9653198,-0.46395215,-3.7522397,-1.5438179,8.355226,4.90336,0,1683969557.4561012
0.038172957,0.5476539,0.25275865,-0.9653198,-0.46395215,-3.7522397,-1.5438179,8.355226,4.90336,0,1683969557.4715605
-0.025489293,0.49460202,0.22684251,-0.9653198,-0.46395215,-3.7522397,-1.5438179,8.355226,4.90336,0,1683969557.497308
-0.025489293,0.49460202,0.22684251,-1.0615311,-0.53969944,-3.7707183,-1.5438179,8.355226,4.90336,0,1683969557.5024416
-0.025489293,0.49460202,0.22684251,-1.0615311,-0.53969944,-3.7707183,-1.801583,8.256482,4.9820585,0,1683969557.507589
-0.025489293,0.49460202,0.22684251,-1.0615311,-0.53969944,-3.7707183,-2.1797464,8.080496,5.117656,0,1683969557.5179014
-0.025489293,0.49460202,0.22684251,-1.2021828,-0.58368176,-3.7737727,-2.1797464,8.080496,5.117656,0,1683969557.5384858
-0.08872469,0.436062,0.26684484,-1.2021828,-0.58368176,-3.7737727,-2.1797464,8.080496,5.117656,0,1683969557.543638
-0.15214302,0.37855867,0.3237384,-1.2021828,-0.58368176,-3.7737727,-2.1797464,8.080496,5.117656,0,1683969557.5487897
-0.15214302,0.37855867,0.3237384,-1.2021828,-0.58368176,-3.7737727,-2.425733,7.94338,5.2205977,0,1683969557.5693889
-0.15214302,0.37855867,0.3237384,-1.3017539,-0.62109727,-3.719253,-2.425733,7.94338,5.2205977,0,1683969557.5745466
-0.18013246,0.34056866,0.40990198,-1.3017539,-0.62109727,-3.719253,-2.425733,7.94338,5.2205977,0,1683969557.6002693
-0.18013246,0.34056866,0.40990198,-1.3364204,-0.65668017,-3.646102,-2.425733,7.94338,5.2205977,0,1683969557.6105812
-0.18013246,0.34056866,0.40990198,-0.40424007,-0.92072666,-1.2009611,-2.425733,7.94338,5.2205977,0,1683969557.6362934
-0.831085,0.23726994,0.8852955,-0.40424007,-0.92072666,-1.2009611,-2.425733,7.94338,5.2205977,0,1683969557.6414504
-0.831085,0.23726994,0.8852955,-0.40424007,-0.92072666,-1.2009611,-4.4906473,5.2539024,6.961804,0,1683969557.646622
-0.8229139,0.2827604,0.89249104,-0.40424007,-0.92072666,-1.2009611,-4.4906473,5.2539024,6.961804,0,1683969557.6620483
-0.8229139,0.2827604,0.89249104,-0.4269948,-0.9633345,-1.0764973,-4.4906473,5.2539024,6.961804,0,1683969557.667215
-0.8229139,0.2827604,0.89249104,-0.4269948,-0.9633345,-1.0764973,-4.494653,5.171842,7.0204167,0,1683969557.682665
-0.8243164,0.29385862,0.9956069,-0.4269948,-0.9633345,-1.0764973,-4.494653,5.171842,7.0204167,0,1683969557.6878629
-0.8243164,0.29385862,0.9956069,-0.4269948,-0.9633345,-1.0764973,-4.480887,5.0559425,7.1130304,0,1683969557.7032824
-0.8243164,0.29385862,0.9956069,-0.42852196,-1.0403035,-0.97600996,-4.480887,5.0559425,7.1130304,0,1683969557.7187245
-0.8327925,0.28251648,1.0711601,-0.42852196,-1.0403035,-0.97600996,-4.480887,5.0559425,7.1130304,0,1683969557.7238712
-0.8327925,0.28251648,1.0711601,-0.38606682,-1.0422888,-0.91721416,-4.480887,5.0559425,7.1130304,0,1683969557.74443
-0.8327925,0.28251648,1.0711601,-0.38606682,-1.0422888,-0.91721416,-4.4718065,5.018985,7.1448474,0,1683969557.7495852
-0.8594404,0.24653877,1.1654949,-0.38606682,-1.0422888,-0.91721416,-4.4718065,5.018985,7.1448474,0,1683969557.7701817
-0.8594404,0.24653877,1.1654949,-0.2574797,-0.9940305,-0.79351395,-4.4718065,5.018985,7.1448474,0,1683969557.785607
-0.8594404,0.24653877,1.1654949,-0.2574797,-0.9940305,-0.79351395,-4.437375,4.9192686,7.2350965,0,1683969557.7907584
-0.8594404,0.24653877,1.1654949,-0.0842994,-0.88025683,-0.6088799,-4.437375,4.9192686,7.2350965,0,1683969557.8113194
-0.8877957,0.19214535,1.2419627,-0.0842994,-0.88025683,-0.6088799,-4.437375,4.9192686,7.2350965,0,1683969557.8164756
-0.8877957,0.19214535,1.2419627,-0.0842994,-0.88025683,-0.6088799,-4.4108653,4.867111,7.286399,0,1683969557.8216345
-0.8877957,0.19214535,1.2419627,-0.0842994,-0.88025683,-0.6088799,-4.384041,4.829669,7.3273864,0,1683969557.8371043
-0.8877957,0.19214535,1.2419627,0.07192938,-0.6815729,-0.3576616,-4.384041,4.829669,7.3273864,0,1683969557.8473694
-0.9149315,0.15830192,1.2758061,0.07192938,-0.6815729,-0.3576616,-4.384041,4.829669,7.3273864,0,1683969557.8627787
-0.9223709,0.12500729,1.2951975,0.07192938,-0.6815729,-0.3576616,-4.384041,4.829669,7.3273864,0,1683969557.8730736
-0.9223709,0.12500729,1.2951975,0.07192938,-0.6815729,-0.3576616,-4.3470383,4.8035364,7.366506,0,1683969557.8833418
-0.113299295,0.33331212,0.36044785,0.07192938,-0.6815729,-0.3576616,-4.3470383,4.8035364,7.366506,0,1683969557.9039326
-0.113299295,0.33331212,0.36044785,0.07192938,-0.6815729,-0.3576616,-2.4157073,7.913337,5.270633,0,1683969557.9142358
-0.113299295,0.33331212,0.36044785,1.5748106,0.95524055,3.8518107,-2.4157073,7.913337,5.270633,0,1683969557.9193494
-0.113299295,0.33331212,0.36044785,1.5748106,0.95524055,3.8518107,-2.179858,8.064944,5.142082,0,1683969557.9451067
-0.113299295,0.33331212,0.36044785,1.5311338,0.9944886,3.9318342,-2.179858,8.064944,5.142082,0,1683969557.9502604
-0.07854117,0.3096522,0.35392308,1.5311338,0.9944886,3.9318342,-2.179858,8.064944,5.142082,0,1683969557.955375
-0.07854117,0.3096522,0.35392308,1.4393512,1.0494665,4.0286565,-2.179858,8.064944,5.142082,0,1683969557.9810975
-0.07854117,0.3096522,0.35392308,1.4393512,1.0494665,4.0286565,-1.9331782,8.205637,5.0166187,0,1683969557.9862363
-0.0048783333,0.37008256,0.29263905,1.4393512,1.0494665,4.0286565,-1.9331782,8.205637,5.0166187,0,1683969557.9964948
-0.0048783333,0.37008256,0.29263905,1.3023647,1.0763446,3.9765801,-1.9331782,8.205637,5.0166187,0,1683969558.0068064
0.09799352,0.47710103,0.24019694,1.3023647,1.0763446,3.9765801,-1.9331782,8.205637,5.0166187,0,1683969558.0119655
0.09799352,0.47710103,0.24019694,1.3023647,1.0763446,3.9765801,-1.5404482,8.396254,4.8338428,0,1683969558.0171146
0.09799352,0.47710103,0.24019694,1.3023647,1.0763446,3.9765801,-1.2759628,8.503275,4.722534,0,1683969558.0478697
0.15348457,0.55344695,0.18366925,1.3023647,1.0763446,3.9765801,-1.2759628,8.503275,4.722534,0,1683969558.0530014
0.15348457,0.55344695,0.18366925,1.1074986,1.0729848,3.8266127,-1.2759628,8.503275,4.722534,0,1683969558.0632594
0.15348457,0.55344695,0.18366925,1.1074986,1.0729848,3.8266127,-1.0187222,8.589782,4.627523,0,1683969558.0890012
0.18915738,0.5907662,0.17458336,1.1074986,1.0729848,3.8266127,-1.0187222,8.589782,4.627523,0,1683969558.0941498
0.18915738,0.5907662,0.17458336,0.81016004,1.0661125,3.602883,-1.0187222,8.589782,4.627523,0,1683969558.1044078
0.18915738,0.5907662,0.17458336,0.5539021,1.1076514,3.4365752,-1.0187222,8.589782,4.627523,0,1683969558.1095245
0.18415709,0.585522,0.19391376,0.5539021,1.1076514,3.4365752,-1.0187222,8.589782,4.627523,0,1683969558.1146379
0.18415709,0.585522,0.19391376,0.5539021,1.1076514,3.4365752,-0.77244735,8.654809,4.5534286,0,1683969558.1403525
0.19403571,0.567838,0.23666015,0.5539021,1.1076514,3.4365752,-0.77244735,8.654809,4.5534286,0,1683969558.1556578
0.19403571,0.567838,0.23666015,0.5539021,1.1076514,3.4365752,-0.53879845,8.699282,4.502033,0,1683969558.1608117
0.19403571,0.567838,0.23666015,0.3115413,1.1887437,3.334866,-0.53879845,8.699282,4.502033,0,1683969558.1659667
0.19403571,0.567838,0.23666015,0.38347065,0.08460484,0.59315014,-0.53879845,8.699282,4.502033,0,1683969558.1814177
1.0973201,1.4679515,0.47728392,0.38347065,0.08460484,0.59315014,-0.53879845,8.699282,4.502033,0,1683969558.1865788
1.0973201,1.4679515,0.47728392,0.38347065,0.08460484,0.59315014,2.7938473,8.248636,4.515588,0,1683969558.191762
1.0973201,1.4679515,0.47728392,0.4914411,0.09636399,0.26313022,2.7938473,8.248636,4.515588,0,1683969558.212347
1.0973201,1.4679515,0.47728392,0.4914411,0.09636399,0.26313022,2.8648784,8.249903,4.468523,0,1683969558.2174952
1.1121382,1.4678905,0.4522215,0.4914411,0.09636399,0.26313022,2.8648784,8.249903,4.468523,0,1683969558.2226446
1.1275657,1.4774643,0.41691455,0.4914411,0.09636399,0.26313022,2.8648784,8.249903,4.468523,0,1683969558.2380974
1.1275657,1.4774643,0.41691455,0.4914411,0.09636399,0.26313022,2.8872263,8.263193,4.429411,0,1683969558.2483087
1.1275657,1.4774643,0.41691455,0.49388456,0.1863139,0.035888333,2.8872263,8.263193,4.429411,0,1683969558.2534394
1.1275657,1.4774643,0.41691455,0.49388456,0.1863139,0.035888333,2.881943,8.293363,4.3761473,0,1683969558.273985
1.1275657,1.4774643,0.41691455,0.42424592,0.33551773,-0.25809056,2.881943,8.293363,4.3761473,0,1683969558.294584
1.1640923,1.5146006,0.36861908,0.42424592,0.33551773,-0.25809056,2.881943,8.293363,4.3761473,0,1683969558.2997334
1.1640923,1.5146006,0.36861908,0.33536503,0.42821655,-0.5542075,2.881943,8.293363,4.3761473,0,1683969558.315176
1.191228,1.5459439,0.32507995,0.33536503,0.42821655,-0.5542075,2.881943,8.293363,4.3761473,0,1683969558.3306262
1.191228,1.5459439,0.32507995,0.33536503,0.42821655,-0.5542075,2.849339,8.318434,4.3498335,0,1683969558.335733
1.1944599,1.5599082,0.29361472,0.33536503,0.42821655,-0.5542075,2.849339,8.318434,4.3498335,0,1683969558.3459902
1.1944599,1.5599082,0.29361472,0.22403483,0.4578435,-0.91858864,2.849339,8.318434,4.3498335,0,1683969558.3562412
1.1944599,1.5599082,0.29361472,0.22403483,0.4578435,-0.91858864,2.7899518,8.347701,4.3322263,0,1683969558.3613808
1.1944599,1.5599082,0.29361472,0.09941832,0.4167628,-1.4118623,2.7899518,8.347701,4.3322263,0,1683969558.3819804
1.1334808,1.5127712,0.29532212,0.09941832,0.4167628,-1.4118623,2.7899518,8.347701,4.3322263,0,1683969558.3974292
1.1334808,1.5127712,0.29532212,0.09941832,0.4167628,-1.4118623,2.7013524,8.381841,4.3224473,0,1683969558.407692
1.0402436,1.4158143,0.30812773,0.09941832,0.4167628,-1.4118623,2.7013524,8.381841,4.3224473,0,1683969558.4231434
1.0402436,1.4158143,0.30812773,-0.0067195175,0.39736784,-1.762499,2.7013524,8.381841,4.3224473,0,1683969558.4334505
1.0402436,1.4158143,0.30812773,-0.0067195175,0.39736784,-1.762499,2.5841842,8.420323,4.31929,0,1683969558.443765
0.8199868,1.2169613,0.34556895,-0.0067195175,0.39736784,-1.762499,2.5841842,8.420323,4.31929,0,1683969558.4540727
0.8199868,1.2169613,0.34556895,-0.2490803,0.41554108,-2.3289237,2.5841842,8.420323,4.31929,0,1683969558.4643574
0.8199868,1.2169613,0.34556895,-0.2490803,0.41554108,-2.3289237,2.1863492,8.517939,4.3474936,0,1683969558.4746552
0.75553185,1.1568358,0.35892338,-0.2490803,0.41554108,-2.3289237,2.1863492,8.517939,4.3474936,0,1683969558.4849389
0.75553185,1.1568358,0.35892338,-0.3089451,0.40698898,-2.4486532,2.1863492,8.517939,4.3474936,0,1683969558.500358
0.75553185,1.1568358,0.35892338,-0.3089451,0.40698898,-2.4486532,1.9971128,8.551743,4.3721094,0,1683969558.5055177
0.75553185,1.1568358,0.35892338,-0.3089451,0.40698898,-2.4486532,1.795632,8.582355,4.399432,0,1683969558.5158155
0.7344941,1.1374444,0.36953375,-0.3089451,0.40698898,-2.4486532,1.795632,8.582355,4.399432,0,1683969558.5312047
0.7344941,1.1374444,0.36953375,-0.31963524,0.35094208,-2.6229026,1.795632,8.582355,4.399432,0,1683969558.5363228
0.7344941,1.1374444,0.36953375,-0.2454151,0.19700404,-2.9035952,1.795632,8.582355,4.399432,0,1683969558.5723069
0.7007726,1.1030521,0.37861964,-0.2454151,0.19700404,-2.9035952,1.795632,8.582355,4.399432,0,1683969558.5774686
0.7007726,1.1030521,0.37861964,-0.2454151,0.19700404,-2.9035952,1.5823736,8.611586,4.4241166,0,1683969558.582625
0.7007726,1.1030521,0.37861964,-0.1330159,0.01985312,-3.1972687,1.5823736,8.611586,4.4241166,0,1683969558.5929356
0.7007726,1.1030521,0.37861964,-0.1330159,0.01985312,-3.1972687,1.3551016,8.64125,4.441691,0,1683969558.608336
0.6588799,1.0554883,0.37508285,-0.1330159,0.01985312,-3.1972687,1.3551016,8.64125,4.441691,0,1683969558.613466
0.6588799,1.0554883,0.37508285,-0.1330159,0.01985312,-3.1972687,0.9911338,8.684975,4.452525,0,1683969558.6237595
0.6588799,1.0554883,0.37508285,-0.084146686,-0.11438452,-3.3939674,0.9911338,8.684975,4.452525,0,1683969558.6494935
0.5812534,0.9762155,0.33270234,-0.084146686,-0.11438452,-3.3939674,0.9911338,8.684975,4.452525,0,1683969558.6546478
0.5812534,0.9762155,0.33270234,-0.11178834,-0.20723604,-3.552334,0.9911338,8.684975,4.452525,0,1683969558.6649425
0.52399397,0.9140168,0.29965162,-0.11178834,-0.20723604,-3.552334,0.9911338,8.684975,4.452525,0,1683969558.6752005
0.52399397,0.9140168,0.29965162,-0.11178834,-0.20723604,-3.552334,0.7353076,8.709115,4.4549713,0,1683969558.6906865
0.52399397,0.9140168,0.29965162,-0.24755314,-0.2554944,-3.6980255,0.7353076,8.709115,4.4549713,0,1683969558.6958046
0.4486847,0.83962214,0.27080846,-0.24755314,-0.2554944,-3.6980255,0.7353076,8.709115,4.4549713,0,1683969558.706103
0.4486847,0.83962214,0.27080846,-0.24755314,-0.2554944,-3.6980255,0.47084326,8.724029,4.461586,0,1683969558.7112222
-0.8703556,0.07469948,1.2797087,-0.24755314,-0.2554944,-3.6980255,0.47084326,8.724029,4.461586,0,1683969558.7215164
-0.8703556,0.07469948,1.2797087,-0.571159,-1.2719742,-0.9025534,0.47084326,8.724029,4.461586,0,1683969558.7318153
-0.8703556,0.07469948,1.2797087,-0.571159,-1.2719742,-0.9025534,-4.660374,3.986654,7.6566057,0,1683969558.7369235
-0.8703556,0.07469948,1.2797087,-0.46410486,-1.1305588,-0.75869465,-4.660374,3.986654,7.6566057,0,1683969558.7678084
-0.90236974,0.049393125,1.3705678,-0.46410486,-1.1305588,-0.75869465,-4.660374,3.986654,7.6566057,0,1683969558.772952
-0.90236974,0.049393125,1.3705678,-0.46410486,-1.1305588,-0.75869465,-4.608222,3.9040825,7.7303643,0,1683969558.7781038
-0.9207245,0.028660208,1.4112408,-0.46410486,-1.1305588,-0.75869465,-4.608222,3.9040825,7.7303643,0,1683969558.79865
-0.9207245,0.028660208,1.4112408,-0.3555236,-1.0015136,-0.624457,-4.608222,3.9040825,7.7303643,0,1683969558.808902
-0.9207245,0.028660208,1.4112408,-0.3555236,-1.0015136,-0.624457,-4.583637,3.8682392,7.762931,0,1683969558.8140516
-0.9317616,0.008476105,1.4427061,-0.3555236,-1.0015136,-0.624457,-4.583637,3.8682392,7.762931,0,1683969558.844941
-0.9317616,0.008476105,1.4427061,-0.16768251,-0.77686787,-0.36835176,-4.583637,3.8682392,7.762931,0,1683969558.8500903
-0.9317616,0.008476105,1.4427061,-0.16768251,-0.77686787,-0.36835176,-4.5168567,3.7877207,7.841383,0,1683969558.8552048
-0.9317616,0.008476105,1.4427061,-0.16768251,-0.77686787,-0.36835176,-4.4790993,3.757573,7.877464,0,1683969558.8860805
-0.92840785,0.00951275,1.4562435,-0.16768251,-0.77686787,-0.36835176,-4.4790993,3.757573,7.877464,0,1683969558.8911579
-0.92840785,0.00951275,1.4562435,-0.006872234,-0.54000485,-0.10629055,-4.4790993,3.757573,7.877464,0,1683969558.8963034
-0.922188,-0.000121958336,1.4669758,-0.006872234,-0.54000485,-0.10629055,-4.4790993,3.757573,7.877464,0,1683969558.9117687
-0.922188,-0.000121958336,1.4669758,0.14370605,-0.2518292,0.16401732,-4.4790993,3.757573,7.877464,0,1683969558.9272192
-0.922188,-0.000121958336,1.4669758,0.14370605,-0.2518292,0.16401732,-4.4479413,3.7450745,7.901035,0,1683969558.932375
-0.922188,-0.000121958336,1.4669758,0.14370605,-0.2518292,0.16401732,-4.417801,3.75903,7.911311,0,1683969558.9478242
-0.90438205,0.0042075627,1.4457551,0.14370605,-0.2518292,0.16401732,-4.417801,3.75903,7.911311,0,1683969558.952979
-0.90438205,0.0042075627,1.4457551,0.2779437,-0.021533,0.3894266,-4.417801,3.75903,7.911311,0,1683969558.958127
-0.90438205,0.0042075627,1.4457551,0.2779437,-0.021533,0.3894266,-4.4081,3.7920303,7.9009666,0,1683969558.9837987
-0.90438205,0.0042075627,1.4457551,0.2779437,-0.021533,0.3894266,-0.92920125,8.392978,4.993058,0,1683969559.0095026
0.1094576,0.43276918,0.27379647,0.2779437,-0.021533,0.3894266,-0.92920125,8.392978,4.993058,0,1683969559.0146575
0.1094576,0.43276918,0.27379647,1.7127135,0.69027776,3.9648209,-0.92920125,8.392978,4.993058,0,1683969559.019761
0.1094576,0.43276918,0.27379647,1.7127135,0.69027776,3.9648209,-0.6503738,8.495219,4.86255,0,1683969559.0403495
0.08781,0.38801044,0.24428254,1.7127135,0.69027776,3.9648209,-0.6503738,8.495219,4.86255,0,1683969559.0454957
0.08781,0.38801044,0.24428254,1.459968,0.8739954,4.028351,-0.6503738,8.495219,4.86255,0,1683969559.066093
0.09970094,0.357033,0.234221,1.459968,0.8739954,4.028351,-0.6503738,8.495219,4.86255,0,1683969559.076332
0.09970094,0.357033,0.234221,1.459968,0.8739954,4.028351,-0.36863774,8.576404,4.7482123,0,1683969559.0917776
0.09970094,0.357033,0.234221,1.3089315,0.9763154,4.1344886,-0.36863774,8.576404,4.7482123,0,1683969559.1020837
0.09970094,0.357033,0.234221,1.1146764,1.0554224,4.3256893,-0.36863774,8.576404,4.7482123,0,1683969559.1277885
0.09970094,0.357033,0.234221,1.1146764,1.0554224,4.3256893,-0.07447248,8.637565,4.6500583,0,1683969559.1329236
0.21482961,0.40575537,0.23379412,1.1146764,1.0554224,4.3256893,-0.07447248,8.637565,4.6500583,0,1683969559.1380682
0.21482961,0.40575537,0.23379412,1.1146764,1.0554224,4.3256893,0.23398453,8.680683,4.5636735,0,1683969559.1483529
0.41203624,0.55741054,0.2742843,1.1146764,1.0554224,4.3256893,0.23398453,8.680683,4.5636735,0,1683969559.1638048
0.41203624,0.55741054,0.2742843,1.0488557,0.9984592,4.315763,0.23398453,8.680683,4.5636735,0,1683969559.1741054
0.41203624,0.55741054,0.2742843,1.1015427,0.9204212,4.063934,0.23398453,8.680683,4.5636735,0,1683969559.184353
0.41203624,0.55741054,0.2742843,1.1015427,0.9204212,4.063934,0.7009078,8.718138,4.442848,0,1683969559.189529
0.5803387,0.7264448,0.31788442,1.1015427,0.9204212,4.063934,0.7009078,8.718138,4.442848,0,1683969559.1947033
0.68772304,0.9010892,0.34562993,1.1015427,0.9204212,4.063934,0.7009078,8.718138,4.442848,0,1683969559.2152174
0.68772304,0.9010892,0.34562993,1.2687671,0.7609854,3.4752123,0.7009078,8.718138,4.442848,0,1683969559.2306013
0.68772304,0.9010892,0.34562993,1.2687671,0.7609854,3.4752123,0.98963016,8.733501,4.356912,0,1683969559.2460325
0.68772304,0.9010892,0.34562993,1.3840679,0.63087106,2.944676,0.98963016,8.733501,4.356912,0,1683969559.2614758
0.6697342,0.93340814,0.3314218,1.3840679,0.63087106,2.944676,0.98963016,8.733501,4.356912,0,1683969559.266622
0.6697342,0.93340814,0.3314218,1.3840679,0.63087106,2.944676,1.2445995,8.748567,4.2602434,0,1683969559.271773
0.6697342,0.93340814,0.3314218,0.763887,0.18463401,0.6180429,1.2445995,8.748567,4.2602434,0,1683969559.282088
1.2453165,1.4628292,0.1885476,0.763887,0.18463401,0.6180429,1.2445995,8.748567,4.2602434,0,1683969559.287204
1.2453165,1.4628292,0.1885476,0.763887,0.18463401,0.6180429,3.2815301,8.50067,3.6340456,0,1683969559.2923446
1.299588,1.510332,0.17324181,0.763887,0.18463401,0.6180429,3.2815301,8.50067,3.6340456,0,1683969559.3129215
1.299588,1.510332,0.17324181,0.7086037,0.25030205,0.26251933,3.2815301,8.50067,3.6340456,0,1683969559.3386483
1.299588,1.510332,0.17324181,0.7086037,0.25030205,0.26251933,3.3246398,8.508672,3.5756679,0,1683969559.3437998
1.299588,1.510332,0.17324181,0.6104071,0.3266602,-0.08368854,3.3246398,8.508672,3.5756679,0,1683969559.3695085
1.3232479,1.5586275,0.13744704,0.6104071,0.3266602,-0.08368854,3.3246398,8.508672,3.5756679,0,1683969559.3746402
1.3232479,1.5586275,0.13744704,0.6104071,0.3266602,-0.08368854,3.3431733,8.523396,3.5229306,0,1683969559.379789
1.3232479,1.5586275,0.13744704,0.46960264,0.41355577,-0.47891834,3.3431733,8.523396,3.5229306,0,1683969559.3952239
1.3232479,1.5586275,0.13744704,0.46960264,0.41355577,-0.47891834,3.3320153,8.545398,3.4799361,0,1683969559.4003417
1.3064177,1.5743603,0.10049367,0.46960264,0.41355577,-0.47891834,3.3320153,8.545398,3.4799361,0,1683969559.4106646
1.3064177,1.5743603,0.10049367,0.25030205,0.49571714,-1.0027353,3.3320153,8.545398,3.4799361,0,1683969559.4414577
1.2521462,1.5547248,0.056649648,0.25030205,0.49571714,-1.0027353,3.3320153,8.545398,3.4799361,0,1683969559.4466069
1.2521462,1.5547248,0.056649648,0.25030205,0.49571714,-1.0027353,3.2874136,8.574777,3.4499621,0,1683969559.4517698
1.2521462,1.5547248,0.056649648,0.048563786,0.52564955,-1.4138476,3.2874136,8.574777,3.4499621,0,1683969559.4620843
1.2521462,1.5547248,0.056649648,0.048563786,0.52564955,-1.4138476,3.1552935,8.63098,3.433136,0,1683969559.4775202
1.1733003,1.5045999,0.03744121,0.048563786,0.52564955,-1.4138476,3.1552935,8.63098,3.433136,0,1683969559.4877937
1.0546957,1.3944715,0.05256404,0.048563786,0.52564955,-1.4138476,3.1552935,8.63098,3.433136,0,1683969559.5032113
1.0546957,1.3944715,0.05256404,0.048563786,0.52564955,-1.4138476,3.0262628,8.673616,3.4418373,0,1683969559.5135102
1.0546957,1.3944715,0.05256404,-0.20525073,0.53038377,-1.8680259,3.0262628,8.673616,3.4418373,0,1683969559.5238042
1.0546957,1.3944715,0.05256404,-0.20525073,0.53038377,-1.8680259,2.868857,8.717398,3.4659414,0,1683969559.5443532
1.0546957,1.3944715,0.05256404,-0.3746131,0.5340489,-2.1531472,2.868857,8.717398,3.4659414,0,1683969559.5546517
1.0546957,1.3944715,0.05256404,-0.3746131,0.5340489,-2.1531472,-4.036604,6.875603,5.715594,0,1683969559.575235
-0.4004502,0.14445965,0.28660208,-0.3746131,0.5340489,-2.1531472,-4.036604,6.875603,5.715594,0,1683969559.5803447
-0.4004502,0.14445965,0.28660208,-1.8626808,-1.249983,-3.602425,-4.036604,6.875603,5.715594,0,1683969559.5854418
-0.4004502,0.14445965,0.28660208,-1.9622519,-1.3741413,-3.4694092,-4.036604,6.875603,5.715594,0,1683969559.611167
-0.39081547,0.16196068,0.29727346,-1.9622519,-1.3741413,-3.4694092,-4.036604,6.875603,5.715594,0,1683969559.6163182
-0.39081547,0.16196068,0.29727346,-1.9622519,-1.3741413,-3.4694092,-4.1981473,6.6351547,5.8810196,0,1683969559.6214688
-0.39081547,0.16196068,0.29727346,-2.0257819,-1.4604261,-3.4266486,-4.1981473,6.6351547,5.8810196,0,1683969559.6317892
-0.39081547,0.16196068,0.29727346,-2.0257819,-1.4604261,-3.4266486,-4.3377337,6.386155,6.052867,0,1683969559.6369476
-0.43154958,0.14915505,0.38179058,-2.0257819,-1.4604261,-3.4266486,-4.3377337,6.386155,6.052867,0,1683969559.6420603
-0.50856626,0.08549279,0.48807728,-2.0257819,-1.4604261,-3.4266486,-4.3377337,6.386155,6.052867,0,1683969559.6832047
-0.50856626,0.08549279,0.48807728,-2.0297525,-1.5619824,-3.3249395,-4.3377337,6.386155,6.052867,0,1683969559.6883807
-0.50856626,0.08549279,0.48807728,-2.0297525,-1.5619824,-3.3249395,-4.459029,6.127395,6.229623,0,1683969559.6935415
-0.5730822,0.046892982,0.5575325,-2.0297525,-1.5619824,-3.3249395,-4.459029,6.127395,6.229623,0,1683969559.7191696
-0.5730822,0.046892982,0.5575325,-2.0297525,-1.5619824,-3.3249395,-4.602469,5.7318363,6.49611,0,1683969559.7243252
-0.5730822,0.046892982,0.5575325,-1.967597,-1.6934712,-3.175125,-4.602469,5.7318363,6.49611,0,1683969559.729485
-0.66095316,0.005061271,0.676259,-1.967597,-1.6934712,-3.175125,-4.602469,5.7318363,6.49611,0,1683969559.744896
-0.66095316,0.005061271,0.676259,-1.8299996,-1.8803959,-2.930626,-4.602469,5.7318363,6.49611,0,1683969559.755201
-0.66095316,0.005061271,0.676259,-1.8299996,-1.8803959,-2.930626,-4.6652675,5.4734917,6.6717525,0,1683969559.7603545
-0.7326037,-0.02859923,0.78199685,-1.8299996,-1.8803959,-2.930626,-4.6652675,5.4734917,6.6717525,0,1683969559.7809772
-0.7326037,-0.02859923,0.78199685,-1.6607898,-2.0486894,-2.6678011,-4.6652675,5.4734917,6.6717525,0,1683969559.7861307
-0.7326037,-0.02859923,0.78199685,-1.6607898,-2.0486894,-2.6678011,-4.6979985,5.22656,6.844559,0,1683969559.7963574
-0.7326037,-0.02859923,0.78199685,-1.6607898,-2.0486894,-2.6678011,-4.702173,5.1095505,6.929515,0,1683969559.8272188
-0.7326037,-0.02859923,0.78199685,-1.3672692,-2.2424862,-2.2785273,-4.702173,5.1095505,6.929515,0,1683969559.8323686
-0.7777283,-0.033965394,0.9192609,-1.3672692,-2.2424862,-2.2785273,-4.702173,5.1095505,6.929515,0,1683969559.8375258
-0.55838627,0.098603316,0.7734598,-1.3672692,-2.2424862,-2.2785273,-4.702173,5.1095505,6.929515,0,1683969559.8478217
-0.55838627,0.098603316,0.7734598,1.626276,1.3277156,2.958573,-4.702173,5.1095505,6.929515,0,1683969559.8581164
-0.55838627,0.098603316,0.7734598,1.626276,1.3277156,2.958573,-3.9765127,5.519917,7.067813,0,1683969559.8735163
-0.55838627,0.098603316,0.7734598,1.626276,1.3277156,2.958573,-3.9152315,5.719985,6.941819,0,1683969559.8838203
-0.55838627,0.098603316,0.7734598,1.6320792,1.3639094,3.1132748,-3.9152315,5.719985,6.941819,0,1683969559.8889773
-0.5179571,0.112567544,0.72327393,1.6320792,1.3639094,3.1132748,-3.9152315,5.719985,6.941819,0,1683969559.8992662
-0.47142997,0.134642,0.64503765,1.6320792,1.3639094,3.1132748,-3.9152315,5.719985,6.941819,0,1683969559.9301896
-0.47142997,0.134642,0.64503765,1.6384933,1.4031575,3.3657148,-3.9152315,5.719985,6.941819,0,1683969559.9353147
-0.47142997,0.134642,0.64503765,1.6384933,1.4031575,3.3657148,-3.8389394,5.924238,6.811906,0,1683969559.9404256
-0.409658,0.16976601,0.559118,1.6384933,1.4031575,3.3657148,-3.8389394,5.924238,6.811906,0,1683969559.9507349
-0.409658,0.16976601,0.559118,1.6355917,1.3941472,3.5950947,-3.8389394,5.924238,6.811906,0,1683969559.9661634
-0.409658,0.16976601,0.559118,1.6355917,1.3941472,3.5950947,-3.6922665,6.2363997,6.6113997,0,1683969559.9712753
-0.409658,0.16976601,0.559118,1.6174184,1.3051136,3.7917933,-3.6922665,6.2363997,6.6113997,0,1683969559.9969459
-0.409658,0.16976601,0.559118,1.6174184,1.3051136,3.7917933,-3.5697262,6.44561,6.476672,0,1683969560.0072212
-0.34611776,0.20397532,0.4843575,1.6174184,1.3051136,3.7917933,-3.5697262,6.44561,6.476672,0,1683969560.017524
-0.34611776,0.20397532,0.4843575,1.6169603,1.2000448,3.9191587,-3.5697262,6.44561,6.476672,0,1683969560.0431929
-0.34611776,0.20397532,0.4843575,1.6169603,1.2000448,3.9191587,-3.4245768,6.6532955,6.343661,0,1683969560.048342
-0.29702953,0.21318316,0.45508754,1.6169603,1.2000448,3.9191587,-3.4245768,6.6532955,6.343661,0,1683969560.0534945
-0.29702953,0.21318316,0.45508754,1.6169603,1.2000448,3.9191587,-3.255553,6.858082,6.2132273,0,1683969560.0688927
-0.29702953,0.21318316,0.45508754,1.6522378,1.0768027,4.0370555,-3.255553,6.858082,6.2132273,0,1683969560.074042
-0.23983108,0.22733033,0.44179407,1.6522378,1.0768027,4.0370555,-3.255553,6.858082,6.2132273,0,1683969560.0843356
-0.23983108,0.22733033,0.44179407,1.6522378,1.0768027,4.0370555,-3.0622478,7.060508,6.083419,0,1683969560.110022
-0.1864743,0.25208786,0.42459795,1.6522378,1.0768027,4.0370555,-3.0622478,7.060508,6.083419,0,1683969560.1151834
-0.1864743,0.25208786,0.42459795,1.7330247,0.9147707,4.1712933,-3.0622478,7.060508,6.083419,0,1683969560.120326
0.93950605,1.3868492,0.16037522,1.7330247,0.9147707,4.1712933,-3.0622478,7.060508,6.083419,0,1683969560.1306288
0.93950605,1.3868492,0.16037522,1.7330247,0.9147707,4.1712933,2.524574,8.598513,3.9910154,0,1683969560.1460757
0.9573119,1.4276443,0.18507177,1.7330247,0.9147707,4.1712933,2.524574,8.598513,3.9910154,0,1683969560.15121
0.9573119,1.4276443,0.18507177,0.2228131,0.06505715,0.6339254,2.524574,8.598513,3.9910154,0,1683969560.1563592
0.9573119,1.4276443,0.18507177,0.22983804,-0.05467244,0.4550946,2.524574,8.598513,3.9910154,0,1683969560.1769545
0.9573119,1.4276443,0.18507177,0.22983804,-0.05467244,0.4550946,2.5517442,8.59589,3.9793715,0,1683969560.1872218
0.968898,1.4383767,0.1981823,0.22983804,-0.05467244,0.4550946,2.5517442,8.59589,3.9793715,0,1683969560.192408
0.968898,1.4383767,0.1981823,0.2144137,-0.17027868,0.14462234,2.5517442,8.59589,3.9793715,0,1683969560.2077935
0.968898,1.4383767,0.1981823,0.2144137,-0.17027868,0.14462234,2.612481,8.595914,3.9397101,0,1683969560.2129486
0.9926189,1.4530725,0.22007383,0.2144137,-0.17027868,0.14462234,2.612481,8.595914,3.9397101,0,1683969560.2232049
0.9926189,1.4530725,0.22007383,0.15836681,-0.21120666,-0.1788308,2.612481,8.595914,3.9397101,0,1683969560.254094
0.99536294,1.4521579,0.24141651,0.15836681,-0.21120666,-0.1788308,2.612481,8.595914,3.9397101,0,1683969560.2643504
0.99536294,1.4521579,0.24141651,0.15836681,-0.21120666,-0.1788308,2.6317647,8.60216,3.9131503,0,1683969560.2695026
0.98841137,1.4425842,0.25788093,0.15836681,-0.21120666,-0.1788308,2.6317647,8.60216,3.9131503,0,1683969560.2900105
0.98841137,1.4425842,0.25788093,0.09040806,-0.18096884,-0.43799037,2.6317647,8.60216,3.9131503,0,1683969560.2951736
0.98841137,1.4425842,0.25788093,0.09040806,-0.18096884,-0.43799037,2.6314187,8.612617,3.89032,0,1683969560.3106146
0.97847176,1.4159973,0.27916262,0.09040806,-0.18096884,-0.43799037,2.6314187,8.612617,3.89032,0,1683969560.3260386
0.97847176,1.4159973,0.27916262,0.09040806,-0.18096884,-0.43799037,2.609596,8.62652,3.8741806,0,1683969560.3362985
0.97847176,1.4159973,0.27916262,-0.018936822,-0.09712757,-0.7672467,2.609596,8.62652,3.8741806,0,1683969560.3414626
0.97847176,1.4159973,0.27916262,-0.11056661,-0.00076358154,-1.0364856,2.609596,8.62652,3.8741806,0,1683969560.3620386
0.95401907,1.384532,0.28733385,-0.11056661,-0.00076358154,-1.0364856,2.609596,8.62652,3.8741806,0,1683969560.3671682
0.95401907,1.384532,0.28733385,-0.11056661,-0.00076358154,-1.0364856,2.5333786,8.652643,3.8665051,0,1683969560.3723168
0.95401907,1.384532,0.28733385,-0.20341812,0.09819659,-1.2962561,2.5333786,8.652643,3.8665051,0,1683969560.3980768
0.95401907,1.384532,0.28733385,-0.20341812,0.09819659,-1.2962561,2.4520028,8.67289,3.8735979,0,1683969560.4032059
0.6102185,1.068355,0.24068478,-0.20341812,0.09819659,-1.2962561,2.4520028,8.67289,3.8735979,0,1683969560.408363
0.6102185,1.068355,0.24068478,-0.20341812,0.09819659,-1.2962561,1.1727197,8.83663,4.0957084,0,1683969560.4289758
0.5616791,1.0202425,0.21824445,-0.20341812,0.09819659,-1.2962561,1.1727197,8.83663,4.0957084,0,1683969560.4392154
0.5616791,1.0202425,0.21824445,-0.517861,-0.03573562,-3.1564934,1.1727197,8.83663,4.0957084,0,1683969560.4443681
0.5058222,0.9502994,0.19049892,-0.517861,-0.03573562,-3.1564934,1.1727197,8.83663,4.0957084,0,1683969560.4495258
0.5058222,0.9502994,0.19049892,-0.63423085,-0.116217114,-3.414126,1.1727197,8.83663,4.0957084,0,1683969560.4701204
0.5058222,0.9502994,0.19049892,-0.63423085,-0.116217114,-3.414126,0.92936295,8.848511,4.132342,0,1683969560.4751954
0.5058222,0.9502994,0.19049892,-0.77488256,-0.12782355,-3.5882225,0.92936295,8.848511,4.132342,0,1683969560.5009468
0.5058222,0.9502994,0.19049892,-0.77488256,-0.12782355,-3.5882225,0.5377778,8.848462,4.2013855,0,1683969560.5061052
0.44405028,0.87846595,0.17726645,-0.77488256,-0.12782355,-3.5882225,0.5377778,8.848462,4.2013855,0,1683969560.5163627
0.44405028,0.87846595,0.17726645,-0.77488256,-0.12782355,-3.5882225,0.26095423,8.831622,4.2626834,0,1683969560.5266678
0.44405028,0.87846595,0.17726645,-0.95539325,-0.11026118,-3.7233763,0.26095423,8.831622,4.2626834,0,1683969560.531827
0.38709575,0.8085838,0.17031482,-0.95539325,-0.11026118,-3.7233763,0.26095423,8.831622,4.2626834,0,1683969560.5523653
0.38709575,0.8085838,0.17031482,-1.1899655,-0.047494773,-3.8519635,0.26095423,8.831622,4.2626834,0,1683969560.562682
0.38709575,0.8085838,0.17031482,-1.1899655,-0.047494773,-3.8519635,-0.025947606,8.798019,4.3393865,0,1683969560.567842
0.31483543,0.72278607,0.18513274,-1.1899655,-0.047494773,-3.8519635,-0.025947606,8.798019,4.3393865,0,1683969560.572987
0.31483543,0.72278607,0.18513274,-1.3503176,0.012370021,-3.9251146,-0.025947606,8.798019,4.3393865,0,1683969560.609014
0.31483543,0.72278607,0.18513274,-1.3503176,0.012370021,-3.9251146,-0.32068238,8.746374,4.4310493,0,1683969560.6192946
0.24739249,0.6549772,0.20623155,-1.3503176,0.012370021,-3.9251146,-0.32068238,8.746374,4.4310493,0,1683969560.6244464
0.24739249,0.6549772,0.20623155,-1.3503176,0.012370021,-3.9251146,-0.7750958,8.634365,4.591632,0,1683969560.6347408
0.24739249,0.6549772,0.20623155,-1.4750868,0.06383542,-3.9920044,-0.7750958,8.634365,4.591632,0,1683969560.645038
0.21141478,0.6022912,0.2526367,-1.4750868,0.06383542,-3.9920044,-0.7750958,8.634365,4.591632,0,1683969560.655307
0.21141478,0.6022912,0.2526367,-1.4894422,0.052534413,-4.030947,-0.7750958,8.634365,4.591632,0,1683969560.6656137
0.21141478,0.6022912,0.2526367,-1.4894422,0.052534413,-4.030947,-0.9277503,8.588744,4.648535,0,1683969560.6810663
-0.6601605,0.0070126047,0.9246881,-1.4894422,0.052534413,-4.030947,-0.9277503,8.588744,4.648535,0,1683969560.6861987
-0.6601605,0.0070126047,0.9246881,-1.4894422,0.052534413,-4.030947,-4.637209,4.4367595,7.4194055,0,1683969560.696482
-0.6601605,0.0070126047,0.9246881,-0.054061573,-2.4113905,-2.882673,-4.637209,4.4367595,7.4194055,0,1683969560.7015812
-0.6601605,0.0070126047,0.9246881,-0.054061573,-2.4113905,-2.882673,-4.591821,4.3035793,7.5253234,0,1683969560.7170281
-0.6601605,0.0070126047,0.9246881,-0.06490443,-2.3284657,-2.6623034,-4.591821,4.3035793,7.5253234,0,1683969560.7272954
-0.8132182,-0.047197875,1.0168886,-0.06490443,-2.3284657,-2.6623034,-4.591821,4.3035793,7.5253234,0,1683969560.7324533
-0.8132182,-0.047197875,1.0168886,-0.06490443,-2.3284657,-2.6623034,-4.512425,4.11977,7.6747394,0,1683969560.75301
-0.9331032,-0.108055085,1.1161017,-0.06490443,-2.3284657,-2.6623034,-4.512425,4.11977,7.6747394,0,1683969560.7632172
-0.9331032,-0.108055085,1.1161017,-0.13194689,-2.1050417,-2.2331705,-4.512425,4.11977,7.6747394,0,1683969560.778667
-0.9331032,-0.108055085,1.1161017,-0.13194689,-2.1050417,-2.2331705,-4.4543357,4.0125065,7.7649727,0,1683969560.7941213
-0.9967045,-0.10848194,1.182569,-0.13194689,-2.1050417,-2.2331705,-4.4543357,4.0125065,7.7649727,0,1683969560.8043625
-0.9967045,-0.10848194,1.182569,-0.20173825,-1.8460348,-1.802816,-4.4543357,4.0125065,7.7649727,0,1683969560.8095164
-1.0240232,-0.06793079,1.2854408,-0.20173825,-1.8460348,-1.802816,-4.4543357,4.0125065,7.7649727,0,1683969560.8301234
-1.0240232,-0.06793079,1.2854408,-0.29657507,-1.4395039,-1.2698362,-4.4543357,4.0125065,7.7649727,0,1683969560.8455014
-1.0240232,-0.06793079,1.2854408,-0.29657507,-1.4395039,-1.2698362,-4.396962,3.9190404,7.844996,0,1683969560.8506193
-1.0240232,-0.06793079,1.2854408,-0.36102137,-0.9297369,-0.7724391,-4.396962,3.9190404,7.844996,0,1683969560.8763697
-1.0240232,-0.06793079,1.2854408,-0.36102137,-0.9297369,-0.7724391,-4.346012,3.8381734,7.9130726,0,1683969560.8815265
-1.0202425,-0.028965104,1.3517252,-0.36102137,-0.9297369,-0.7724391,-4.346012,3.8381734,7.9130726,0,1683969560.8866804
-0.9831671,-0.008963938,1.3537985,-0.36102137,-0.9297369,-0.7724391,-4.346012,3.8381734,7.9130726,0,1683969560.9021235
-0.9831671,-0.008963938,1.3537985,-0.40530908,-0.52106804,-0.41233405,-4.346012,3.8381734,7.9130726,0,1683969560.9175212
-0.9831671,-0.008963938,1.3537985,-0.40530908,-0.52106804,-0.41233405,-4.295672,3.7406657,7.98691,0,1683969560.9277883
-0.9831671,-0.008963938,1.3537985,-0.45020768,-0.14462234,-0.12156218,-4.295672,3.7406657,7.98691,0,1683969560.9432101
-0.9831671,-0.008963938,1.3537985,-0.45020768,-0.14462234,-0.12156218,-4.282025,3.6891985,8.018116,0,1683969560.948355
0.17488825,0.6460743,0.8014492,-0.45020768,-0.14462234,-0.12156218,-4.282025,3.6891985,8.018116,0,1683969560.9740992
0.17488825,0.6460743,0.8014492,-1.5354098,0.49021935,2.3188446,-4.282025,3.6891985,8.018116,0,1683969560.9843352
0.17488825,0.6460743,0.8014492,-1.5354098,0.49021935,2.3188446,-1.4019684,5.73621,7.8336763,0,1683969560.9946458
0.17488825,0.6460743,0.8014492,-1.5354098,0.49021935,2.3188446,-1.307859,5.6581473,7.9063888,0,1683969561.0100892
0.24800226,0.73870164,0.91444355,-1.5354098,0.49021935,2.3188446,-1.307859,5.6581473,7.9063888,0,1683969561.0203564
0.24800226,0.73870164,0.91444355,-1.5861117,0.59895337,2.2875376,-1.307859,5.6581473,7.9063888,0,1683969561.025512
0.24800226,0.73870164,0.91444355,-1.5861117,0.59895337,2.2875376,-1.1870654,5.528698,8.016263,0,1683969561.0512047
0.32447016,0.81559634,0.9757277,-1.5861117,0.59895337,2.2875376,-1.1870654,5.528698,8.016263,0,1683969561.056355
0.32447016,0.81559634,0.9757277,-1.5699236,0.69806623,2.1809416,-1.1870654,5.528698,8.016263,0,1683969561.0615091
0.38794947,0.90115017,1.0199375,-1.5699236,0.69806623,2.1809416,-1.1870654,5.528698,8.016263,0,1683969561.0820494
0.38794947,0.90115017,1.0199375,-1.5699236,0.69806623,2.1809416,-1.125369,5.440478,8.085224,0,1683969561.087214
0.38794947,0.90115017,1.0199375,-1.5060883,0.8190176,1.9306396,-1.125369,5.440478,8.085224,0,1683969561.0923765
0.37794888,0.9239564,1.0362799,-1.5060883,0.8190176,1.9306396,-1.125369,5.440478,8.085224,0,1683969561.1181335
0.37794888,0.9239564,1.0362799,-1.4071281,0.9129381,1.5769486,-1.125369,5.440478,8.085224,0,1683969561.1232057
0.37794888,0.9239564,1.0362799,-1.4071281,0.9129381,1.5769486,-1.0702069,5.308881,8.179643,0,1683969561.1335013
0.37794888,0.9239564,1.0362799,-1.2912164,0.9324858,1.323745,-1.0702069,5.308881,8.179643,0,1683969561.138657
0.3105669,0.9087725,1.0393289,-1.2912164,0.9324858,1.323745,-1.0702069,5.308881,8.179643,0,1683969561.1438124
0.3105669,0.9087725,1.0393289,-1.2912164,0.9324858,1.323745,-1.058709,5.2248983,8.235027,0,1683969561.159204
0.25599056,0.91871214,1.030243,-1.2912164,0.9324858,1.323745,-1.058709,5.2248983,8.235027,0,1683969561.174634
0.25599056,0.91871214,1.030243,-1.2912164,0.9324858,1.323745,-1.0605204,5.1477866,8.283218,0,1683969561.184938
0.25599056,0.91871214,1.030243,-1.1015427,0.84467393,1.1044444,-1.0605204,5.1477866,8.283218,0,1683969561.2003508
0.25599056,0.91871214,1.030243,-0.9221011,0.71791935,0.96944314,-1.0605204,5.1477866,8.283218,0,1683969561.210669
0.25599056,0.91871214,1.030243,-0.9221011,0.71791935,0.96944314,-1.0654271,5.0808506,8.323817,0,1683969561.2312129
0.2289158,0.95212877,1.0440243,-0.9221011,0.71791935,0.96944314,-1.0654271,5.0808506,8.323817,0,1683969561.2363644
-0.16854642,0.48472342,0.7379089,-0.9221011,0.71791935,0.96944314,-1.0654271,5.0808506,8.323817,0,1683969561.2415133
-0.16854642,0.48472342,0.7379089,-0.9221011,0.71791935,0.96944314,-1.450594,5.2101583,8.184506,0,1683969561.251807
-0.16854642,0.48472342,0.7379089,0.31719178,0.07238753,-0.16462818,-1.450594,5.2101583,8.184506,0,1683969561.2672055
-0.16854642,0.48472342,0.7379089,0.31719178,0.07238753,-0.16462818,-1.472211,5.241657,8.160499,0,1683969561.2929704
-0.16854642,0.48472342,0.7379089,0.24816401,0.123547494,-0.13973543,-1.472211,5.241657,8.160499,0,1683969561.2981186
-0.18080322,0.471186,0.74370193,0.24816401,0.123547494,-0.13973543,-1.472211,5.241657,8.160499,0,1683969561.303217
-0.18080322,0.471186,0.74370193,0.24816401,0.123547494,-0.13973543,-1.4809687,5.2496037,8.153803,0,1683969561.3135145
-0.18080322,0.471186,0.74370193,0.17150041,0.18570304,-0.10629055,-1.4809687,5.2496037,8.153803,0,1683969561.3238177
-0.18720604,0.4726495,0.749434,0.17150041,0.18570304,-0.10629055,-1.4809687,5.2496037,8.153803,0,1683969561.3392215
-0.18720604,0.4726495,0.749434,0.0786489,0.3016147,-0.07315111,-1.4809687,5.2496037,8.153803,0,1683969561.3495238
-0.18720604,0.4726495,0.749434,0.0786489,0.3016147,-0.07315111,-1.5125669,5.2651167,8.137985,0,1683969561.3701289
-0.17513217,0.4853332,0.76498365,0.0786489,0.3016147,-0.07315111,-1.5125669,5.2651167,8.137985,0,1683969561.3752189
-0.17513217,0.4853332,0.76498365,-0.06582073,0.4981606,-0.06887506,-1.5125669,5.2651167,8.137985,0,1683969561.3958123
-0.17513217,0.4853332,0.76498365,-0.06582073,0.4981606,-0.06887506,-1.5427111,5.266667,8.13132,0,1683969561.4009597
-0.17336378,0.49551672,0.78047234,-0.06582073,0.4981606,-0.06887506,-1.5427111,5.266667,8.13132,0,1683969561.4112077
-0.17549805,0.5192986,0.79736364,-0.06582073,0.4981606,-0.06887506,-1.5427111,5.266667,8.13132,0,1683969561.4163837
-0.17549805,0.5192986,0.79736364,-0.06582073,0.4981606,-0.06887506,-1.6102854,5.2536125,8.126662,0,1683969561.4215355
-0.17549805,0.5192986,0.79736364,-0.1881465,0.68875057,-0.09605856,-1.6102854,5.2536125,8.126662,0,1683969561.4318001
-0.17549805,0.5192986,0.79736364,-0.21487185,0.70554936,-0.1255328,-1.6102854,5.2536125,8.126662,0,1683969561.4575114
-0.17549805,0.5192986,0.79736364,-0.21487185,0.70554936,-0.1255328,-1.6693331,5.237991,8.124831,0,1683969561.4678094
-0.20659742,0.5179571,0.6107064,-0.21487185,0.70554936,-0.1255328,-1.6693331,5.237991,8.124831,0,1683969561.472953
-0.20659742,0.5179571,0.6107064,-0.1693624,0.3715588,-0.22617286,-1.6693331,5.237991,8.124831,0,1683969561.4934673
-0.20659742,0.5179571,0.6107064,-0.1693624,0.3715588,-0.22617286,-1.7249503,5.224869,8.121662,0,1683969561.5140777
-0.22226907,0.55015403,0.55777645,-0.1693624,0.3715588,-0.22617286,-1.7249503,5.224869,8.121662,0,1683969561.5191646
-0.22226907,0.55015403,0.55777645,-0.19501872,0.069027774,0.0032070426,-1.7249503,5.224869,8.121662,0,1683969561.5293844
