acc_x,acc_y,acc_z,gyr_x,gyr_y,gyr_z,grav_x,grav_y,grav_z,label,timestamp
-2.3039978,-0.5407246,-0.56356376,0.11922836,0.2976036,-1.4020348,-9.018408,3.5438802,-1.5098386,0,1683807170.256262
-2.3503737,-0.5492779,-0.6333552,0.11922836,0.2976036,-1.4020348,-9.018408,3.5438802,-1.5098386,0,1683807170.287512
-2.3503737,-0.5492779,-0.6333552,0.04032135,0.17290115,-0.8192444,-9.037126,3.4904773,-1.5222756,0,1683807170.3031385
-2.3503737,-0.5492779,-0.6333552,0.04032135,0.17290115,-0.8192444,-8.958093,3.7025335,-1.4880201,0,1683807170.318763
-2.1995533,-0.48483983,-0.5735578,-0.13858795,0.08131027,-0.23124695,-8.958093,3.7025335,-1.4880201,0,1683807170.318763
-1.790753,-0.32962132,-0.40614626,-0.93753815,-0.025234222,1.7959023,-8.854428,3.9731407,-1.4084166,0,1683807170.3343909
-1.790753,-0.32962132,-0.40614626,-0.80121994,-0.62604904,2.5235558,-8.718876,4.307332,-1.2643063,0,1683807170.350013
-1.6013666,-0.29935107,-0.3822303,-0.67972183,-0.98386765,2.8718948,-8.718876,4.307332,-1.2643063,0,1683807170.3656392
-1.5530343,-0.2942403,-0.36855108,-0.7276535,-1.2374115,4.041481,-8.464225,4.8494773,-1.0049131,0,1683807170.3812613
-1.3419311,-0.2815468,-0.36855108,-0.7276535,-1.2374115,4.041481,-8.464225,4.8494773,-1.0049131,0,1683807170.3968883
-1.0097619,-0.2400541,-0.49351448,-1.3657188,-0.90402603,5.54245,-7.2089205,6.6392775,-0.3490489,0,1683807170.4125116
-1.0097619,-0.2400541,-0.49351448,-1.3657188,-0.90402603,5.54245,-6.6214695,7.233009,-0.10053281,0,1683807170.4597747
-1.0097619,-0.2400541,-0.49351448,-1.8526459,-0.87745667,6.1911964,-6.4024315,7.428269,-0.008791172,0,1683807170.4754121
-0.25221682,-0.08532089,0.0028966034,-2.7070045,-0.102939606,6.9241905,-4.261007,8.791358,0.85218483,0,1683807170.4910333
-0.25221682,-0.08532089,0.0028966034,-2.7070045,-0.102939606,6.9241905,-3.3269544,9.142535,1.2311825,0,1683807170.5066578
-0.17435732,-0.07458375,0.042918257,-2.8144836,0.0333786,6.9986916,-3.3269544,9.142535,1.2311825,0,1683807170.522283
0.08727723,-0.1045962,0.16471209,-3.0990028,0.1473999,7.156372,-2.013313,9.429344,1.790088,0,1683807170.5379095
0.4272414,-0.087519884,0.43609804,-3.796749,1.3010979,7.3470306,-2.013313,9.429344,1.790088,0,1683807170.553533
0.40942198,-0.1753734,0.4568444,-3.796749,1.3010979,7.3470306,-2.013313,9.429344,1.790088,0,1683807170.5691566
0.69814205,-0.107280485,0.7755769,-4.1599083,1.8634605,7.5473022,1.3360504,9.045791,3.5438712,0,1683807170.5847838
0.69814205,-0.107280485,0.7755769,-4.361248,2.2577286,7.4067116,2.496799,8.387734,4.4251885,0,1683807170.6004078
1.2001643,-0.045784533,1.336426,-4.2899513,2.5793648,7.0562363,2.9847026,7.9724584,4.868455,0,1683807170.6160326
1.8942724,0.17582837,1.3920681,-4.219589,2.702999,6.8793297,3.5660477,7.2917376,5.5031133,0,1683807170.6316578
1.8942724,0.17582837,1.3920681,-3.8680458,2.7573395,5.9547424,3.7190382,7.062119,5.6978602,0,1683807170.647282
2.674035,0.49577412,1.3752345,-3.8680458,2.7573395,5.9547424,4.285832,6.1196756,6.35229,0,1683807170.6629071
0.96246094,0.16166383,1.2175744,2.183628,-1.3291359,-3.234253,4.386333,6.926911,5.3803706,0,1683807170.6785336
0.9202403,0.4084059,0.9744871,2.1485138,-0.7868004,-2.9486656,4.3111906,7.0442653,5.2879453,0,1683807170.6941571
1.055683,0.5592416,0.7689951,2.0462418,0.13031006,-2.7111435,3.8685157,7.5642858,4.897606,0,1683807170.7097828
1.0237142,0.59754956,0.80756086,2.1549225,0.14419556,-3.2043457,3.2863464,8.06225,4.5133615,0,1683807170.7722838
0.80894095,0.5138362,0.6494003,2.2316933,0.1473999,-3.3524132,2.519713,8.579005,4.027668,0,1683807170.7879076
0.5924691,0.5187195,0.5315343,2.8398514,0.091991425,-4.5775414,1.5761709,9.045163,3.4454443,0,1683807170.8035357
0.5626993,0.49383295,0.4441509,2.9549408,0.07062912,-4.7660637,1.1554164,9.202392,3.1861236,0,1683807170.8504071
0.52364826,0.4962746,0.34116223,3.1637573,-0.08905411,-5.094242,0.24222231,9.449694,2.6105576,0,1683807170.8660321
0.37037092,0.41304654,0.14469367,3.1637573,-0.08905411,-5.094242,-0.75825405,9.570446,2.0004997,0,1683807170.8816588
0.37037092,0.41304654,0.14469367,3.1562805,-0.49707413,-5.5021286,-0.75825405,9.570446,2.0004997,0,1683807170.8972845
-0.00985755,0.19706002,-0.08911226,2.975235,-0.5524826,-5.53524,-1.2728372,9.571237,1.7151384,0,1683807170.9285324
-0.6597886,0.07990682,-0.50229526,2.211399,0.6821251,-5.0792885,-6.0262847,7.7173033,-0.5454452,0,1683807170.944157
-0.81280816,0.10358011,-0.5533119,2.0856285,0.6693077,-5.02388,-6.2193766,7.5541997,-0.6510011,0,1683807170.9597821
-0.81280816,0.10358011,-0.5533119,1.6829491,0.8515549,-5.004654,-6.769998,7.0317063,-0.9447825,0,1683807170.9754105
-0.8777315,0.05574824,-0.57063085,1.5679932,0.88026047,-4.981289,-6.943382,6.8474164,-1.0357268,0,1683807170.9910338
-1.9977161,-0.36134747,-0.7002349,0.064888,1.4650536,-2.817688,-8.413336,4.6162214,-2.0190742,0,1683807171.0222838
-2.1661134,-0.42504242,-0.7378149,0.010547638,1.3607788,-2.400055,-8.510817,4.3737607,-2.1462972,0,1683807171.0379083
-2.506578,-0.601993,-0.85276914,0.2927971,0.3263092,-1.3571739,-8.655746,3.9893649,-2.3094187,0,1683807171.0535326
-2.4011326,-0.56952375,-0.8569093,-0.2855873,-0.5801201,1.0236549,-8.738834,3.8506944,-2.230543,0,1683807171.1160324
-2.4011326,-0.56952375,-0.8569093,-1.0163116,-0.65689087,2.8473282,-8.508704,4.4523115,-1.9872732,0,1683807171.1316605
-1.8376143,-0.38502076,-0.5455017,-1.0163116,-0.65689087,2.8473282,-8.508704,4.4523115,-1.9872732,0,1683807171.1316605
-1.5225366,-0.29985154,-0.49498552,-0.8917427,-1.4079094,4.0575027,-7.638677,6.019049,-1.2617707,0,1683807171.1785326
-1.5225366,-0.29985154,-0.49498552,-0.8917427,-1.4079094,4.0575027,-7.3471127,6.405694,-1.0758259,0,1683807171.194158
-1.1442493,-0.24469474,-0.5611221,-1.172924,-1.6944313,5.3347015,-7.3471127,6.405694,-1.0758259,0,1683807171.194158
-1.0681036,-0.23444289,-0.5389047,-1.2890816,-1.641159,5.5371094,-7.183194,6.6038337,-0.9805539,0,1683807171.2097836
-0.9038464,-0.24713637,-0.44225523,-1.7630577,-1.2257957,6.1060143,-6.6090307,7.212396,-0.68734235,0,1683807171.225409
-0.9038464,-0.24713637,-0.44225523,-2.427826,-0.45021057,6.8474197,-6.6090307,7.212396,-0.68734235,0,1683807171.2410326
-0.15166979,-0.14705949,-0.14572492,-2.8475952,-0.4662323,7.452507,-4.776277,8.5646715,0.062998615,0,1683807171.2722828
-0.15166979,-0.14705949,-0.14572492,-2.9349136,-0.231781,7.706051,-1.6645944,9.576168,1.3025041,0,1683807171.2879097
0.23882571,-0.07482639,0.18008986,-2.9349136,-0.231781,7.706051,-1.6645944,9.576168,1.3025041,0,1683807171.2879097
0.32058272,-0.0528668,0.23987211,-2.9349136,-0.231781,7.706051,-1.6645944,9.576168,1.3025041,0,1683807171.3347816
0.63176286,0.035972476,0.54055774,-3.2385254,0.6746483,7.6943016,-0.17231336,9.615902,1.9170613,0,1683807171.3504088
1.6887804,0.5882835,0.9952335,-3.304615,1.122055,5.010929,3.3270898,8.24651,4.1347246,0,1683807171.3816576
1.6887804,0.5882835,0.9952335,-3.304615,1.122055,5.010929,4.3766217,7.403366,4.7122965,0,1683807171.428547
1.859862,0.6160969,1.0638117,-0.64460754,-0.8805275,1.1269951,4.3766217,7.403366,4.7122965,0,1683807171.428547
2.0309436,0.7871785,1.3147091,-1.742897,-0.5077553,2.5661469,4.3766217,7.403366,4.7122965,0,1683807171.4441714
1.8205683,0.7169017,1.0750341,-1.742897,-0.5077553,2.5661469,4.3766217,7.403366,4.7122965,0,1683807171.4597967
1.4867007,0.5401938,1.0391678,-0.045928955,-1.0882759,-0.20040512,4.5540576,7.3289685,4.660168,0,1683807171.4754217
1.3868816,0.63050413,1.1895031,0.79027176,0.28692245,-1.3241959,4.4099855,7.5826674,4.3846974,0,1683807171.491047
1.223595,0.62562084,0.94324625,0.88186264,0.49894333,-1.4115143,4.353566,7.6250467,4.3675523,0,1683807171.5066717
1.1891845,0.62439245,0.9115201,1.190815,0.9410095,-1.8557167,3.9629438,7.894085,4.260152,0,1683807171.5222967
1.1179221,0.60366124,0.87858075,1.3591766,0.9016228,-2.1295547,3.8666832,7.958988,4.2277255,0,1683807171.5847826
0.9980846,0.5907251,0.7716794,1.760788,0.6033516,-2.6877785,3.4324226,8.251816,4.03688,0,1683807171.6004083
0.59905094,0.57656056,0.38850883,2.8708267,-0.45341492,-4.039612,1.1837013,9.442111,2.3697658,0,1683807171.6160326
0.3244954,0.5192048,0.18154575,2.9730988,-0.43525696,-4.836426,0.11979503,9.661682,1.6756879,0,1683807171.6472833
0.17268912,0.4581941,0.041462373,3.03051,-0.6153679,-5.056858,-0.5838147,9.710443,1.2397013,0,1683807171.6629076
0.17268912,0.4581941,0.041462373,2.1240807,-0.81350327,-5.0185394,-3.0206447,9.329646,0.061578162,0,1683807171.7097828
-0.33885708,0.37522388,0.00045496388,1.9749451,-0.4523468,-4.938698,-3.4828875,9.1667185,-0.10560033,0,1683807171.7254078
-0.33885708,0.37522388,0.00045496388,1.9749451,-0.4523468,-4.938698,-3.7106729,9.075579,-0.18751636,0,1683807171.741032
-0.33885708,0.37522388,0.00045496388,1.8789482,-0.13698578,-4.861927,-4.376469,8.765362,-0.43051022,0,1683807171.756657
-0.4918766,0.3093148,-0.112057604,1.8789482,-0.13698578,-4.861927,-4.376469,8.765362,-0.43051022,0,1683807171.756657
-0.4918766,0.3093148,-0.112057604,1.8789482,-0.13698578,-4.861927,-4.801671,8.530352,-0.5894499,0,1683807171.7722847
-0.6463672,0.23244104,-0.22481282,1.7916298,0.062217712,-4.692631,-5.206707,8.276622,-0.7470769,0,1683807171.7879078
-0.6463672,0.23244104,-0.22481282,1.5679932,0.26676178,-4.5349503,-5.206707,8.276622,-0.7470769,0,1683807171.8035336
-0.6463672,0.23244104,-0.22481282,0.9277916,0.8121681,-3.9457512,-7.1498466,6.521784,-1.5863248,0,1683807171.8191578
-1.179873,0.04549639,-0.4059036,0.9277916,0.8121681,-3.9457512,-7.1498466,6.521784,-1.5863248,0,1683807171.8191578
-1.179873,0.04549639,-0.4059036,0.8861351,0.78546524,-3.8083649,-7.5970745,5.929748,-1.8146476,0,1683807171.8816597
-1.4368669,-0.023081833,-0.4041899,0.84674835,0.6757164,-2.9561424,-7.7832193,5.646503,-1.9258486,0,1683807171.897283
-1.4368669,-0.023081833,-0.4041899,0.84674835,0.6757164,-2.9561424,-8.0926285,5.113944,-2.1277525,0,1683807171.912911
-1.5340017,-0.07848127,-0.46251628,0.84674835,0.6757164,-2.9561424,-7.947787,5.3734317,-2.0320659,0,1683807171.9285343
-1.7209463,-0.13242482,-0.5747862,0.74661255,0.8237839,-3.4420013,-7.947787,5.3734317,-2.0320659,0,1683807171.9441574
-1.808072,-0.1653642,-0.67557585,0.92565536,0.3263092,-2.4810982,-8.158252,4.991053,-2.168571,0,1683807171.9597828
-1.9884348,-0.20148833,-0.7544059,0.76049805,-0.17757416,-1.8505096,-8.3271,4.6695786,-2.2416155,0,1683807171.9754076
-1.9884348,-0.20148833,-0.7544059,0.76049805,-0.17757416,-1.8505096,-8.373999,4.581571,-2.2484965,0,1683807171.991034
-2.0284564,-0.21321124,-0.74562514,0.76049805,-0.17757416,-1.8505096,-8.373999,4.581571,-2.2484965,0,1683807172.006659
-2.0284564,-0.21321124,-0.74562514,0.6699753,-0.30641556,-1.6107178,-8.373999,4.581571,-2.2484965,0,1683807172.022286
-2.1172957,-0.24126734,-0.70950097,0.6699753,-0.30641556,-1.6107178,-8.518697,4.3271317,-2.2086475,0,1683807172.0379097
-2.1172957,-0.24126734,-0.70950097,-0.45288086,0.10908127,0.7018852,-8.4816265,4.405271,-2.1968145,0,1683807172.0535336
-2.1172957,-0.24126734,-0.70950097,-0.62965393,-0.010280609,1.7810822,-8.4816265,4.405271,-2.1968145,0,1683807172.0691583
-2.1172957,-0.24126734,-0.70950097,-0.62965393,-0.010280609,1.7810822,-8.421414,4.5299387,-2.1748147,0,1683807172.0847833
-2.100462,-0.2759356,-0.56697595,-0.6861305,-0.19987106,2.3232841,-8.421414,4.5299387,-2.1748147,0,1683807172.0847833
-2.100462,-0.2759356,-0.56697595,-0.6861305,-0.19987106,2.3232841,-8.285621,4.803334,-2.1087546,0,1683807172.1004083
-1.889101,-0.22027834,-0.5462296,-0.7074928,-0.3224373,2.576828,-8.285621,4.803334,-2.1087546,0,1683807172.1004083
-1.889101,-0.22027834,-0.5462296,-0.72978973,-0.57598114,3.2351875,-8.285621,4.803334,-2.1087546,0,1683807172.1160362
-1.679211,-0.15999563,-0.457633,-0.72978973,-0.57598114,3.2351875,-8.285621,4.803334,-2.1087546,0,1683807172.1316593
-1.4324689,-0.11484805,-0.44909483,-0.88212967,-0.52804947,4.0042305,-8.285621,4.803334,-2.1087546,0,1683807172.1472828
-1.3182578,-0.086048834,-0.47032648,-0.95783234,-0.5098915,4.333477,-8.285621,4.803334,-2.1087546,0,1683807172.1629086
0.10923683,0.15312567,-0.00027297833,-1.9633293,-0.29359818,6.5406036,-2.0520718,9.589544,0.003751955,0,1683807172.1785333
0.3967285,0.22561659,0.24671175,-2.0784187,-0.14019012,6.6163063,-0.7600227,9.7683,0.41603222,0,1683807172.1941583
0.3967285,0.22561659,0.24671175,-2.0784187,-0.14019012,6.6163063,0.23490185,9.7740135,0.76410586,0,1683807172.2097857
0.5829452,0.25635698,0.39680433,-2.7175522,1.8007088,6.674919,1.2060186,9.661376,1.1720532,0,1683807172.2254078
0.8287167,0.26759458,0.53664505,-3.379116,3.0896568,6.266899,2.9462519,9.07573,2.2629855,0,1683807172.241035
0.99321645,0.25245947,0.60840803,-3.379116,3.0896568,6.266899,2.9462519,9.07573,2.2629855,0,1683807172.2566578
2.0187354,0.74350196,1.2471014,-0.33885956,-2.080021,-0.32924652,4.999471,7.520347,3.8236187,0,1683807172.2879086
1.7368549,0.6165822,1.1057897,0.2512741,-2.1844292,-1.0004234,5.037749,7.548504,3.7163925,0,1683807172.3035347
1.7368549,0.6165822,1.1057897,0.5293846,-2.1206093,-1.3402176,5.037749,7.548504,3.7163925,0,1683807172.350407
1.7368549,0.6165822,1.1057897,0.5293846,-2.1206093,-1.3402176,5.0108833,7.690038,3.4532235,0,1683807172.3660333
1.325613,0.482838,0.961551,0.5293846,-2.1206093,-1.3402176,5.0108833,7.690038,3.4532235,0,1683807172.38166
1.2314053,0.4535535,0.9534981,0.59747696,-1.8159294,-1.459446,5.038184,7.6125774,3.5827024,0,1683807172.397385
1.0132197,0.4935903,0.86197454,0.36956787,0.12283325,-0.97372055,4.9885755,7.7289405,3.3982317,0,1683807172.4270773
0.9844205,0.7120185,0.6447748,1.6063118,0.036582947,-2.5598717,3.8935468,8.449459,3.028287,0,1683807172.4427052
0.7764869,0.68541825,0.45367482,2.2816277,-0.49386978,-3.1383896,3.179784,8.923395,2.5362132,0,1683807172.489578
0.7764869,0.68541825,0.45367482,2.2816277,-0.49386978,-3.1383896,3.311449,8.8427,2.6478972,0,1683807172.505203
0.74548864,0.70103866,0.39656168,2.355194,-0.5364609,-3.235321,3.311449,8.8427,2.6478972,0,1683807172.505203
0.43408102,0.71129054,0.1717792,2.178421,-0.5801201,-4.084339,1.5536596,9.579549,1.4102395,0,1683807172.5208285
0.35012504,0.6871168,0.090022184,2.178421,-0.5801201,-4.084339,1.5536596,9.579549,1.4102395,0,1683807172.552078
0.12217297,0.62733454,-0.053230774,1.9696045,-0.843277,-5.0089264,-1.255534,9.725866,0.039372362,0,1683807172.5677052
0.02259654,0.5526446,-0.05103178,1.8587875,-0.6782532,-5.1634026,-1.7481247,9.648662,-0.13334571,0,1683807172.5833316
-0.10113847,0.4874786,-0.050061192,1.7768097,-0.53325653,-5.235901,-2.2485569,9.540829,-0.29489264,0,1683807172.5989528
-0.10113847,0.4874786,-0.050061192,1.7203331,-0.43312073,-5.2423096,-2.7477496,9.403151,-0.44836026,0,1683807172.6145804
-0.28834093,0.38840267,-0.07300653,1.7203331,-0.43312073,-5.2423096,-2.9951952,9.323391,-0.5230374,0,1683807172.6302032
-0.5038422,0.37595183,-0.16208847,1.626606,-0.22123337,-5.054722,-4.1612334,8.836424,-0.87871766,0,1683807172.6458287
-0.59535056,0.33567235,-0.21284726,1.5828133,-0.029506683,-4.971676,-4.1612334,8.836424,-0.87871766,0,1683807172.661453
-0.78645056,0.28588414,-0.23944749,1.2014961,0.39133072,-4.3548393,-5.7455344,7.8246045,-1.3909642,0,1683807172.6770782
-0.98755974,0.2339121,-0.28362447,0.86170197,1.0593033,-3.6549568,-6.748551,6.874592,-1.8350527,0,1683807172.7083285
-1.0795686,0.1814396,-0.4351881,0.9064293,0.8952141,-3.2565498,-7.276354,6.207132,-2.167157,0,1683807172.7239535
-1.137895,0.11286137,-0.5428174,0.8936119,0.7183075,-3.1437302,-7.460005,5.941208,-2.2848978,0,1683807172.7395778
-1.221123,0.11090503,-0.5096202,0.802021,0.53512573,-3.0136871,-7.6321855,5.6787477,-2.3815866,0,1683807172.7552037
-1.7541436,-0.07189946,-0.54647225,0.46329498,-0.094394684,-1.4339447,-8.246376,4.60114,-2.6452205,0,1683807172.8020785
-1.7541436,-0.07189946,-0.54647225,0.3865242,-0.1380539,-1.22406,-8.358612,4.3937006,-2.6456375,0,1683807172.8177035
-1.8808055,-0.15292852,-0.54037577,0.3865242,-0.1380539,-1.22406,-8.358612,4.3937006,-2.6456375,0,1683807172.8177035
-1.870311,-0.15194277,-0.5267117,-0.0001335144,-0.082645416,-0.14072418,-8.383249,4.350169,-2.639611,0,1683807172.8333278
-1.870311,-0.15194277,-0.5267117,-0.14499664,0.004673004,0.25447845,-8.373427,4.374372,-2.630773,0,1683807172.8645775
-1.7094812,-0.107037835,-0.5882076,-0.53165436,-0.26489258,1.7469025,-8.234944,4.667682,-2.5629723,0,1683807172.8802037
-1.263829,-0.010145694,-0.43932828,-0.875721,-0.67611694,3.8092995,-7.4819098,6.0084705,-2.022302,0,1683807172.942717
-1.1054409,0.015969232,-0.45470607,-1.1388779,-0.56316376,4.27166,-7.130733,6.4670796,-1.8708026,0,1683807172.9583426
-0.93997055,0.05354925,-0.37978867,-1.3742638,-0.5034828,4.6412277,-6.7055807,6.952344,-1.6942525,0,1683807172.973967
-0.93997055,0.05354925,-0.37978867,-1.5128517,-0.4022789,4.8361588,-6.7055807,6.952344,-1.6942525,0,1683807173.0208292
-0.36398625,0.23415475,-0.16013213,-1.6746712,-0.616436,5.398655,-3.9024587,8.9738455,-0.6413151,0,1683807173.0364537
-0.16971669,0.28858358,-0.09179655,-1.7003059,-0.64834595,5.481701,-3.167494,9.273173,-0.38161796,0,1683807173.0520778
-0.10333746,0.2929664,-0.03492606,-1.8238068,-0.3160286,5.6383133,-1.3043395,9.716277,0.25106043,0,1683807173.1302035
0.5619562,0.37302488,0.45123318,-2.7528,1.6270065,5.6841087,1.5194819,9.577368,1.4613663,0,1683807173.1458278
0.910959,0.38546056,0.5974282,-2.640915,1.6451645,5.4050636,2.5256455,9.248954,2.061157,0,1683807173.1614535
0.910959,0.38546056,0.5974282,-2.437439,1.3905525,5.203724,2.9924068,9.041134,2.3396118,0,1683807173.177078
1.0229863,0.41256124,0.6171888,-2.437439,1.3905525,5.203724,2.9924068,9.041134,2.3396118,0,1683807173.177078
1.67316,0.6253782,0.5730118,-1.5958977,0.07276535,3.5983467,2.9924068,9.041134,2.3396118,0,1683807173.2395918
1.6453314,0.6829766,0.9434889,-0.045928955,-1.320591,-0.7468796,4.9034295,7.9251566,3.052651,0,1683807173.255217
1.3966329,0.65002203,0.9159181,-0.045928955,-1.320591,-0.7468796,4.8647146,7.9783983,2.9749115,0,1683807173.302092
1.1718656,0.6475804,0.84782517,0.48986435,-0.13271332,-1.0312653,4.749373,8.077285,2.8933208,0,1683807173.317717
1.1118256,0.7127464,0.7260465,0.24166107,-0.8805275,-1.0045624,4.749373,8.077285,2.8933208,0,1683807173.3333423
1.076672,0.7793683,0.5515375,0.74554443,0.8674431,-1.4904213,4.2493634,8.386119,2.7903962,0,1683807173.3645926
0.99907035,0.7906059,0.44927683,1.079998,0.56503296,-2.1903038,3.7295074,8.678212,2.6362457,0,1683807173.380217
0.81870747,0.7718159,0.37922755,1.7565155,0.036582947,-3.2501411,2.8630614,9.119723,2.1917827,0,1683807173.395842
0.7796564,0.7830383,0.36556348,1.8172646,0.028038025,-3.3759117,2.7141652,9.184154,2.1106925,0,1683807173.411467
0.7796564,0.7830383,0.36556348,1.8172646,0.028038025,-3.3759117,2.395503,9.309292,1.9414015,0,1683807173.442717
0.69472986,0.7486279,0.30919346,1.9003105,0.071697235,-3.6294556,2.395503,9.309292,1.9414015,0,1683807173.442717
0.34962457,0.6602739,0.16519739,1.9770813,0.12176514,-3.8904762,1.8684511,9.480191,1.6748861,0,1683807173.458342
0.48532513,0.70566416,0.26647234,1.9770813,0.12176514,-3.8904762,1.8684511,9.480191,1.6748861,0,1683807173.473967
0.48532513,0.70566416,0.26647234,1.9770813,0.12176514,-3.8904762,1.1155969,9.658397,1.2810946,0,1683807173.489592
0.48532513,0.70566416,0.26647234,2.2486496,-0.038986206,-4.135475,0.52479213,9.7463255,0.95085555,0,1683807173.505217
0.48532513,0.70566416,0.26647234,2.1581268,-0.5535507,-4.462452,-0.72703505,9.775125,0.29788968,0,1683807173.5208285
0.07823862,0.6060877,-0.061283633,2.1581268,-0.5535507,-4.462452,-0.72703505,9.775125,0.29788968,0,1683807173.5208285
0.07823862,0.6060877,-0.061283633,2.1581268,-0.5535507,-4.462452,-1.3822347,9.708749,-0.00020844124,0,1683807173.552092
-0.104308054,0.50505537,-0.06715267,1.9439697,-0.3383255,-4.625473,-2.2809038,9.53127,-0.35037893,0,1683807173.5677032
0.023324482,0.5655808,-0.12693492,1.74263,-0.12002945,-4.7330856,-1.605265,9.673923,-0.09348021,0,1683807173.5833292
0.023324482,0.5655808,-0.12693492,1.6244698,0.20067215,-4.7021103,-3.168349,9.256575,-0.66915435,0,1683807173.5989537
-0.38888794,0.3554481,-0.08325839,1.6244698,0.20067215,-4.7021103,-3.168349,9.256575,-0.66915435,0,1683807173.5989537
-0.4835811,0.40132365,-0.14988026,1.4177895,0.708828,-4.1609764,-4.359132,8.711179,-1.1330118,0,1683807173.6145787
-0.8401514,0.22731511,-0.34219348,1.6382217,0.86637497,-4.0267944,-6.2982116,7.205344,-2.141477,0,1683807173.6302037
-0.9629159,0.1609359,-0.46227363,1.5924263,0.8025551,-3.9127731,-6.8203974,6.5958505,-2.4793785,0,1683807173.6614528
-0.9965832,0.15239774,-0.47472447,1.5296745,0.6821251,-3.846817,-6.9415793,6.4384265,-2.5556865,0,1683807173.6770775
-1.6684738,-0.11607645,-0.6387238,1.3921547,-0.096530914,-3.063755,-7.8856444,4.984503,-3.02353,0,1683807173.7083285
-1.7368094,-0.12705624,-0.62970036,1.2962914,-0.07209778,-2.826233,-7.9619308,4.8424654,-3.054273,0,1683807173.7239532
-1.9147307,-0.1360797,-0.73317426,0.94688416,0.17183304,-2.029419,-8.136426,4.4818482,-3.143565,0,1683807173.739578
-1.9484131,-0.1770871,-0.8256836,0.0041389465,0.10480881,-0.15447617,-8.2885475,4.096113,-3.2698948,0,1683807173.8333287
-1.6260105,-0.10923683,-0.71829695,-1.0046959,-0.25741577,1.853447,-8.212817,4.3545866,-3.1237144,0,1683807173.8489547
-1.5803777,-0.08336455,-0.57502884,-1.0046959,-0.25741577,1.853447,-8.212817,4.3545866,-3.1237144,0,1683807173.8645802
-1.5803777,-0.08336455,-0.57502884,-0.86610794,-0.28718948,1.3240623,-8.249204,4.24269,-3.1812909,0,1683807173.8802023
-1.5803777,-0.08336455,-0.57502884,-0.86610794,-0.28718948,1.3240623,-7.9753633,4.9228554,-2.886079,0,1683807173.8958282
-1.408553,0.00059145305,-0.45153648,-0.98119736,-0.7165718,2.701397,-7.9753633,4.9228554,-2.886079,0,1683807173.8958282
-1.3675607,0.005474732,-0.45373547,-0.9790611,-0.8038902,2.854805,-7.762349,5.3579965,-2.684811,0,1683807173.9114532
-1.1452199,0.044510633,-0.41175747,-0.9790611,-0.8038902,2.854805,-7.5527024,5.734468,-2.4985895,0,1683807173.9270785
-1.2482085,0.036215123,-0.42762056,-0.9854698,-1.014843,3.2872581,-6.9589696,6.5840526,-2.0960383,0,1683807173.9427042
-0.6905442,0.22146125,-0.0793457,-1.3966942,-0.42884827,4.975815,-5.384745,8.074165,-1.4081013,0,1683807173.9739523
-0.21780637,0.31030053,-0.18917398,-1.1707878,-0.27450562,5.5914497,-3.1035218,9.268533,-0.7955198,0,1683807174.0052037
-0.21780637,0.31030053,-0.18917398,-1.1707878,-0.27450562,5.5914497,0.8394981,9.758752,0.48206735,0,1683807174.0833285
0.3967285,0.47429985,0.32457122,-2.4023247,1.3990974,5.818424,0.8394981,9.758752,0.48206735,0,1683807174.0833285
0.50924104,0.43599188,0.46197033,-2.4513245,1.9178009,5.703335,1.6678151,9.623354,0.88307565,0,1683807174.0989532
0.50924104,0.43599188,0.46197033,-2.4513245,1.9178009,5.703335,2.9561515,9.209686,1.6165537,0,1683807174.114578
0.81333894,0.4438021,0.3418902,-2.4588013,2.4526596,5.610676,2.9561515,9.209686,1.6165537,0,1683807174.114578
1.6904789,0.78693587,0.28844708,-2.2457123,0.78653336,4.1161156,3.8270555,8.763466,2.1738694,0,1683807174.145828
2.03704,0.94509643,0.6960189,-1.66399,-0.89227676,2.5629425,4.463107,8.364715,2.5065138,0,1683807174.1614528
1.9296534,0.90189004,0.8038908,-0.6221771,-2.168541,0.583725,4.8203177,8.161175,2.5159805,0,1683807174.177078
1.7219625,0.79573184,0.79950804,-0.20681381,-2.2761536,-0.0778389,4.903835,8.134524,2.439734,0,1683807174.192703
1.2106589,0.53726685,0.65355563,0.052070618,-0.19239426,-0.33885956,4.9534545,8.200843,2.0928092,0,1683807174.2395918
1.291688,0.676137,0.6020537,-0.083179474,0.7897377,-0.25888443,4.921311,8.201507,2.1648016,0,1683807174.255217
1.300484,0.7154307,0.59815615,-0.083179474,0.7897377,-0.25888443,4.921311,8.201507,2.1648016,0,1683807174.270842
1.2794949,0.7879216,0.569357,0.0787735,1.0070992,-0.66583633,4.828604,8.226865,2.2745712,0,1683807174.286467
0.93658864,0.7191007,0.48955628,1.3463593,-0.27877808,-2.9561424,3.8097298,8.831686,1.9125044,0,1683807174.3489668
0.93658864,0.7191007,0.48955628,1.4443588,0.02696991,-3.166027,3.4125917,9.030071,1.7269723,0,1683807174.3645926
0.7484156,0.72128457,0.38778087,1.4443588,0.02696991,-3.166027,3.4125917,9.030071,1.7269723,0,1683807174.3645926
0.59491074,0.6619876,0.17056596,1.4667892,0.21348953,-3.2512093,3.12521,9.155955,1.6037265,0,1683807174.395842
0.59491074,0.6619876,0.17056596,1.4667892,0.21348953,-3.2512093,2.8272336,9.273439,1.4766357,0,1683807174.4114673
0.59491074,0.6619876,0.17056596,1.4837456,0.24539948,-3.3055496,2.8272336,9.273439,1.4766357,0,1683807174.4114673
0.59491074,0.6619876,0.17056596,1.5072441,0.15167236,-3.3833885,2.5206015,9.381733,1.3416588,0,1683807174.427092
0.46750572,0.736905,0.096376516,1.5125847,-0.33405304,-3.707161,1.3212659,9.683133,0.8133805,0,1683807174.442717
0.22907431,0.6458819,0.019745432,1.539154,-0.24032593,-4.556179,0.5200702,9.780342,0.49479443,0,1683807174.458342
0.16610731,0.6307467,-0.026145257,1.539154,-0.24032593,-4.556179,-0.55491596,9.790393,0.10333849,0,1683807174.473967
0.16610731,0.6307467,-0.026145257,1.4475632,-0.1733017,-4.821472,-1.4642506,9.695067,-0.17894895,0,1683807174.520842
0.06310349,0.6112136,-0.028101603,1.4475632,-0.1733017,-4.821472,-1.4642506,9.695067,-0.17894895,0,1683807174.520842
-0.42501208,0.33250275,-0.0788604,1.362381,-0.20521164,-5.0696754,-3.865513,8.972257,-0.8525371,0,1683807174.5520923
-0.4784552,0.33128953,-0.045177914,1.362381,-0.20521164,-5.0696754,-4.091167,8.866122,-0.908085,0,1683807174.5989664
-0.57290566,0.3276195,0.027555645,1.2643814,0.20814896,-4.7416306,-4.091167,8.866122,-0.908085,0,1683807174.614592
-0.9238648,0.18949245,-0.3036429,1.1471558,1.1892128,-4.156704,-6.7026043,6.8720546,-2.0050828,0,1683807174.6302178
-0.9238648,0.18949245,-0.3036429,1.1248589,1.1637115,-3.9852715,-6.7026043,6.8720546,-2.0050828,0,1683807174.677092
-1.8612876,-0.13876398,-0.6787606,1.079998,0.2965355,-1.9100571,-8.045869,4.716663,-3.0310826,0,1683807174.692717
-1.854448,-0.14755996,-0.6494609,0.9213829,0.014286041,-1.1932182,-8.157698,4.4639344,-3.113782,0,1683807174.708342
-1.818809,-0.12998317,-0.67240626,0.8062935,-0.013484955,-0.7490158,-8.206468,4.3459,-3.1523669,0,1683807174.723967
-1.702399,-0.090689465,-0.76173085,0.33018112,0.2751732,0.018024445,-8.23155,4.222924,-3.252516,0,1683807174.7552168
-1.571339,-0.00013648917,-0.7163406,-0.4208374,0.32203674,0.8627701,-8.151884,4.319138,-3.3259928,0,1683807174.770842
-1.5584029,0.0057173795,-0.6958369,-0.49974442,0.2539444,0.97358704,-8.130049,4.358841,-3.327641,0,1683807174.786467
-1.4734763,0.02767697,-0.5352498,-0.6552887,-0.036849976,1.3123131,-8.130049,4.358841,-3.327641,0,1683807174.802092
-1.4734763,0.02767697,-0.5352498,-0.64460754,-0.37878036,1.7415619,-8.032671,4.5705223,-3.2797737,0,1683807174.864592
-1.3829234,0.07209661,-0.41272807,-0.58065414,-0.69734573,2.3988533,-7.7015753,5.286748,-2.984363,0,1683807174.880217
-1.221851,0.10236687,-0.43201852,-0.67438126,-0.6782532,3.2373238,-7.3096547,5.9435062,-2.7228787,0,1683807174.9114673
-0.9502224,0.15995014,-0.49058753,-0.7851982,-1.1128426,4.0309334,-6.697398,6.7439775,-2.4153693,0,1683807174.927092
-1.0912764,0.11724419,-0.5347645,-0.76704025,-0.8826637,3.7837982,-6.697398,6.7439775,-2.4153693,0,1683807174.942717
-0.5414222,0.26343924,-0.2997302,-1.6213989,-0.18918991,5.0162697,-4.7443256,8.42073,-1.659241,0,1683807174.9583418
-0.43794823,0.30273297,-0.24188913,-1.7077827,-0.057144165,5.130291,-4.3159666,8.674466,-1.5154077,0,1683807174.973967
-0.20779717,0.4062069,0.018759677,-1.877079,0.31576157,5.204792,-2.9133136,9.305558,-1.0438318,0,1683807175.005217
-0.18388124,0.35788974,0.16178516,-1.7694664,0.4754448,5.25486,-1.9255996,9.5893755,-0.71157074,0,1683807175.020842
-0.16166383,0.3398277,0.15910086,-1.7215347,0.5160332,5.3124046,-1.6694306,9.642879,-0.6311058,0,1683807175.0520778
0.39087462,0.3012619,0.0973471,-1.987896,1.2904167,6.062355,0.87852347,9.766502,0.118358485,0,1683807175.0677037
0.5155954,0.30224767,0.14909166,-2.108326,1.3916206,6.0899925,1.1785904,9.732864,0.22947878,0,1683807175.0833278
1.2709416,0.61219937,0.5327475,-2.2893715,1.5172577,5.962219,2.069443,9.566868,0.6023645,0,1683807175.098953
1.5035343,0.740575,0.62671274,-1.9069862,1.353302,5.0971794,3.559868,9.045211,1.2968727,0,1683807175.161467
1.5035343,0.740575,0.62671274,-0.4911995,-1.7924309,-0.2280426,4.683428,8.448578,1.6903946,0,1683807175.1770923
2.0084834,0.8728482,0.41291004,-0.4911995,-1.7924309,-0.2280426,4.683428,8.448578,1.6903946,0,1683807175.1770923
1.8015205,0.81524974,0.7060281,-0.4911995,-1.7924309,-0.2280426,4.683428,8.448578,1.6903946,0,1683807175.192717
1.71074,0.7603356,0.7592285,0.101070404,-2.3666763,-1.4403534,4.6298847,8.510054,1.5210303,0,1683807175.208342
1.71074,0.7603356,0.7592285,0.101070404,-2.3666763,-1.4403534,3.9809906,8.899959,1.0549089,0,1683807175.2552168
0.8802186,0.73276484,0.33359468,0.49627304,0.80041885,-1.316719,3.9809906,8.899959,1.0549089,0,1683807175.2552168
0.8802186,0.73276484,0.33359468,0.49627304,0.80041885,-1.316719,3.800957,8.977144,1.0648897,0,1683807175.270842
0.87265104,0.77254385,0.23206191,0.38131714,1.0614395,-1.3849449,3.800957,8.977144,1.0648897,0,1683807175.270842
0.90803206,0.8225747,0.23621725,0.43352127,0.65128326,-1.7641258,3.5183146,9.092113,1.0608226,0,1683807175.2864673
0.79186463,0.8674796,0.27428254,0.7498169,0.23471832,-2.3063278,2.9321043,9.313359,0.9135037,0,1683807175.3333418
0.7022974,0.84112203,0.23036337,1.1184502,0.3604889,-3.0744362,2.4093025,9.477216,0.7402744,0,1683807175.3489673
0.7022974,0.84112203,0.23036337,1.1184502,0.3604889,-3.0744362,1.7887017,9.627858,0.5246916,0,1683807175.3645923
0.50265926,0.78864956,0.19668089,1.3176537,0.17503738,-3.4600258,1.7887017,9.627858,0.5246916,0,1683807175.3645923
0.42090225,0.757894,0.118578754,1.5808105,-0.059280396,-3.6763191,0.7331996,9.779015,0.060598917,0,1683807175.395842
0.20881325,0.6866315,0.066591546,1.7299461,-0.37570953,-4.1780663,-0.44218615,9.785742,-0.46272874,0,1683807175.411467
0.20514321,0.70566416,0.12614632,1.7117882,-0.19880295,-4.3047714,-0.85345197,9.74949,-0.62405664,0,1683807175.427092
0.109964766,0.6370859,0.059281792,2.1431732,-0.07423401,-4.9365616,-2.1843226,9.488091,-1.1727098,0,1683807175.473967
-0.4757709,0.35423487,-0.22138542,2.117672,-1.4686584,-4.803314,-4.0978026,8.7111635,-1.8692374,0,1683807175.489578
-0.47796988,0.41524553,-0.1742815,1.9174004,-1.191616,-4.675541,-4.530699,8.467807,-1.9847927,0,1683807175.5052028
-0.4708876,0.42207,-0.16867027,1.6542435,-0.5811882,-4.6137238,-4.935081,8.2116585,-2.093806,0,1683807175.5208282
-0.7884069,0.20315653,-0.2367632,1.1524963,0.732193,-4.5487022,-5.660969,7.6600776,-2.3338892,0,1683807175.552078
-1.1923238,0.120914236,-0.6875414,1.0906792,1.3362122,-3.8488197,-6.4938817,6.781202,-2.8311105,0,1683807175.5677028
-1.1923238,0.120914236,-0.6875414,1.089611,1.0560989,-3.6966133,-6.6088696,6.636246,-2.907484,0,1683807175.583328
-1.2433252,0.11383196,-0.7519643,1.089611,1.0560989,-3.6966133,-6.6088696,6.636246,-2.907484,0,1683807175.583328
-1.2291759,0.17044464,-0.6414081,1.1993599,-0.5897331,-2.946663,-6.936786,6.220901,-3.0580647,0,1683807175.5989535
-1.739251,-0.031134695,-0.65190256,-0.33245087,-0.62711716,-0.110816956,-8.038287,4.4737816,-3.3972936,0,1683807175.692717
-1.7182621,-0.026251415,-0.5913772,-0.3559494,-0.7101631,0.040454865,-8.0543375,4.47214,-3.36125,0,1683807175.708342
-1.6599357,-0.0062481705,-0.4610604,-0.68078995,-0.27557373,0.7733154,-8.067145,4.5679784,-3.197675,0,1683807175.723967
-1.5725675,0.028404912,-0.42907643,-0.7426071,-0.22016525,1.4860153,-8.037085,4.6545143,-3.1482008,0,1683807175.7552168
-1.5725675,0.028404912,-0.42907643,-0.7426071,-0.22016525,1.4860153,-7.9922247,4.7642045,-3.0979185,0,1683807175.770842
-1.4378375,0.055005133,-0.40394726,-0.5721092,-0.8379364,2.5650787,-7.787183,5.2160583,-2.8849452,0,1683807175.7864668
-1.2369862,0.10797809,-0.4029615,-0.60949326,-0.84114075,2.8346443,-7.567349,5.624267,-2.6968927,0,1683807175.802092
-0.9636438,0.1714304,-0.35244533,-1.1868095,-0.38305283,4.100094,-6.576344,6.927,-2.2223322,0,1683807175.848967
-0.7959745,0.2212186,-0.26923245,-1.2890816,-0.39052963,4.5049095,-5.982624,7.508709,-1.9994721,0,1683807175.864592
-0.70566416,0.24977517,-0.27484366,-1.3136482,-0.37036896,4.6647263,-5.6446824,7.7954187,-1.8813282,0,1683807175.9739509
-0.16289224,0.4110902,-0.15085086,-1.8984413,0.118694305,5.0226784,-2.7159774,9.380951,-0.88972497,0,1683807175.9895785
0.39917013,0.5931667,0.23256236,-2.1008492,0.77798843,5.109997,-0.20566761,9.804237,0.07080113,0,1683807176.0052037
0.39917013,0.5931667,0.23256236,-2.0794868,1.3043022,4.7424316,1.2701033,9.695693,0.7421339,0,1683807176.0520782
0.47751492,0.566794,0.27990896,-2.0794868,1.3043022,4.7424316,1.2701033,9.695693,0.7421339,0,1683807176.0520782
1.1320866,0.7874363,0.41145417,-1.8653297,0.99321365,4.2396164,2.3803244,9.42535,1.2911997,0,1683807176.0833287
1.74832,1.0336779,0.5525233,-0.28772354,-1.3428879,-0.38038254,3.9568126,8.737609,2.041618,0,1683807176.1302032
1.6248276,0.9514356,0.6447748,0.1436615,-1.4185905,-1.3635826,3.8697603,8.797523,1.9490864,0,1683807176.161453
1.204077,0.7801114,0.68625236,0.4345894,-0.9243202,-1.4765358,3.6810994,8.904899,1.8228207,0,1683807176.2239523
1.204077,0.7801114,0.68625236,0.49093246,-0.35434723,-1.3231277,3.5785453,8.957676,1.7676111,0,1683807176.2395778
0.8431087,0.87870204,0.41902173,0.61670303,0.48826218,-1.5490341,3.0171854,9.190512,1.6129112,0,1683807176.2552044
0.8431087,0.87870204,0.41902173,0.5197716,0.5308533,-1.3476944,2.942726,9.218511,1.5905418,0,1683807176.270827
0.7674634,0.84941757,0.43048683,0.9149742,0.08024216,-2.091236,2.6846051,9.313161,1.4927566,0,1683807176.286453
0.7674634,0.84941757,0.43048683,1.0140419,-0.028438568,-2.2126007,2.6846051,9.313161,1.4927566,0,1683807176.3020787
0.5202209,0.8011004,0.22913498,1.6850853,-0.0028038025,-2.9593468,1.3916795,9.6767435,0.770873,0,1683807176.317703
0.47995657,0.7842516,0.11369547,1.7278099,0.036582947,-3.2608223,0.62336034,9.780263,0.3581368,0,1683807176.3333275
0.30447698,0.7525254,0.08099873,1.9760132,-0.32777786,-4.116249,-0.09655432,9.806171,0.008342361,0,1683807176.3645787
0.1255852,0.6883452,-0.07032225,2.0856285,-0.45021057,-4.4337463,-1.3186944,9.70068,-0.5729309,0,1683807176.3802032
0.08459295,0.66320086,-0.09813571,2.0740128,-0.4587555,-4.5018387,-1.5359834,9.662358,-0.6708106,0,1683807176.395828
0.08459295,0.66320086,-0.09813571,1.9493103,-0.32030106,-4.692631,-2.4206805,9.446042,-1.0406582,0,1683807176.411453
-0.04842332,0.5584985,-0.11107185,1.9493103,-0.32030106,-4.692631,-2.4206805,9.446042,-1.0406582,0,1683807176.411453
-0.04842332,0.5584985,-0.11107185,1.9493103,-0.32030106,-4.692631,-2.6419952,9.376512,-1.1275178,0,1683807176.458342
-0.6615023,0.25343004,-0.3197486,1.5029716,0.7173729,-4.757519,-5.7622027,7.568255,-2.385151,0,1683807176.4739673
-0.72616786,0.20681141,-0.29728857,1.445427,0.81430435,-4.6915627,-5.9317975,7.4100246,-2.464894,0,1683807176.489592
-0.8855417,0.1455581,-0.41175747,1.5136528,1.0954857,-4.329338,-6.531978,6.7568684,-2.801499,0,1683807176.505217
-0.9458244,0.12896709,-0.48961696,1.5136528,1.0954857,-4.329338,-6.531978,6.7568684,-2.801499,0,1683807176.5364673
-1.3902483,-0.031134695,-0.6650814,1.2239265,0.118694305,-3.3769798,-7.6286526,5.0787497,-3.490036,0,1683807176.552092
-1.429542,-0.04211449,-0.6699646,1.1695862,-0.08478165,-3.0690956,-7.793642,4.7776594,-3.5501409,0,1683807176.567717
-1.5488942,-0.05260899,-0.69656485,1.0587692,-0.15407562,-2.7389145,-8.0017395,4.3702073,-3.611626,0,1683807176.583342
-1.8434681,-0.13852133,-0.6814449,0.04032135,0.5255127,-0.9982872,-8.248126,3.761755,-3.740055,0,1683807176.6145923
-1.7621964,-0.16073874,-0.7329316,-0.44433594,0.50855637,0.06061554,-8.2438135,3.6657474,-3.843465,0,1683807176.630217
-1.667746,-0.12265826,-0.72634983,-0.477314,0.07917404,0.648613,-8.205886,3.7390625,-3.85399,0,1683807176.661467
-1.5767076,-0.10802359,-0.6875414,-0.49760818,-0.54073334,1.1280632,-8.15433,4.004167,-3.6937685,0,1683807176.6927173
-1.543283,-0.10166926,-0.6194485,-0.49760818,-0.54073334,1.1280632,-8.1435175,4.065942,-3.6498806,0,1683807176.7083437
-1.5283905,-0.07506904,-0.54354537,-0.5423355,-0.8358002,1.4933586,-8.09403,4.287989,-3.502888,0,1683807176.7239678
-1.5283905,-0.07506904,-0.54354537,-0.65101624,-0.8965492,2.090969,-8.09403,4.287989,-3.502888,0,1683807176.7395933
-1.5154543,-0.07189946,-0.5369484,-0.65101624,-0.8965492,2.090969,-8.068639,4.375394,-3.4530256,0,1683807176.7552173
-1.4639524,-0.068472065,-0.52719694,-0.78733444,-0.79000473,2.424488,-7.957795,4.6802497,-3.307439,0,1683807176.7864652
-0.7774271,0.08844498,-0.29290575,-1.6288757,-0.34900665,4.9139977,-6.320589,7.1366515,-2.299727,0,1683807176.8020928
-0.71397483,0.13409302,-0.2616649,-1.6949654,-0.1955986,4.989567,-6.1464443,7.307643,-2.2338226,0,1683807176.817717
-0.6309894,0.1990012,-0.25823748,-1.8663979,0.13885498,5.112133,-5.5818973,7.8012333,-2.0380304,0,1683807176.8333426
-0.5946226,0.20973834,-0.23139463,-1.9228745,0.07276535,5.184498,-4.968678,8.256072,-1.8220574,0,1683807176.8802037
-0.5946226,0.20973834,-0.23139463,-1.8728065,-0.2807808,5.2708817,-4.968678,8.256072,-1.8220574,0,1683807176.8958278
-0.45990783,0.21048145,-0.26580507,-1.8376923,-0.43952942,5.296383,-4.968678,8.256072,-1.8220574,0,1683807176.9114532
-0.45990783,0.21048145,-0.26580507,-1.8376923,-0.43952942,5.296383,-5.1764407,8.110266,-1.8969599,0,1683807176.9270794
-0.51530725,0.21486427,-0.25335422,-1.8376923,-0.43952942,5.296383,-5.1764407,8.110266,-1.8969599,0,1683807176.942703
-0.2229323,0.30418885,-0.22017218,-1.6981697,-0.88479996,5.3294945,-3.4017231,9.11613,-1.2226328,0,1683807176.958328
-0.2229323,0.30418885,-0.22017218,-1.673603,-0.945549,5.3006554,-3.4017231,9.11613,-1.2226328,0,1683807176.973953
-0.065514795,0.35056484,-0.1003347,-1.6746712,-0.9232521,5.2090645,-1.9693191,9.582452,-0.6846813,0,1683807176.98958
-0.021095159,0.42037144,0.041705023,-1.6832161,-0.66329956,5.0738144,-1.9693191,9.582452,-0.6846813,0,1683807177.0052025
1.477662,0.58241445,0.6189025,-1.853714,1.5460968,4.8639297,3.4271657,9.051495,1.5796766,0,1683807177.0208282
1.8686428,0.72299826,0.47417852,-1.4095116,1.1530304,3.9978218,4.013881,8.749736,1.8711678,0,1683807177.0364535
2.1134286,0.82306,0.4053425,-1.1271286,0.53512573,3.169098,4.326199,8.5692005,2.0057948,0,1683807177.0520785
2.2091074,0.85991204,0.37825698,-0.9844017,0.15274048,2.6875114,4.45588,8.491732,2.0508564,0,1683807177.0677063
2.2091074,0.85991204,0.37825698,-0.5295181,-1.1554337,1.0822678,4.45588,8.491732,2.0508564,0,1683807177.1145785
2.312824,0.94875133,0.62816864,0.12563705,-2.1748161,-0.8534241,4.8026013,8.356506,1.8094743,0,1683807177.1302018
1.0041963,0.68273395,0.5600757,0.7434082,0.35942078,-1.8578529,4.597333,8.523274,1.5455413,0,1683807177.1458287
0.78064215,0.78816426,0.36776248,1.6287422,-0.06996155,-3.3982086,2.5189745,9.437106,0.8753253,0,1683807177.223953
0.61955464,0.6888305,0.11076854,2.0547867,-0.03364563,-3.787136,1.6813675,9.652157,0.42338404,0,1683807177.2395785
0.36891505,0.67930657,-0.0693365,2.0590591,0.26769638,-4.759655,-0.35848546,9.784582,-0.5511988,0,1683807177.2864532
0.36891505,0.67930657,-0.0693365,2.077217,0.30080795,-4.860859,-0.35848546,9.784582,-0.5511988,0,1683807177.3020782
0.0428576,0.5250738,-0.18209171,2.0111275,0.052604675,-5.217743,-1.8061452,9.568621,-1.161782,0,1683807177.317703
0.0428576,0.5250738,-0.18209171,2.0111275,0.052604675,-5.217743,-2.304423,9.435232,-1.3551525,0,1683807177.3333282
-0.035972476,0.48479435,-0.124250636,2.0334244,-0.03364563,-5.2934456,-2.304423,9.435232,-1.3551525,0,1683807177.3333282
-0.035972476,0.48479435,-0.124250636,2.132492,-0.094394684,-5.3594017,-3.0526586,9.172098,-1.6505357,0,1683807177.4895778
-0.46674743,0.24245025,-0.40907317,2.3083305,-0.03791809,-5.405197,-4.7178597,8.267843,-2.3568943,0,1683807177.5052042
-1.0773696,0.08014947,-0.6074829,0.79774857,1.1199188,-4.22493,-3.7889345,8.830294,-1.9596618,0,1683807177.520828
-0.8125655,0.17825484,-0.5306092,0.7572937,1.107235,-4.1534996,-6.8274717,6.2163095,-3.3035617,0,1683807177.5364537
-0.8125655,0.17825484,-0.5306092,0.81056595,0.17183304,-3.0190277,-7.79574,4.6086226,-3.762634,0,1683807177.5520923
-1.4410223,-0.044798777,-0.6555726,0.81056595,0.17183304,-3.0190277,-7.79574,4.6086226,-3.762634,0,1683807177.5520923
-1.5025182,-0.08580618,-0.7436688,0.7380676,-0.22016525,-2.4629402,-7.923794,4.3630757,-3.7878017,0,1683807177.567717
-1.5647572,-0.11533334,-0.7507511,-0.1492691,-0.025234222,-1.1793327,-8.275784,3.6699195,-3.77008,0,1683807177.583342
-1.6762841,-0.15585546,-0.7771086,0.5219078,-0.37878036,-2.011261,-8.218596,3.7908387,-3.7755277,0,1683807177.598967
-1.5969687,-0.12901258,-0.54427326,-1.0248566,0.2751732,0.07556915,-8.33339,3.5406253,-3.766824,0,1683807177.614592
-1.5886732,-0.13095377,-0.48301998,-1.019516,0.20494461,0.3365898,-8.33339,3.5406253,-3.766824,0,1683807177.6302173
-1.5437683,-0.08215131,-0.44128463,-0.74367523,-0.44700623,0.92458725,-8.289375,3.791781,-3.6164958,0,1683807177.6614673
-1.4846988,-0.066773534,-0.5127898,-0.9396744,-0.89014053,2.4574661,-8.114911,4.538154,-3.118294,0,1683807177.677092
-1.3829234,-0.061647605,-0.413456,-1.2294006,-0.8038902,3.008213,-7.966898,4.904823,-2.9396646,0,1683807177.692717
-1.2486938,-0.027237171,-0.34903312,-1.5565109,-0.4086876,3.7177086,-7.83098,5.186923,-2.818149,0,1683807177.723967
-1.2247779,-0.023324482,-0.3351264,-1.7780113,-0.096530914,4.0564346,-7.4516907,5.824125,-2.5927312,0,1683807177.7395918
-1.2303891,-0.03456209,-0.34830517,-1.7780113,-0.096530914,4.0564346,-7.3310695,5.9975185,-2.5407813,0,1683807177.755217
-1.2303891,-0.03456209,-0.34830517,-1.7780113,-0.096530914,4.0564346,-5.711613,7.731754,-1.9410924,0,1683807177.770842
-0.8706492,-0.1460889,-0.20283806,-3.2566833,1.1199188,5.9451294,-5.711613,7.731754,-1.9410924,0,1683807177.770842
-0.5392232,-0.07409845,0.038050145,-3.624115,1.4055061,6.426716,-4.674896,8.487825,-1.5075032,0,1683807177.8020918
-0.22731511,-0.09264581,0.27185607,-4.132271,2.5292969,6.8751907,-2.841464,9.362305,-0.66612864,0,1683807177.8177178
-0.080392115,-0.11484805,0.41682273,-4.4177246,3.022499,7.1318054,-1.4881608,9.692952,0.04935644,0,1683807177.8333418
0.42772672,-0.13900663,0.9320238,-4.777813,3.8246536,7.392826,0.5853039,9.68642,1.4145901,0,1683807177.864592
0.53194374,-0.09020417,1.007927,-4.8672676,4.211445,7.369461,0.9134561,9.61904,1.6763248,0,1683807177.880217
0.53194374,-0.09020417,1.007927,-5.6630135,6.583729,6.7536926,2.2468748,8.987311,3.2171679,0,1683807177.8958426
0.7074233,-0.086048834,1.1416712,-5.6630135,6.583729,6.7536926,2.2468748,8.987311,3.2171679,0,1683807177.8958426
0.69644356,-0.054565333,1.2639351,-5.7748985,6.790409,6.376648,2.5890791,8.611224,3.9132931,0,1683807177.911467
0.8304304,-0.043828186,1.3359407,-5.5384445,6.536865,5.9355164,3.0728683,7.338103,5.7341185,0,1683807177.942717
0.8304304,-0.043828186,1.3359407,-5.5384445,6.536865,5.9355164,3.1237426,6.9406796,6.1838164,0,1683807177.958342
0.86948144,0.10797809,1.5243565,-2.7697563,3.9429474,2.9410553,2.9846218,5.9515905,7.200069,0,1683807177.973967
0.063846596,-0.21466713,0.9461732,-1.2336731,1.7506409,2.025013,2.3932385,5.1146855,8.017655,0,1683807178.0364673
0.18659586,-0.10435355,1.257596,-1.0483551,1.5886879,2.1816254,2.1836498,4.6331754,8.36276,0,1683807178.052092
0.2707945,0.03720088,1.4206247,-1.0483551,1.5886879,2.1816254,1.9903692,4.419052,8.525303,0,1683807178.067717
0.27811942,0.13579156,1.3505906,-0.25154114,2.6666832,2.127285,1.9903692,4.419052,8.525303,0,1683807178.083342
0.2912982,0.17948325,1.3049426,-0.25154114,2.6666832,2.127285,1.9903692,4.419052,8.525303,0,1683807178.098967
0.3057054,0.24733353,1.0904119,0.25447845,2.243843,1.8748093,1.6519393,4.33936,8.637791,0,1683807178.114593
0.38990405,0.34690994,1.045507,0.30347824,0.9249878,1.2153816,1.5020638,4.3626647,8.6534,0,1683807178.1302018
0.37037092,0.37546653,1.1782806,0.30347824,0.9249878,1.2153816,1.5020638,4.3626647,8.6534,0,1683807178.1458273
0.37037092,0.37546653,1.1782806,0.30347824,0.9249878,1.2153816,1.3134239,4.3420177,8.694377,0,1683807178.2083285
0.32645175,0.47478512,0.8873615,0.30347824,0.9249878,1.2153816,1.0421597,4.323087,8.740436,0,1683807178.2239523
-0.0008341004,0.81573504,1.1018922,0.36956787,0.86544037,0.63806534,-0.20433964,4.0135856,8.945377,0,1683807178.239579
-0.027434321,0.7783977,0.92372835,0.83927155,-0.025234222,0.963974,-0.11905363,4.36383,8.781412,0,1683807178.302092
-0.027434321,0.7783977,0.92372835,1.1056328,0.52337646,0.9415436,-0.11075355,4.4650116,8.730509,0,1683807178.3177013
0.25737306,0.7605783,0.5800941,0.47718048,0.68746567,0.38238525,-0.18884623,4.6993804,8.605263,0,1683807178.3333285
0.25737306,0.7605783,0.5800941,0.09466171,0.28692245,0.09572983,-0.18884623,4.6993804,8.605263,0,1683807178.3802044
-0.037443526,0.61633956,0.9742445,0.20334244,0.46689987,0.2512741,-0.25475106,4.7535257,8.573767,0,1683807178.3958285
-0.037443526,0.61633956,0.9742445,0.17463684,0.29119492,0.17036438,-0.25475106,4.7535257,8.573767,0,1683807178.4114535
-0.03500189,0.5714346,0.8883321,0.17463684,0.29119492,0.17036438,-0.25475106,4.7535257,8.573767,0,1683807178.4270802
-0.010600658,0.5955932,0.8034055,0.14152527,0.8175087,0.34606934,-0.39364874,4.828476,8.526502,0,1683807178.4427032
-0.010600658,0.5955932,0.8034055,0.11388779,0.84194183,0.33124924,-0.39364874,4.828476,8.526502,0,1683807178.4583275
0.01113145,0.6119567,0.7631412,0.11388779,0.84194183,0.33124924,-0.4207453,4.835651,8.521141,0,1683807178.4739535
0.05260899,0.62170815,0.7028585,0.027637482,0.7268524,0.19172668,-0.5001206,4.850304,8.508514,0,1683807178.4895782
0.026494063,0.5902246,0.686495,0.014820099,0.6193733,0.13525009,-0.5219699,4.8532004,8.50555,0,1683807178.5052032
-0.021580454,0.5562995,0.6979752,-0.0491333,0.3114891,0.006275177,-0.5219699,4.8532004,8.50555,0,1683807178.5208297
-0.021580454,0.5562995,0.6979752,-0.0491333,0.3114891,0.006275177,-0.56851524,4.8560867,8.500917,0,1683807178.5364535
-0.045739036,0.52336013,0.82586557,-0.16622543,0.25180817,0.0041389465,-0.61213446,4.832849,8.511125,0,1683807178.5520792
-0.08283376,0.4657617,1.0799174,-0.1779747,0.49573898,0.06702423,-0.61213446,4.832849,8.511125,0,1683807178.5677044
-0.09748359,0.47894046,1.0220764,-0.1779747,0.49573898,0.06702423,-0.61213446,4.832849,8.511125,0,1683807178.5833268
-0.0218231,0.526287,1.1484957,0.012683868,1.1029625,0.10000229,-0.77867836,4.798878,8.516738,0,1683807178.5989532
-0.0218231,0.526287,1.1484957,0.012683868,1.1029625,0.10000229,-0.75971967,4.9110794,8.454261,0,1683807178.6145797
