acc_x,acc_y,acc_z,gyr_x,gyr_y,gyr_z,grav_x,grav_y,grav_z,label,timestamp
0.57757664,0.7801114,0.18570109,0.6534195,-0.44660568,-2.5889778,-0.38714612,9.58239,2.0489771,0,1683900375.7611208
0.57757664,0.7801114,0.18570109,0.60655594,-0.41456223,-2.79459,-0.38714612,9.58239,2.0489771,0,1683900375.7666597
0.57757664,0.7801114,0.18570109,0.60655594,-0.41456223,-2.79459,-0.75118816,9.578024,1.9666111,0,1683900375.7801926
0.57757664,0.7801114,0.18570109,0.5969429,-0.45194626,-2.8915215,-0.75118816,9.578024,1.9666111,0,1683900375.7853374
0.57757664,0.7801114,0.18570109,0.7109642,-0.7831955,-3.2366562,-0.75118816,9.578024,1.9666111,0,1683900375.8058834
0.57757664,0.7801114,0.18570109,0.7109642,-0.7831955,-3.2366562,-1.2921801,9.5413885,1.8607938,0,1683900375.811012
0.57757664,0.7801114,0.18570109,0.77705383,-0.87371826,-3.317566,-1.2921801,9.5413885,1.8607938,0,1683900375.8161066
0.45823961,0.6700405,0.23962948,0.77705383,-0.87371826,-3.317566,-1.2921801,9.5413885,1.8607938,0,1683900375.8263662
0.4299257,0.6275772,0.25110972,0.77705383,-0.87371826,-3.317566,-1.2921801,9.5413885,1.8607938,0,1683900375.84175
0.4299257,0.6275772,0.25110972,0.92725754,-1.043148,-3.4869957,-1.2921801,9.5413885,1.8607938,0,1683900375.8673625
0.36061954,0.5526446,0.22767909,0.92725754,-1.043148,-3.4869957,-1.2921801,9.5413885,1.8607938,0,1683900375.8776374
0.36061954,0.5526446,0.22767909,0.92725754,-1.043148,-3.4869957,-1.7333429,9.489221,1.7665279,0,1683900375.8827682
0.27616307,0.4726013,0.16372633,0.92725754,-1.043148,-3.4869957,-1.7333429,9.489221,1.7665279,0,1683900375.8981504
0.27616307,0.4726013,0.16372633,1.0432816,-1.1848068,-3.651085,-1.7333429,9.489221,1.7665279,0,1683900375.9135025
0.27616307,0.4726013,0.16372633,1.0432816,-1.1848068,-3.651085,-2.0450556,9.440135,1.6946948,0,1683900375.9186344
0.27616307,0.4726013,0.16372633,1.0432816,-1.1848068,-3.651085,-2.206473,9.410284,1.6578354,0,1683900375.9340339
0.27616307,0.4726013,0.16372633,1.0721207,-1.2476921,-3.7245178,-2.206473,9.410284,1.6578354,0,1683900375.9391634
0.22419102,0.4342782,0.09930345,1.0721207,-1.2476921,-3.7245178,-2.206473,9.410284,1.6578354,0,1683900375.9442954
-0.10333746,0.31322747,-0.035411354,1.0721207,-1.2476921,-3.7245178,-2.206473,9.410284,1.6578354,0,1683900375.9801438
-0.10333746,0.31322747,-0.035411354,1.0721207,-1.2476921,-3.7245178,-2.8710449,9.249429,1.541287,0,1683900375.9955387
-0.10333746,0.31322747,-0.035411354,0.90589523,-1.5267372,-3.8565636,-2.8710449,9.249429,1.541287,0,1683900376.0006695
-0.23147045,0.26685148,-0.02443156,0.90589523,-1.5267372,-3.8565636,-2.8710449,9.249429,1.541287,0,1683900376.010907
-0.23147045,0.26685148,-0.02443156,0.67905426,-1.5555763,-3.795948,-2.8710449,9.249429,1.541287,0,1683900376.0210824
-0.23147045,0.26685148,-0.02443156,0.67905426,-1.5555763,-3.795948,-3.1998358,9.144738,1.5182911,0,1683900376.026211
-0.2851562,0.24977517,0.009978875,0.67905426,-1.5555763,-3.795948,-3.1998358,9.144738,1.5182911,0,1683900376.0415626
-0.2851562,0.24977517,0.009978875,0.67905426,-1.5555763,-3.795948,-3.3609464,9.086822,1.5179294,0,1683900376.051827
-0.2851562,0.24977517,0.009978875,0.5543518,-1.5502357,-3.7426758,-3.3609464,9.086822,1.5179294,0,1683900376.0569618
-0.2851562,0.24977517,0.009978875,0.27317047,-1.4980316,-3.5370636,-3.3609464,9.086822,1.5179294,0,1683900376.0774546
-0.42354104,0.2317131,0.121748336,0.27317047,-1.4980316,-3.5370636,-3.3609464,9.086822,1.5179294,0,1683900376.0825825
-0.42354104,0.2317131,0.121748336,0.27317047,-1.4980316,-3.5370636,-3.820569,8.897325,1.5528187,0,1683900376.0928373
-0.46112105,0.25611433,0.18154575,0.27317047,-1.4980316,-3.5370636,-3.820569,8.897325,1.5528187,0,1683900376.123626
-0.46112105,0.25611433,0.18154575,0.14846802,-1.4276695,-3.3580208,-3.820569,8.897325,1.5528187,0,1683900376.1338868
-0.46112105,0.25611433,0.18154575,0.14846802,-1.4276695,-3.3580208,-4.381051,8.617762,1.6464942,0,1683900376.1390147
-0.5150646,0.28882623,0.19082701,0.14846802,-1.4276695,-3.3580208,-4.381051,8.617762,1.6464942,0,1683900376.1441407
-0.5150646,0.28882623,0.19082701,0.14846802,-1.4276695,-3.3580208,-4.6429906,8.467885,1.705269,0,1683900376.1748698
-0.5150646,0.28882623,0.19082701,0.089855194,-1.4436913,-3.2621574,-4.6429906,8.467885,1.705269,0,1683900376.1799974
-0.5150646,0.28882623,0.19082701,0.089855194,-1.4436913,-3.2621574,-4.7700863,8.390347,1.7374588,0,1683900376.2004251
-0.5150646,0.28882623,0.19082701,0.07610321,-1.4606476,-3.244133,-4.7700863,8.390347,1.7374588,0,1683900376.2055311
-0.5441065,0.27222005,0.1900839,0.07610321,-1.4606476,-3.244133,-4.7700863,8.390347,1.7374588,0,1683900376.210626
-0.5441065,0.27222005,0.1900839,0.07610321,-1.4606476,-3.244133,-5.018505,8.228771,1.8089505,0,1683900376.226007
-0.5441065,0.27222005,0.1900839,0.03458023,-1.4969635,-3.1951332,-5.018505,8.228771,1.8089505,0,1683900376.231145
-0.6539347,0.2339121,0.21522824,0.03458023,-1.4969635,-3.1951332,-5.018505,8.228771,1.8089505,0,1683900376.2516618
-0.7276389,0.21316575,0.23865889,0.03458023,-1.4969635,-3.1951332,-5.018505,8.228771,1.8089505,0,1683900376.261922
-0.7276389,0.21316575,0.23865889,0.03458023,-1.4969635,-3.1951332,-5.1388474,8.14538,1.848083,0,1683900376.2670534
-0.7276389,0.21316575,0.23865889,0.016422272,-1.5055084,-3.1472015,-5.1388474,8.14538,1.848083,0,1683900376.2721918
-0.99169993,0.1985159,0.22889233,0.016422272,-1.5055084,-3.1472015,-5.1388474,8.14538,1.848083,0,1683900376.2926502
-0.99169993,0.1985159,0.22889233,-0.05821228,-1.5107155,-2.8339767,-5.1388474,8.14538,1.848083,0,1683900376.308038
-0.99169993,0.1985159,0.22889233,-0.05821228,-1.5107155,-2.8339767,-5.578156,7.8092327,2.0175352,0,1683900376.3182979
-1.078598,0.21853432,0.25427932,-0.05821228,-1.5107155,-2.8339767,-5.578156,7.8092327,2.0175352,0,1683900376.338798
-1.078598,0.21853432,0.25427932,-0.1316452,-1.5107155,-2.6283646,-5.578156,7.8092327,2.0175352,0,1683900376.3490286
-1.078598,0.21853432,0.25427932,-0.1316452,-1.5107155,-2.6283646,-5.7680874,7.6441364,2.1134667,0,1683900376.3541565
-1.078598,0.21853432,0.25427932,-0.1316452,-1.5107155,-2.6283646,-5.8554907,7.5628667,2.1648724,0,1683900376.3797612
-1.1217892,0.24073654,0.27331197,-0.1316452,-1.5107155,-2.6283646,-5.8554907,7.5628667,2.1648724,0,1683900376.3900218
-1.1217892,0.24073654,0.27331197,-0.18064499,-1.501236,-2.5292969,-5.8554907,7.5628667,2.1648724,0,1683900376.3951578
-1.1217892,0.24073654,0.27331197,-0.31269073,-1.4501,-2.3493195,-5.8554907,7.5628667,2.1648724,0,1683900376.4054081
-1.1217892,0.24073654,0.27331197,-0.31269073,-1.4501,-2.3493195,-6.016445,7.402444,2.2752147,0,1683900376.4104998
-1.2645569,0.28955418,0.45880073,-0.31269073,-1.4501,-2.3493195,-6.016445,7.402444,2.2752147,0,1683900376.425856
-1.2645569,0.28955418,0.45880073,-0.3809166,-1.3882828,-2.2586632,-6.016445,7.402444,2.2752147,0,1683900376.446356
-1.2645569,0.28955418,0.45880073,-0.3809166,-1.3882828,-2.2586632,-6.0908937,7.3229194,2.3337214,0,1683900376.4617336
-1.2645569,0.28955418,0.45880073,-0.3809166,-1.3882828,-2.2586632,-6.2922683,7.0931354,2.503032,0,1683900376.4771252
-1.4427208,0.28588414,0.6118203,-0.3809166,-1.3882828,-2.2586632,-6.2922683,7.0931354,2.503032,0,1683900376.4822514
-1.4427208,0.28588414,0.6118203,-0.4235077,-1.159172,-1.9605255,-6.2922683,7.0931354,2.503032,0,1683900376.4976175
-1.6548097,0.2878405,0.77583474,-0.4235077,-1.159172,-1.9605255,-6.2922683,7.0931354,2.503032,0,1683900376.5130272
-1.6548097,0.2878405,0.77583474,-0.30641556,-1.1561012,-1.7048454,-6.2922683,7.0931354,2.503032,0,1683900376.5181646
-1.6548097,0.2878405,0.77583474,-0.30641556,-1.1561012,-1.7048454,-6.4029627,6.954911,2.6080015,0,1683900376.5232522
-1.6548097,0.2878405,0.77583474,-0.0815773,-1.2359428,-1.3990974,-6.4029627,6.954911,2.6080015,0,1683900376.5386307
-1.6548097,0.2878405,0.77583474,-0.0815773,-1.2359428,-1.3990974,-6.4897485,6.8361545,2.7056496,0,1683900376.5642788
-1.7341251,0.29199582,0.82732147,-0.0815773,-1.2359428,-1.3990974,-6.4897485,6.8361545,2.7056496,0,1683900376.5694215
-1.7341251,0.29199582,0.82732147,-0.0815773,-1.2359428,-1.3990974,-6.570525,6.7102222,2.8233814,0,1683900376.5899076
-1.7341251,0.29199582,0.82732147,0.29546738,-1.1687851,-0.85582733,-6.570525,6.7102222,2.8233814,0,1683900376.595038
-1.8690977,0.34154138,0.89956975,0.29546738,-1.1687851,-0.85582733,-6.570525,6.7102222,2.8233814,0,1683900376.6001663
-1.8690977,0.34154138,0.89956975,0.29546738,-1.1687851,-0.85582733,-6.61175,6.6443634,2.882286,0,1683900376.6565516
-1.886902,0.4210994,0.7533747,0.29546738,-1.1687851,-0.85582733,-6.61175,6.6443634,2.882286,0,1683900376.671953
-1.886902,0.4210994,0.7533747,0.4329872,-0.76717377,-0.40308,-6.61175,6.6443634,2.882286,0,1683900376.677084
-1.886902,0.4210994,0.7533747,0.30187607,-0.18344879,-0.07810593,-6.61175,6.6443634,2.882286,0,1683900376.6873004
-1.9147307,0.43671983,0.70798445,0.30187607,-0.18344879,-0.07810593,-6.61175,6.6443634,2.882286,0,1683900376.692435
-1.9147307,0.43671983,0.70798445,0.30187607,-0.18344879,-0.07810593,-6.629871,6.613027,2.893059,0,1683900376.7078233
-1.9147307,0.42915225,0.6894371,0.30187607,-0.18344879,-0.07810593,-6.629871,6.613027,2.893059,0,1683900376.718085
-1.9147307,0.42915225,0.6894371,0.2539444,0.026435852,0.029506683,-6.629871,6.613027,2.893059,0,1683900376.7231865
-1.9147307,0.42915225,0.6894371,0.2539444,0.026435852,0.029506683,-6.6464787,6.608074,2.8858392,0,1683900376.7385395
-1.9147307,0.42915225,0.6894371,0.19105911,0.5142975,0.3883934,-6.6464787,6.608074,2.8858392,0,1683900376.7487578
-1.9147307,0.42915225,0.6894371,0.19105911,0.5142975,0.3883934,-6.662331,6.615535,2.8316824,0,1683900376.7538931
-1.8888583,0.424269,0.55129486,0.19105911,0.5142975,0.3883934,-6.662331,6.615535,2.8316824,0,1683900376.774412
-1.8888583,0.424269,0.55129486,0.19212723,0.71777344,0.80602646,-6.662331,6.615535,2.8316824,0,1683900376.8205147
-1.873981,0.38376203,0.4656252,0.19212723,0.71777344,0.80602646,-6.662331,6.615535,2.8316824,0,1683900376.8307674
-1.873981,0.38376203,0.4656252,0.19212723,0.71777344,0.80602646,-6.6515636,6.661721,2.7474635,0,1683900376.8512452
-1.873981,0.38376203,0.4656252,0.22417068,0.7507515,1.1511612,-6.6515636,6.661721,2.7474635,0,1683900376.8665829
-1.873981,0.38376203,0.4656252,0.22417068,0.7507515,1.1511612,-6.619421,6.7576513,2.6504934,0,1683900376.8768437
-1.8539627,0.35300648,0.42901576,0.22417068,0.7507515,1.1511612,-6.619421,6.7576513,2.6504934,0,1683900376.8871074
-1.8539627,0.35300648,0.42901576,0.22417068,0.7507515,1.1511612,-6.560938,6.80244,2.6174963,0,1683900376.9025035
-1.7997764,0.34568155,0.41242474,0.22417068,0.7507515,1.1511612,-6.560938,6.80244,2.6174963,0,1683900376.9076364
-1.7997764,0.34568155,0.41242474,0.25180817,0.7422066,1.5326118,-6.560938,6.80244,2.6174963,0,1683900376.9127696
-1.7997764,0.34568155,0.41242474,0.2614212,0.78172684,2.1386337,-6.560938,6.80244,2.6174963,0,1683900376.9333065
-1.6391894,0.3717965,0.40802675,0.2614212,0.78172684,2.1386337,-6.560938,6.80244,2.6174963,0,1683900376.9487002
-1.6391894,0.3717965,0.40802675,0.2614212,0.78172684,2.1386337,-6.417261,6.9749603,2.5177507,0,1683900376.958965
-1.6391894,0.3717965,0.40802675,0.2614212,0.78172684,2.1386337,-6.2041063,7.201257,2.412746,0,1683900377.0204833
-1.3409605,0.4508692,0.3911931,0.2614212,0.78172684,2.1386337,-6.2041063,7.201257,2.412746,0,1683900377.0255713
-1.3409605,0.4508692,0.3911931,0.24646759,0.88920593,2.6638794,-6.2041063,7.201257,2.412746,0,1683900377.0307047
-1.0861504,0.49090603,0.41169682,0.24646759,0.88920593,2.6638794,-6.2041063,7.201257,2.412746,0,1683900377.0409138
-1.0861504,0.49090603,0.41169682,0.24646759,0.88920593,2.6638794,-5.9382987,7.456626,2.3034143,0,1683900377.0613842
-1.0861504,0.49090603,0.41169682,0.23485184,1.0021591,2.9600143,-5.9382987,7.456626,2.3034143,0,1683900377.0665138
-1.0195285,0.4972452,0.42170602,0.23485184,1.0021591,2.9600143,-5.9382987,7.456626,2.3034143,0,1683900377.0819147
-1.0195285,0.4972452,0.42170602,0.23485184,1.0021591,2.9600143,-5.8420234,7.543725,2.2656934,0,1683900377.087047
-1.0195285,0.4972452,0.42170602,0.24232864,1.0500908,3.0207634,-5.8420234,7.543725,2.2656934,0,1683900377.0921798
-0.8150071,0.4745425,0.38655248,0.24232864,1.0500908,3.0207634,-5.8420234,7.543725,2.2656934,0,1683900377.117845
-0.8150071,0.4745425,0.38655248,0.24232864,1.0500908,3.0207634,-5.5360713,7.8063035,2.1410084,0,1683900377.122978
-0.8150071,0.4745425,0.38655248,0.31255722,1.2173843,3.1123543,-5.5360713,7.8063035,2.1410084,0,1683900377.128111
0.21662347,0.55679995,0.10442937,0.31255722,1.2173843,3.1123543,-5.5360713,7.8063035,2.1410084,0,1683900377.1537006
0.21662347,0.55679995,0.10442937,-0.5396652,1.9981766,2.9429245,-5.5360713,7.8063035,2.1410084,0,1683900377.1588316
0.21662347,0.55679995,0.10442937,-0.5396652,1.9981766,2.9429245,-1.4604905,9.591202,1.4304556,0,1683900377.1844106
0.25640246,0.5865698,0.1620278,-0.5396652,1.9981766,2.9429245,-1.4604905,9.591202,1.4304556,0,1683900377.189542
0.25640246,0.5865698,0.1620278,-0.7153702,2.052517,2.762947,-1.4604905,9.591202,1.4304556,0,1683900377.1946828
0.25640246,0.5865698,0.1620278,-0.7388687,1.959858,2.70113,-1.4604905,9.591202,1.4304556,0,1683900377.2049246
0.25640246,0.5865698,0.1620278,-0.7388687,1.959858,2.70113,-1.2213237,9.617626,1.4764898,0,1683900377.215186
0.26397005,0.595851,0.17496394,-0.7388687,1.959858,2.70113,-1.2213237,9.617626,1.4764898,0,1683900377.2202845
0.26397005,0.595851,0.17496394,-0.7153702,1.8469048,2.7032661,-1.2213237,9.617626,1.4764898,0,1683900377.2356215
0.26397005,0.595851,0.17496394,-0.7153702,1.8469048,2.7032661,-1.1012855,9.628286,1.5012186,0,1683900377.240751
0.2803184,0.61684,0.18739963,-0.7153702,1.8469048,2.7032661,-1.1012855,9.628286,1.5012186,0,1683900377.2509732
0.2803184,0.61684,0.18739963,-0.54180145,1.3750648,2.761879,-1.1012855,9.628286,1.5012186,0,1683900377.2815986
0.2803184,0.61684,0.18739963,-0.54180145,1.3750648,2.761879,-0.72592753,9.652738,1.5710104,0,1683900377.2918189
0.38819033,0.676137,0.20644744,-0.54180145,1.3750648,2.761879,-0.72592753,9.652738,1.5710104,0,1683900377.3020048
0.38819033,0.676137,0.20644744,-0.54180145,1.3750648,2.761879,-0.5954367,9.658389,1.5910228,0,1683900377.33789
0.6041769,0.83502555,0.26184687,-0.54180145,1.3750648,2.761879,-0.5954367,9.658389,1.5910228,0,1683900377.348113
0.6041769,0.83502555,0.26184687,-0.54180145,1.3750648,2.761879,-0.19431141,9.667269,1.6360164,0,1683900377.358376
0.6041769,0.83502555,0.26184687,-0.2381897,0.7657051,2.7640152,-0.19431141,9.667269,1.6360164,0,1683900377.368669
0.7376784,0.9321603,0.26160422,-0.2381897,0.7657051,2.7640152,-0.19431141,9.667269,1.6360164,0,1683900377.3789253
0.7376784,0.9321603,0.26160422,-0.2381897,0.7657051,2.7640152,0.070452854,9.666405,1.6510736,0,1683900377.3943129
0.7376784,0.9321603,0.26160422,-0.102939606,0.61977386,2.6307678,0.070452854,9.666405,1.6510736,0,1683900377.3994327
0.6022357,0.9550905,0.30503812,-0.102939606,0.61977386,2.6307678,0.070452854,9.666405,1.6510736,0,1683900377.4198895
0.6022357,0.9550905,0.30503812,0.06435394,-1.0303307,-2.4685478,0.070452854,9.666405,1.6510736,0,1683900377.435237
0.6022357,0.9550905,0.30503812,0.20814896,-1.2241936,-2.5538635,0.070452854,9.666405,1.6510736,0,1683900377.4455235
0.5448799,0.9148262,0.33652163,0.20814896,-1.2241936,-2.5538635,0.070452854,9.666405,1.6510736,0,1683900377.4557834
0.5448799,0.9148262,0.33652163,0.20814896,-1.2241936,-2.5538635,0.33008328,9.673803,1.5744743,0,1683900377.4609165
0.5448799,0.9148262,0.33652163,0.2890587,-1.3200569,-2.5932503,0.33008328,9.673803,1.5744743,0,1683900377.48655
0.5448799,0.9148262,0.33652163,0.2890587,-1.3200569,-2.5932503,0.22168739,9.679058,1.561116,0,1683900377.4916844
0.52364826,0.8989631,0.34360388,0.2890587,-1.3200569,-2.5932503,0.22168739,9.679058,1.561116,0,1683900377.496781
0.52364826,0.8989631,0.34360388,0.2890587,-1.3200569,-2.5932503,-0.11929502,9.689984,1.5034518,0,1683900377.5069835
0.52364826,0.8989631,0.34360388,0.50748825,-1.5352821,-2.784977,-0.11929502,9.689984,1.5034518,0,1683900377.527503
0.49167946,0.88261473,0.33066773,0.50748825,-1.5352821,-2.784977,-0.11929502,9.689984,1.5034518,0,1683900377.5326355
0.49167946,0.88261473,0.33066773,0.58639526,-1.4980316,-3.183384,-0.11929502,9.689984,1.5034518,0,1683900377.5685456
0.49167946,0.88261473,0.33066773,0.58639526,-1.4980316,-3.183384,-0.6389065,9.683507,1.4113342,0,1683900377.5890381
0.34084377,0.740575,0.28941768,0.58639526,-1.4980316,-3.183384,-0.6389065,9.683507,1.4113342,0,1683900377.5941718
0.34084377,0.740575,0.28941768,0.58639526,-1.4980316,-3.183384,-0.9340171,9.664972,1.3734298,0,1683900377.5992665
0.34084377,0.740575,0.28941768,0.5299187,-1.3371468,-3.3633614,-0.9340171,9.664972,1.3734298,0,1683900377.6146235
0.20441526,0.69078684,0.25744888,0.5299187,-1.3371468,-3.3633614,-0.9340171,9.664972,1.3734298,0,1683900377.6300213
0.14267667,0.67565167,0.22913498,0.5299187,-1.3371468,-3.3633614,-0.9340171,9.664972,1.3734298,0,1683900377.6556466
0.14267667,0.67565167,0.22913498,0.49467087,-1.2508965,-3.4262466,-0.9340171,9.664972,1.3734298,0,1683900377.6607788
0.14267667,0.67565167,0.22913498,0.49467087,-1.2508965,-3.4262466,-1.0874629,9.651151,1.3576046,0,1683900377.6659148
0.025038179,0.608044,0.19423924,0.49467087,-1.2508965,-3.4262466,-1.0874629,9.651151,1.3576046,0,1683900377.6812692
0.025038179,0.608044,0.19423924,-0.07944107,-0.46142578,-0.9090996,-1.0874629,9.651151,1.3576046,0,1683900377.6915298
0.025038179,0.608044,0.19423924,-0.07944107,-0.46142578,-0.9090996,-6.30899,7.26603,1.8899355,0,1683900377.6966639
-1.8046597,0.31956664,0.49369645,-0.07944107,-0.46142578,-0.9090996,-6.30899,7.26603,1.8899355,0,1683900377.7222557
-1.8046597,0.31956664,0.49369645,-0.060214996,-0.38585663,-0.22403717,-6.30899,7.26603,1.8899355,0,1683900377.7324924
-1.8046597,0.31956664,0.49369645,-0.060214996,-0.38585663,-0.22403717,-6.4154077,7.1527686,1.9623551,0,1683900377.7376242
-1.8046597,0.31956664,0.49369645,-0.050735474,-0.27183533,0.1594162,-6.4154077,7.1527686,1.9623551,0,1683900377.7427611
-1.743649,0.3476379,0.53226227,-0.050735474,-0.27183533,0.1594162,-6.4154077,7.1527686,1.9623551,0,1683900377.7580771
-1.743649,0.3476379,0.53226227,-0.050735474,-0.27183533,0.1594162,-6.423837,7.13722,1.9911772,0,1683900377.7683327
-1.743649,0.3476379,0.53226227,-0.050735474,-0.27183533,0.1594162,-6.419038,7.1384935,2.0020623,0,1683900377.7991176
-1.743649,0.3476379,0.53226227,-0.04005432,-0.20587921,0.32670975,-6.419038,7.1384935,2.0020623,0,1683900377.804243
-1.6980162,0.36789894,0.5342186,-0.04005432,-0.20587921,0.32670975,-6.419038,7.1384935,2.0020623,0,1683900377.809379
-1.5962408,0.41476023,0.5503243,-0.04005432,-0.20587921,0.32670975,-6.419038,7.1384935,2.0020623,0,1683900377.824731
-1.5962408,0.41476023,0.5503243,-0.04005432,-0.20587921,0.32670975,-6.3792815,7.169626,2.0178225,0,1683900377.834981
-1.5962408,0.41476023,0.5503243,0.029239655,-0.010814667,0.6877327,-6.3792815,7.169626,2.0178225,0,1683900377.8452325
-1.5962408,0.41476023,0.5503243,0.029239655,-0.010814667,0.6877327,-6.359956,7.187185,2.0163674,0,1683900377.8606198
-1.5962408,0.41476023,0.5503243,0.029239655,-0.010814667,0.6877327,-6.2875233,7.2589073,1.9863784,0,1683900377.8965418
-1.5962408,0.41476023,0.5503243,0.12723923,0.35661697,1.0585022,-6.2875233,7.2589073,1.9863784,0,1683900377.9016798
-1.557675,0.4132892,0.4309721,0.12723923,0.35661697,1.0585022,-6.2875233,7.2589073,1.9863784,0,1683900377.9170449
-1.5610873,0.38253364,0.35141408,0.12723923,0.35661697,1.0585022,-6.2875233,7.2589073,1.9863784,0,1683900377.9221804
-1.5610873,0.38253364,0.35141408,0.12723923,0.35661697,1.0585022,-6.225628,7.322026,1.9493264,0,1683900377.9375484
-1.5610873,0.38253364,0.35141408,0.08678436,0.5718422,1.284275,-6.225628,7.322026,1.9493264,0,1683900377.9478145
0.16463625,0.6624729,0.112239584,0.08678436,0.5718422,1.284275,-6.225628,7.322026,1.9493264,0,1683900377.9631803
0.16463625,0.6624729,0.112239584,0.08678436,0.5718422,1.284275,-1.8998098,9.531477,1.3084518,0,1683900377.9683118
0.16463625,0.6624729,0.112239584,-0.32444,1.4165878,2.8001976,-1.8998098,9.531477,1.3084518,0,1683900377.9888384
0.16463625,0.6624729,0.112239584,-0.32444,1.4165878,2.8001976,-1.5301405,9.594083,1.3351489,0,1683900377.9990745
0.24542268,0.7354491,0.1612847,-0.32444,1.4165878,2.8001976,-1.5301405,9.594083,1.3351489,0,1683900378.0042114
0.24542268,0.7354491,0.1612847,-0.32444,1.4165878,2.8001976,-1.2930695,9.625125,1.3621075,0,1683900378.0298624
0.29593885,0.7542391,0.1813031,-0.32444,1.4165878,2.8001976,-1.2930695,9.625125,1.3621075,0,1683900378.0349984
0.29593885,0.7542391,0.1813031,-0.47250748,1.4420891,2.5509262,-1.2930695,9.625125,1.3621075,0,1683900378.0504067
0.31717047,0.7588797,0.19131231,-0.47250748,1.4420891,2.5509262,-1.2930695,9.625125,1.3621075,0,1683900378.080985
0.31717047,0.7588797,0.19131231,-0.47250748,1.4420891,2.5509262,-1.1780614,9.637821,1.3765728,0,1683900378.0861218
0.31717047,0.7588797,0.19131231,-0.4607582,1.4133835,2.4965858,-1.1780614,9.637821,1.3765728,0,1683900378.0911932
0.31717047,0.7588797,0.19131231,-0.4607582,1.4133835,2.4965858,-0.84902436,9.665933,1.421015,0,1683900378.1116703
0.36256072,0.7757134,0.16983801,-0.4607582,1.4133835,2.4965858,-0.84902436,9.665933,1.421015,0,1683900378.1219342
0.36256072,0.7757134,0.16983801,-0.42564392,1.385746,2.2899055,-0.84902436,9.665933,1.421015,0,1683900378.1270666
0.3013074,0.7683885,0.11369547,-0.42564392,1.385746,2.2899055,-0.84902436,9.665933,1.421015,0,1683900378.168082
0.3013074,0.7683885,0.11369547,-0.5385971,1.4730644,2.0279503,-0.84902436,9.665933,1.421015,0,1683900378.1936858
0.3013074,0.7683885,0.11369547,-0.5385971,1.4730644,2.0279503,-0.46729556,9.680388,1.4973654,0,1683900378.2039533
0.3135156,0.78376627,0.07415911,-0.5385971,1.4730644,2.0279503,-0.46729556,9.680388,1.4973654,0,1683900378.209078
0.3135156,0.78376627,0.07415911,-0.5385971,1.4730644,2.0279503,-0.2842892,9.679712,1.5468462,0,1683900378.2193036
0.3135156,0.78376627,0.07415911,-0.5897331,1.3909531,2.039566,-0.2842892,9.679712,1.5468462,0,1683900378.234682
0.3135156,0.78376627,0.07415911,0.44887543,-0.9280586,-2.2917747,-0.2842892,9.679712,1.5468462,0,1683900378.2603402
0.52144927,1.0166016,0.15591612,0.44887543,-0.9280586,-2.2917747,-0.2842892,9.679712,1.5468462,0,1683900378.2706203
0.52144927,1.0166016,0.15591612,0.44887543,-0.9280586,-2.2917747,0.41219366,9.688341,1.4616843,0,1683900378.2757645
0.52144927,1.0166016,0.15591612,0.3604889,-0.9269905,-2.4578667,0.41219366,9.688341,1.4616843,0,1683900378.2809012
0.52144927,1.0166016,0.15591612,0.3604889,-0.9269905,-2.4578667,0.09654837,9.705496,1.4015738,0,1683900378.301465
0.3852634,0.9306893,0.14299515,0.3604889,-0.9269905,-2.4578667,0.09654837,9.705496,1.4015738,0,1683900378.3117962
0.3852634,0.9306893,0.14299515,0.3604889,-0.9269905,-2.4578667,-0.35302806,9.707985,1.3419316,0,1683900378.3631897
0.3852634,0.9306893,0.14299515,0.34553528,-1.0281944,-2.580433,-0.35302806,9.707985,1.3419316,0,1683900378.3734937
0.3852634,0.9306893,0.14299515,0.34553528,-1.0281944,-2.580433,-0.58654356,9.700805,1.3117702,0,1683900378.3786125
0.3852634,0.9306893,0.14299515,0.42337418,-1.1049652,-2.6454544,-0.58654356,9.700805,1.3117702,0,1683900378.383756
0.21490976,0.80743957,0.25355136,0.42337418,-1.1049652,-2.6454544,-0.58654356,9.700805,1.3117702,0,1683900378.388911
0.21490976,0.80743957,0.25355136,0.48826218,-1.1561012,-2.6784325,-0.58654356,9.700805,1.3117702,0,1683900378.4146194
0.17488812,0.77375704,0.24402745,0.48826218,-1.1561012,-2.6784325,-0.58654356,9.700805,1.3117702,0,1683900378.4197257
0.17488812,0.77375704,0.24402745,0.48826218,-1.1561012,-2.6784325,-0.7061889,9.695279,1.2935361,0,1683900378.424865
0.17488812,0.77375704,0.24402745,0.7163048,-1.4490318,-2.6784325,-0.7061889,9.695279,1.2935361,0,1683900378.445445
0.090932116,0.7147027,0.18423004,0.7163048,-1.4490318,-2.6784325,-0.7061889,9.695279,1.2935361,0,1683900378.4557412
0.090932116,0.7147027,0.18423004,0.7163048,-1.4490318,-2.6784325,-1.0641577,9.671754,1.2227571,0,1683900378.4660544
0.090932116,0.7147027,0.18423004,0.78666687,-1.5693283,-2.6720238,-1.0641577,9.671754,1.2227571,0,1683900378.4763668
0.090932116,0.7147027,0.18423004,0.78666687,-1.5693283,-2.6720238,-1.18125,9.661662,1.1947066,0,1683900378.4866793
0.07555433,0.7039656,0.16715373,0.78666687,-1.5693283,-2.6720238,-1.18125,9.661662,1.1947066,0,1683900378.5073738
0.07555433,0.7039656,0.16715373,0.91978073,-1.853714,-2.6539993,-1.18125,9.661662,1.1947066,0,1683900378.5176785
-1.3248396,0.48699334,0.32261488,0.91978073,-1.853714,-2.6539993,-1.18125,9.661662,1.1947066,0,1683900378.5383532
-1.3248396,0.48699334,0.32261488,0.91978073,-1.853714,-2.6539993,-5.594932,7.884138,1.6454419,0,1683900378.543509
-1.3248396,0.48699334,0.32261488,-0.17210007,-0.71710587,-1.0837364,-5.594932,7.884138,1.6454419,0,1683900378.5486884
-1.3287523,0.51530725,0.30992138,-0.17210007,-0.71710587,-1.0837364,-5.594932,7.884138,1.6454419,0,1683900378.553853
-1.3287523,0.51530725,0.30992138,-0.17210007,-0.71710587,-1.0837364,-5.6843863,7.8074427,1.7035156,0,1683900378.5693104
-1.3287523,0.51530725,0.30992138,-0.17210007,-0.71710587,-1.0837364,-5.7672787,7.7343664,1.7574042,0,1683900378.5795557
-1.3287523,0.51530725,0.30992138,-0.25421143,-0.5414009,-0.97932816,-5.7672787,7.7343664,1.7574042,0,1683900378.58981
-1.4239308,0.51579255,0.40193024,-0.25421143,-0.5414009,-0.97932816,-5.7672787,7.7343664,1.7574042,0,1683900378.620598
-1.4239308,0.51579255,0.40193024,-0.2818489,-0.42524338,-0.86423874,-5.7672787,7.7343664,1.7574042,0,1683900378.6257463
-1.4239308,0.51579255,0.40193024,-0.2818489,-0.42524338,-0.86423874,-5.843432,7.6650996,1.808573,0,1683900378.6360567
-1.4583412,0.5062686,0.44390824,-0.2818489,-0.42524338,-0.86423874,-5.843432,7.6650996,1.808573,0,1683900378.646337
-1.4583412,0.5062686,0.44390824,-0.27650833,-0.37090302,-0.7897377,-5.843432,7.6650996,1.808573,0,1683900378.6566849
-1.4583412,0.5062686,0.44390824,-0.27650833,-0.37090302,-0.7897377,-5.910394,7.602686,1.8538569,0,1683900378.6721687
-1.5593886,0.45990783,0.49809444,-0.27650833,-0.37090302,-0.7897377,-5.910394,7.602686,1.8538569,0,1683900378.6824832
-1.5593886,0.45990783,0.49809444,-0.19880295,-0.16635895,-0.49467087,-5.910394,7.602686,1.8538569,0,1683900378.6876407
-1.5593886,0.45990783,0.49809444,-0.19880295,-0.16635895,-0.49467087,-5.9655123,7.551109,1.8878033,0,1683900378.6927748
-1.5593886,0.45990783,0.49809444,-0.13912201,-0.03217697,-0.25714874,-5.9655123,7.551109,1.8878033,0,1683900378.7183459
-1.5593886,0.45990783,0.49809444,-0.13912201,-0.03217697,-0.25714874,-6.006629,7.513272,1.9082826,0,1683900378.7285745
-1.6218704,0.41744453,0.4729501,-0.13912201,-0.03217697,-0.25714874,-6.006629,7.513272,1.9082826,0,1683900378.7388685
-1.6218704,0.41744453,0.4729501,-0.13912201,-0.03217697,-0.25714874,-6.02139,7.499902,1.9143455,0,1683900378.7593498
-1.6218704,0.41744453,0.4729501,-0.13912201,-0.03217697,-0.25714874,-6.038186,7.485244,1.9188038,0,1683900378.7644465
-1.6218704,0.41744453,0.4729501,-0.119895935,0.024299622,-0.13031006,-6.038186,7.485244,1.9188038,0,1683900378.7695718
-1.6218704,0.41744453,0.4729501,-0.11041641,0.25327682,0.32670975,-6.038186,7.485244,1.9188038,0,1683900378.7746987
0.008932457,0.67736536,0.3313957,-0.11041641,0.25327682,0.32670975,-6.038186,7.485244,1.9188038,0,1683900378.8054316
0.008932457,0.67736536,0.3313957,-0.11041641,0.25327682,0.32670975,-2.8600345,9.249719,1.5599047,0,1683900378.8156302
0.008932457,0.67736536,0.3313957,-0.80495834,1.8415642,2.7256966,-2.8600345,9.249719,1.5599047,0,1683900378.831021
-0.025477977,0.6736953,0.33310938,-0.80495834,1.8415642,2.7256966,-2.8600345,9.249719,1.5599047,0,1683900378.8514934
-0.025477977,0.6736953,0.33310938,-0.6941414,1.7446327,2.5243568,-2.8600345,9.249719,1.5599047,0,1683900378.8565888
-0.025477977,0.6736953,0.33310938,-0.6941414,1.7446327,2.5243568,-2.5371246,9.336917,1.5985541,0,1683900378.861684
-0.025477977,0.6736953,0.33310938,-0.6312561,1.6786766,2.5445175,-2.5371246,9.336917,1.5985541,0,1683900378.887243
-0.025477977,0.6736953,0.33310938,-0.6312561,1.6786766,2.5445175,-2.3248124,9.38806,1.6217206,0,1683900378.8974743
-0.07795048,0.671739,0.26842868,-0.6312561,1.6786766,2.5445175,-2.3248124,9.38806,1.6217206,0,1683900378.9026058
-0.07795048,0.671739,0.26842868,-0.61416626,1.6083145,2.6106071,-2.3248124,9.38806,1.6217206,0,1683900378.912839
-0.07795048,0.671739,0.26842868,-0.61416626,1.6083145,2.6106071,-2.2146566,9.412555,1.6338623,0,1683900378.917975
-0.0725819,0.6844325,0.24768233,-0.61416626,1.6083145,2.6106071,-2.2146566,9.412555,1.6338623,0,1683900378.928244
-0.0725819,0.6844325,0.24768233,-0.61416626,1.6083145,2.6106071,-1.846582,9.484682,1.6737146,0,1683900378.9538858
-0.0725819,0.6844325,0.24768233,-0.50668716,1.2759972,2.8673553,-1.846582,9.484682,1.6737146,0,1683900378.9590125
0.14974378,0.7525254,0.2569636,-0.50668716,1.2759972,2.8673553,-1.846582,9.484682,1.6737146,0,1683900378.969279
0.14974378,0.7525254,0.2569636,-0.50668716,1.2759972,2.8673553,-1.7138551,9.50724,1.6868486,0,1683900378.9897747
0.14974378,0.7525254,0.2569636,-0.4607582,1.1609077,2.915287,-1.7138551,9.50724,1.6868486,0,1683900379.0000453
0.34962457,0.8408794,0.29185933,-0.4607582,1.1609077,2.915287,-1.7138551,9.50724,1.6868486,0,1683900379.0051498
0.55390334,0.94386804,0.29430097,-0.4607582,1.1609077,2.915287,-1.7138551,9.50724,1.6868486,0,1683900379.0255785
0.55390334,0.94386804,0.29430097,-0.3532791,1.0331345,2.8427887,-1.7138551,9.50724,1.6868486,0,1683900379.0307033
0.55390334,0.94386804,0.29430097,-0.3532791,1.0331345,2.8427887,-1.3049628,9.565354,1.7237918,0,1683900379.0409155
0.67277026,1.0371053,0.28820446,-0.3532791,1.0331345,2.8427887,-1.3049628,9.565354,1.7237918,0,1683900379.0563097
0.67277026,1.0371053,0.28820446,-0.3532791,1.0331345,2.8427887,-1.0504571,9.592925,1.744337,0,1683900379.061454
0.67277026,1.0371053,0.28820446,-0.30000687,1.0342026,2.5796318,-1.0504571,9.592925,1.744337,0,1683900379.066606
0.39551526,1.0175722,0.28015158,-0.30000687,1.0342026,2.5796318,-1.0504571,9.592925,1.744337,0,1683900379.0819924
0.39551526,1.0175722,0.28015158,-0.30000687,1.0342026,2.5796318,0.005283947,9.691914,1.4957176,0,1683900379.0871162
0.39551526,1.0175722,0.28015158,0.28385162,-0.75021744,-1.9583893,0.005283947,9.691914,1.4957176,0,1683900379.1076286
0.39551526,1.0175722,0.28015158,0.28385162,-0.75021744,-1.9583893,-0.078977495,9.693409,1.4839039,0,1683900379.1178973
0.3681871,0.99756896,0.29625732,0.28385162,-0.75021744,-1.9583893,-0.078977495,9.693409,1.4839039,0,1683900379.1332402
0.28885657,0.93947005,0.27087033,0.28385162,-0.75021744,-1.9583893,-0.078977495,9.693409,1.4839039,0,1683900379.163956
0.28885657,0.93947005,0.27087033,0.5128288,-0.9759903,-2.030754,-0.078977495,9.693409,1.4839039,0,1683900379.1690738
0.28885657,0.93947005,0.27087033,0.5128288,-0.9759903,-2.030754,-0.33828297,9.696194,1.4282055,0,1683900379.174212
0.28885657,0.93947005,0.27087033,0.5735779,-1.043148,-2.0510483,-0.33828297,9.696194,1.4282055,0,1683900379.1946323
0.25785837,0.9231217,0.24842544,0.5735779,-1.043148,-2.0510483,-0.33828297,9.696194,1.4282055,0,1683900379.1997669
0.25785837,0.9231217,0.24842544,0.5735779,-1.043148,-2.0510483,-0.42621318,9.696272,1.4039344,0,1683900379.2048936
0.10947947,0.84552,0.15298918,0.5735779,-1.043148,-2.0510483,-0.42621318,9.696272,1.4039344,0,1683900379.256285
0.10947947,0.84552,0.15298918,0.5735779,-1.043148,-2.0510483,-0.88314354,9.684204,1.267529,0,1683900379.2614157
0.10947947,0.84552,0.15298918,0.67157745,-1.2380791,-2.1437073,-0.88314354,9.684204,1.267529,0,1683900379.276784
0.10947947,0.84552,0.15298918,0.67157745,-1.2380791,-2.1437073,-0.9778896,9.678423,1.2418721,0,1683900379.2818882
0.09141741,0.8325839,0.14152409,0.67157745,-1.2380791,-2.1437073,-0.9778896,9.678423,1.2418721,0,1683900379.292063
0.09141741,0.8325839,0.14152409,0.65769196,-1.237011,-2.159729,-0.9778896,9.678423,1.2418721,0,1683900379.3073103
0.013557923,0.7696169,0.073916465,0.65769196,-1.237011,-2.159729,-0.9778896,9.678423,1.2418721,0,1683900379.3327236
0.013557923,0.7696169,0.073916465,0.65769196,-1.237011,-2.159729,-1.2686539,9.653145,1.1737614,0,1683900379.347967
-0.002790445,0.7642483,0.05391322,0.65769196,-1.237011,-2.159729,-1.2686539,9.653145,1.1737614,0,1683900379.3530579
-0.002790445,0.7642483,0.05391322,0.65769196,-1.237011,-2.159729,-5.470226,7.851938,2.1433818,0,1683900379.373536
-0.002790445,0.7642483,0.05391322,-0.029373169,-1.2934875,-1.2679863,-5.470226,7.851938,2.1433818,0,1683900379.378636
-1.3255827,0.45403877,0.3404343,-0.029373169,-1.2934875,-1.2679863,-5.470226,7.851938,2.1433818,0,1683900379.3837655
-1.3255827,0.45403877,0.3404343,-0.13591766,-1.1848068,-0.9016228,-5.470226,7.851938,2.1433818,0,1683900379.4042616
-1.3255827,0.45403877,0.3404343,-0.13591766,-1.1848068,-0.9016228,-5.5698433,7.7485514,2.2599084,0,1683900379.4196513
-1.2901865,0.5397085,0.42170602,-0.13591766,-1.1848068,-0.9016228,-5.5698433,7.7485514,2.2599084,0,1683900379.424778
-1.2901865,0.5397085,0.42170602,-0.21575928,-0.848217,-0.77157974,-5.5698433,7.7485514,2.2599084,0,1683900379.470942
-1.2901865,0.5397085,0.42170602,-0.21575928,-0.848217,-0.77157974,-5.647965,7.657723,2.3727965,0,1683900379.476073
-1.2713965,0.57558995,0.5966851,-0.21575928,-0.848217,-0.77157974,-5.647965,7.657723,2.3727965,0,1683900379.4863305
-1.2713965,0.57558995,0.5966851,-0.2104187,-0.398674,-0.6960106,-5.647965,7.657723,2.3727965,0,1683900379.5017095
-1.2713965,0.57558995,0.5966851,-0.2104187,-0.398674,-0.6960106,-5.7311063,7.5692606,2.4558291,0,1683900379.5119727
-1.3885498,0.56436753,0.652585,-0.2104187,-0.398674,-0.6960106,-5.7311063,7.5692606,2.4558291,0,1683900379.5273173
-1.5984397,0.48699334,0.59912676,-0.2104187,-0.398674,-0.6960106,-5.7311063,7.5692606,2.4558291,0,1683900379.5580704
-1.5984397,0.48699334,0.59912676,-0.2104187,-0.398674,-0.6960106,-5.838009,7.470557,2.5057588,0,1683900379.5631876
-1.5984397,0.48699334,0.59912676,-0.18491745,0.106277466,-0.36462784,-5.838009,7.470557,2.5057588,0,1683900379.5683167
-1.5984397,0.48699334,0.59912676,-0.18064499,0.20427704,-0.22724152,-5.838009,7.470557,2.5057588,0,1683900379.5888767
-1.6345487,0.4723435,0.57448286,-0.18064499,0.20427704,-0.22724152,-5.838009,7.470557,2.5057588,0,1683900379.604317
-1.6860507,0.45502454,0.5471396,-0.18064499,0.20427704,-0.22724152,-5.838009,7.470557,2.5057588,0,1683900379.6249106
-0.022308396,0.6387996,0.21694194,-0.15928268,1.4442253,3.151741,-2.695929,9.27593,1.6909969,0,1683900379.6468947
-0.022308396,0.6387996,0.21694194,-0.15928268,1.4442253,3.151741,-2.299747,9.385966,1.6688942,0,1683900379.6524432
-0.022308396,0.6387996,0.21694194,-0.22216797,1.5156555,3.049469,-2.299747,9.385966,1.6688942,0,1683900379.657718
-0.25807068,0.5775463,0.17227966,-0.19773483,1.3121796,3.2732391,-3.3211756,9.090403,1.5826418,0,1683900379.6659236
-0.0113286,0.6348869,0.24255641,-0.19773483,1.3121796,3.2732391,-3.3211756,9.090403,1.5826418,0,1683900379.6860878
0.026494063,0.6429398,0.20326269,-0.008144379,1.3153839,2.905674,-2.4921355,9.364048,1.5080597,0,1683900379.6912875
0.026494063,0.6429398,0.20326269,-0.008144379,1.3153839,2.905674,-2.3635406,9.399704,1.4931928,0,1683900379.701703
0.01674267,0.62465024,0.15421759,-0.008144379,1.3153839,2.905674,-2.3635406,9.399704,1.4931928,0,1683900379.7068486
0.01674267,0.62465024,0.15421759,-0.008144379,1.3153839,2.905674,-1.9899799,9.49081,1.461127,0,1683900379.7223623
-0.0620874,0.5692356,0.075387515,-0.14339447,1.3962936,2.8513336,-1.9899799,9.49081,1.461127,0,1683900379.7223766
-0.042084157,0.5646102,0.06293667,-0.14339447,1.3962936,2.8513336,-1.9899799,9.49081,1.461127,0,1683900379.7378006
-0.042084157,0.5646102,0.06293667,-0.14339447,1.3962936,2.8513336,-1.7284486,9.542639,1.4563274,0,1683900379.7429433
-0.042084157,0.5646102,0.06293667,-0.19666672,1.3825417,2.9035378,-1.7284486,9.542639,1.4563274,0,1683900379.748152
-0.042084157,0.5646102,0.06293667,-0.31068802,1.2280655,3.049469,-1.4534541,9.587063,1.4649441,0,1683900379.7740304
0.09385905,0.61365527,0.10979795,-0.31068802,1.2280655,3.049469,-1.4534541,9.587063,1.4649441,0,1683900379.774045
0.09385905,0.61365527,0.10979795,-0.31068802,1.2280655,3.049469,-1.3127916,9.606079,1.4731622,0,1683900379.784335
0.09385905,0.61365527,0.10979795,-0.31068802,1.2280655,3.049469,-1.030288,9.637297,1.4937812,0,1683900379.7998183
0.26298428,0.697126,0.19960782,-0.31068802,1.2280655,3.049469,-1.030288,9.637297,1.4937812,0,1683900379.820375
0.26298428,0.697126,0.19960782,-0.32871246,1.131134,3.016491,-1.030288,9.637297,1.4937812,0,1683900379.8254771
0.26298428,0.697126,0.19960782,-0.32871246,1.131134,3.016491,-0.62833583,9.666173,1.5299324,0,1683900379.835795
0.302278,0.7254399,0.21571355,-0.32871246,1.131134,3.016491,-0.62833583,9.666173,1.5299324,0,1683900379.8512015
0.302278,0.7254399,0.21571355,-0.32764435,1.2109756,2.7969933,-0.62833583,9.666173,1.5299324,0,1683900379.8615544
0.3079044,0.736905,0.22255316,-0.32764435,1.2109756,2.7969933,-0.62833583,9.666173,1.5299324,0,1683900379.8769953
0.3079044,0.736905,0.22255316,-0.32764435,1.2109756,2.7969933,-0.5014735,9.671394,1.5437129,0,1683900379.8872666
0.3079044,0.736905,0.22255316,-0.3308487,1.2450218,2.7310371,-0.5014735,9.671394,1.5437129,0,1683900379.8976026
0.3437707,0.7364197,0.19985047,-0.3308487,1.2450218,2.7310371,-0.5014735,9.671394,1.5437129,0,1683900379.907884
0.3437707,0.7364197,0.19985047,-0.3308487,1.2450218,2.7310371,-0.13938934,9.676329,1.5873301,0,1683900379.9181967
0.3437707,0.7364197,0.19985047,-0.31162262,1.3014984,2.5744247,-0.13938934,9.676329,1.5873301,0,1683900379.923292
0.37793848,0.738376,0.1515333,-0.31162262,1.3014984,2.5744247,-0.13938934,9.676329,1.5873301,0,1683900379.9543602
0.37793848,0.738376,0.1515333,-0.31162262,1.3014984,2.5744247,0.0935691,9.671851,1.6176897,0,1683900379.964649
0.37793848,0.738376,0.1515333,-0.3085518,1.2781334,2.5222206,0.0935691,9.671851,1.6176897,0,1683900379.969793
0.37793848,0.738376,0.1515333,-0.32016754,1.2514305,2.5008583,0.0935691,9.671851,1.6176897,0,1683900379.9852211
0.40503916,0.7642483,0.11906405,-0.32016754,1.2514305,2.5008583,0.0935691,9.671851,1.6176897,0,1683900379.990356
0.40503916,0.7642483,0.11906405,-0.32016754,1.2514305,2.5008583,0.20922762,9.667301,1.6339802,0,1683900380.0006645
0.40503916,0.7642483,0.11906405,-0.32016754,1.2514305,2.5008583,0.5472754,9.644163,1.6914488,0,1683900380.0109797
0.50314456,0.81060916,0.13859716,-0.32016754,1.2514305,2.5008583,0.5472754,9.644163,1.6914488,0,1683900380.0316212
0.50314456,0.81060916,0.13859716,-0.37984848,1.09375,2.3741531,0.5472754,9.644163,1.6914488,0,1683900380.0418952
0.50314456,0.81060916,0.13859716,-0.37664413,0.9510231,2.1439743,0.5472754,9.644163,1.6914488,0,1683900380.088179
0.5917412,0.886027,0.22572275,-0.37664413,0.9510231,2.1439743,0.5472754,9.644163,1.6914488,0,1683900380.1035566
0.5917412,0.886027,0.22572275,-0.32657623,0.8733177,2.0459747,0.5472754,9.644163,1.6914488,0,1683900380.1189718
0.5917412,0.886027,0.22572275,-0.32657623,0.8733177,2.0459747,0.9657673,9.594706,1.7830597,0,1683900380.129219
0.600522,0.8801731,0.21450031,-0.32657623,0.8733177,2.0459747,0.9657673,9.594706,1.7830597,0,1683900380.1343694
0.600522,0.8801731,0.21450031,-0.32657623,0.8733177,2.0459747,1.1593271,9.565179,1.8258419,0,1683900380.139499
0.61467135,0.8848137,0.20669009,-0.32657623,0.8733177,2.0459747,1.1593271,9.565179,1.8258419,0,1683900380.154972
0.61467135,0.8848137,0.20669009,-0.32657623,0.8733177,2.0459747,1.2549851,9.5493145,1.8455361,0,1683900380.180701
0.61467135,0.8848137,0.20669009,-0.30427933,0.8072281,2.0279503,1.2549851,9.5493145,1.8455361,0,1683900380.1858375
0.76722074,0.96705604,0.21425766,-0.30427933,0.8072281,2.0279503,1.2549851,9.5493145,1.8455361,0,1683900380.20635
0.76722074,0.96705604,0.21425766,-0.15928268,0.38866043,2.0748138,1.2549851,9.5493145,1.8455361,0,1683900380.2115328
0.76722074,0.96705604,0.21425766,-0.15928268,0.38866043,2.0748138,1.5524731,9.497038,1.8885144,0,1683900380.2218044
0.76722074,0.96705604,0.21425766,0.09519577,-0.21535873,1.996975,1.5524731,9.497038,1.8885144,0,1683900380.27839
0.76722074,0.96705604,0.21425766,0.09519577,-0.21535873,1.996975,1.9789945,9.418295,1.8840637,0,1683900380.283527
1.145508,1.1286288,0.22425169,0.09519577,-0.21535873,1.996975,1.9789945,9.418295,1.8840637,0,1683900380.2886617
1.3385493,1.2360003,0.23133397,0.09519577,-0.21535873,1.996975,1.9789945,9.418295,1.8840637,0,1683900380.3092127
1.3385493,1.2360003,0.23133397,0.09519577,-0.21535873,1.996975,2.1817553,9.377845,1.861814,0,1683900380.3246346
1.3385493,1.2360003,0.23133397,0.16342163,-0.3634262,1.7647934,2.1817553,9.377845,1.861814,0,1683900380.329784
1.3385493,1.2360003,0.23133397,0.1826477,-0.39653778,1.5932274,2.1817553,9.377845,1.861814,0,1683900380.345193
1.4171367,1.2787215,0.24305686,0.1826477,-0.39653778,1.5932274,2.1817553,9.377845,1.861814,0,1683900380.360536
1.4171367,1.2787215,0.24305686,0.1826477,-0.39653778,1.5932274,2.272633,9.3589325,1.8482119,0,1683900380.3656774
1.582607,1.3809822,0.27892318,0.1826477,-0.39653778,1.5932274,2.272633,9.3589325,1.8482119,0,1683900380.3759465
1.582607,1.3809822,0.27892318,0.1826477,-0.39653778,1.5932274,2.4867945,9.312618,1.8059348,0,1683900380.3810945
1.582607,1.3809822,0.27892318,0.19319534,-0.34646988,0.92538834,2.4867945,9.312618,1.8059348,0,1683900380.3862295
1.582607,1.3809822,0.27892318,0.19319534,-0.34646988,0.92538834,2.5978642,9.292387,1.7530038,0,1683900380.452904
1.582607,1.3809822,0.27892318,0.20921707,-0.1695633,-0.14099121,2.5978642,9.292387,1.7530038,0,1683900380.468313
1.5301346,1.3775548,0.23938683,0.20921707,-0.1695633,-0.14099121,2.5978642,9.292387,1.7530038,0,1683900380.4734452
1.400303,1.3040932,0.1825315,0.20921707,-0.1695633,-0.14099121,2.5978642,9.292387,1.7530038,0,1683900380.4939115
1.400303,1.3040932,0.1825315,0.20708084,-0.13338089,-0.5905342,2.5978642,9.292387,1.7530038,0,1683900380.4990385
1.400303,1.3040932,0.1825315,0.20708084,-0.13338089,-0.5905342,2.5796595,9.302171,1.7278224,0,1683900380.5041924
1.1332998,1.172548,0.13419917,0.21562576,-0.3049469,-1.2221909,2.4403899,9.350077,1.6706125,0,1683900380.524846
0.84409446,1.046614,0.20790333,0.14846802,-0.820446,-1.6141891,2.0964396,9.449716,1.5742271,0,1683900380.5351777
0.84409446,1.046614,0.20790333,0.14846802,-0.820446,-1.6141891,2.0326264,9.466406,1.5575525,0,1683900380.545409
0.84409446,1.046614,0.20790333,0.15594482,-0.9280586,-1.6631889,2.0326264,9.466406,1.5575525,0,1683900380.550505
0.84409446,1.046614,0.20790333,0.29973984,-1.2241936,-1.8550491,2.0326264,9.466406,1.5575525,0,1683900380.5761182
0.84409446,1.046614,0.20790333,0.29973984,-1.2241936,-1.8550491,1.8259848,9.518469,1.494966,0,1683900380.586386
0.79283524,1.0180575,0.35337043,0.29973984,-1.2241936,-1.8550491,1.8259848,9.518469,1.494966,0,1683900380.5966194
0.73914945,0.96754134,0.3501857,0.29973984,-1.2241936,-1.8550491,1.8259848,9.518469,1.494966,0,1683900380.6427953
0.73914945,0.96754134,0.3501857,0.5895996,-1.4340782,-2.1959114,1.8259848,9.518469,1.494966,0,1683900380.6530962
0.73914945,0.96754134,0.3501857,0.5895996,-1.4340782,-2.1959114,1.5001867,9.594488,1.3658801,0,1683900380.6582267
0.68740493,0.93240297,0.31700367,0.5895996,-1.4340782,-2.1959114,1.5001867,9.594488,1.3658801,0,1683900380.6684456
0.68740493,0.93240297,0.31700367,0.5895996,-1.4340782,-2.1959114,1.3091594,9.633307,1.2868091,0,1683900380.673592
0.68740493,0.93240297,0.31700367,0.67905426,-1.4479637,-2.3758888,1.3091594,9.633307,1.2868091,0,1683900380.6889472
0.68740493,0.93240297,0.31700367,0.7034874,-1.441555,-2.4621391,1.3091594,9.633307,1.2868091,0,1683900380.7145765
0.68740493,0.93240297,0.31700367,0.7034874,-1.441555,-2.4621391,1.2059777,9.652132,1.2459264,0,1683900380.71972
0.66007674,0.9053023,0.30283913,0.7034874,-1.441555,-2.4621391,1.2059777,9.652132,1.2459264,0,1683900380.7248557
0.5431662,0.82794327,0.2259654,0.7034874,-1.441555,-2.4621391,1.2059777,9.652132,1.2459264,0,1683900380.7556386
0.5431662,0.82794327,0.2259654,0.71310043,-1.3893509,-2.6816368,1.2059777,9.652132,1.2459264,0,1683900380.7607274
0.5431662,0.82794327,0.2259654,0.71310043,-1.3893509,-2.6816368,0.86974406,9.702952,1.1254554,0,1683900380.765852
0.4089367,0.7500838,0.1083269,0.71310043,-1.3893509,-2.6816368,0.86974406,9.702952,1.1254554,0,1683900380.8171647
0.29228395,0.64344025,0.25720623,0.71310043,-1.3893509,-2.6816368,0.86974406,9.702952,1.1254554,0,1683900380.8222988
0.29228395,0.64344025,0.25720623,0.4319191,-1.0442162,-3.9046288,0.86974406,9.702952,1.1254554,0,1683900380.832514
0.29228395,0.64344025,0.25720623,0.4319191,-1.0442162,-3.9046288,-1.8518943,9.6076975,0.65805066,0,1683900380.8427315
0.061890252,0.5016432,0.13688347,0.4319191,-1.0442162,-3.9046288,-1.8518943,9.6076975,0.65805066,0,1683900380.8478262
0.061890252,0.5016432,0.13688347,0.29973984,-0.8779907,-4.0356064,-1.8518943,9.6076975,0.65805066,0,1683900380.8734224
0.061890252,0.5016432,0.13688347,0.29973984,-0.8779907,-4.0356064,-2.2276533,9.528395,0.646248,0,1683900380.8785594
-0.09431401,0.41645876,0.07098953,0.29973984,-0.8779907,-4.0356064,-2.2276533,9.528395,0.646248,0,1683900380.8939376
-0.27808908,0.3554481,0.019745432,0.29973984,-0.8779907,-4.0356064,-2.2276533,9.528395,0.646248,0,1683900380.9196029
-0.27808908,0.3554481,0.019745432,0.29973984,-0.8779907,-4.0356064,-2.6097834,9.43077,0.6480685,0,1683900380.9247267
-0.27808908,0.3554481,0.019745432,0.15274048,-0.80869675,-4.0600395,-2.6097834,9.43077,0.6480685,0,1683900380.929861
-0.27808908,0.3554481,0.019745432,0.15274048,-0.80869675,-4.0600395,-2.9850204,9.317483,0.66675085,0,1683900380.9400728
-0.43794823,0.31151375,0.05391322,0.15274048,-0.80869675,-4.0600395,-2.9850204,9.317483,0.66675085,0,1683900380.9605918
-0.5145793,0.29175317,0.09686181,0.15274048,-0.80869675,-4.0600395,-2.9850204,9.317483,0.66675085,0,1683900380.986241
-0.5145793,0.29175317,0.09686181,0.0153541565,-0.98667145,-3.8918114,-2.9850204,9.317483,0.66675085,0,1683900380.991337
-0.5145793,0.29175317,0.09686181,0.0153541565,-0.98667145,-3.8918114,-3.167161,9.256042,0.68203384,0,1683900380.9964604
-0.6758943,0.28394297,0.3003975,0.0153541565,-0.98667145,-3.8918114,-3.167161,9.256042,0.68203384,0,1683900381.0016084
-0.6758943,0.28394297,0.3003975,0.0153541565,-0.98667145,-3.8918114,-3.8268712,8.997255,0.75817984,0,1683900381.0067413
-0.6758943,0.28394297,0.3003975,0.15594482,-1.3200569,-3.5285187,-3.8268712,8.997255,0.75817984,0,1683900381.011872
-0.74984115,0.32323667,0.34213284,0.4978752,-1.5800095,-3.1994057,-4.1165156,8.865908,0.7876408,0,1683900381.0272505
-0.74984115,0.32323667,0.34213284,0.4978752,-1.5800095,-3.1994057,-4.517349,8.665753,0.8177193,0,1683900381.0426035
-0.74984115,0.32323667,0.34213284,0.6822586,-1.6833496,-3.0023384,-4.517349,8.665753,0.8177193,0,1683900381.0477383
-0.8438063,0.338114,0.21034497,0.6822586,-1.6833496,-3.0023384,-4.517349,8.665753,0.8177193,0,1683900381.0528717
-0.8438063,0.338114,0.21034497,0.6822586,-1.6833496,-3.0023384,-5.8423414,7.8143125,0.9868892,0,1683900381.0682144
-1.2755519,0.51970524,0.22400905,0.6822586,-1.6833496,-3.0023384,-5.8423414,7.8143125,0.9868892,0,1683900381.0836318
-1.2755519,0.51970524,0.22400905,0.12937546,0.6634331,2.1323586,-5.8423414,7.8143125,0.9868892,0,1683900381.0887227
-1.2042742,0.53775215,0.23694518,0.12937546,0.6634331,2.1323586,-5.8423414,7.8143125,0.9868892,0,1683900381.1092472
-1.2042742,0.53775215,0.23694518,0.12937546,0.6634331,2.1323586,-5.7641363,7.875122,0.9631027,0,1683900381.1246386
-1.2042742,0.53775215,0.23694518,0.12830734,0.69747925,2.2398376,-5.7641363,7.875122,0.9631027,0,1683900381.129729
-1.2042742,0.53775215,0.23694518,0.12830734,0.69747925,2.2398376,-5.5078683,8.065514,0.8838907,0,1683900381.155342
-0.99902487,0.5348252,0.23793094,0.12830734,0.69747925,2.2398376,-5.5078683,8.065514,0.8838907,0,1683900381.160478
-0.99902487,0.5348252,0.23793094,0.15167236,1.019249,2.475357,-5.5078683,8.065514,0.8838907,0,1683900381.1809666
-0.99902487,0.5348252,0.23793094,0.15167236,1.019249,2.475357,-5.326263,8.193074,0.821486,0,1683900381.1860983
-0.9375289,0.526287,0.19789413,0.15167236,1.019249,2.475357,-5.326263,8.193074,0.821486,0,1683900381.201453
-0.9209379,0.5209185,0.18765743,0.15167236,1.019249,2.475357,-5.326263,8.193074,0.821486,0,1683900381.2116728
-0.9209379,0.5209185,0.18765743,0.1325798,1.1044312,2.5019264,-5.326263,8.193074,0.821486,0,1683900381.2321866
-0.9209379,0.5209185,0.18765743,0.1325798,1.1044312,2.5019264,-5.232785,8.256333,0.78822684,0,1683900381.2373226
-0.9209379,0.5209185,0.18765743,0.024967194,1.3314056,2.66922,-5.232785,8.256333,0.78822684,0,1683900381.242423
-0.91092867,0.47284395,0.14152409,0.024967194,1.3314056,2.66922,-5.232785,8.256333,0.78822684,0,1683900381.2526426
-0.90067685,0.4557525,0.12102039,0.024967194,1.3314056,2.66922,-5.232785,8.256333,0.78822684,0,1683900381.288543
-0.90067685,0.4557525,0.12102039,-0.014419556,1.3718605,2.7799034,-5.232785,8.256333,0.78822684,0,1683900381.2988079
-0.90067685,0.4557525,0.12102039,-0.014419556,1.3718605,2.7799034,-4.83117,8.5088415,0.65558195,0,1683900381.303902
-0.7227556,0.49308985,0.06903318,-0.014419556,1.3718605,2.7799034,-4.83117,8.5088415,0.65558195,0,1683900381.3141637
-0.7227556,0.49308985,0.06903318,-0.014419556,1.3718605,2.7799034,-4.460981,8.714395,0.5739018,0,1683900381.3295126
-0.7227556,0.49308985,0.06903318,-0.05607605,1.1992264,3.5225105,-4.460981,8.714395,0.5739018,0,1683900381.3653674
-0.15946484,0.5799728,0.16812432,-0.05607605,1.1992264,3.5225105,-4.460981,8.714395,0.5739018,0,1683900381.3755972
-0.15946484,0.5799728,0.16812432,-0.05607605,1.1992264,3.5225105,-2.8893209,9.361452,0.4306062,0,1683900381.3807032
-0.15946484,0.5799728,0.16812432,-0.08478165,1.3729286,3.5298538,-2.8893209,9.361452,0.4306062,0,1683900381.4063532
-0.15946484,0.5799728,0.16812432,-0.08478165,1.3729286,3.5298538,-2.5626552,9.457162,0.4065422,0,1683900381.4165845
-0.108706035,0.5829149,0.21815518,-0.08478165,1.3729286,3.5298538,-2.5626552,9.457162,0.4065422,0,1683900381.4217272
-0.07673724,0.5865698,0.23573194,-0.08478165,1.3729286,3.5298538,-2.5626552,9.457162,0.4065422,0,1683900381.4268637
-0.07673724,0.5865698,0.23573194,-0.08478165,1.3729286,3.5298538,-2.398384,9.500636,0.3950346,0,1683900381.442217
-0.07673724,0.5865698,0.23573194,-0.09225845,1.4964294,3.5289192,-2.398384,9.500636,0.3950346,0,1683900381.4524438
-0.0013193953,0.55288726,0.19058436,-0.09225845,1.4964294,3.5289192,-2.398384,9.500636,0.3950346,0,1683900381.4575799
-0.0013193953,0.55288726,0.19058436,-0.15193939,1.9427681,3.490467,-2.398384,9.500636,0.3950346,0,1683900381.462683
-0.0013193953,0.55288726,0.19058436,-0.15193939,1.9427681,3.490467,-1.9035013,9.613314,0.36232337,0,1683900381.483131
0.047983523,0.5565573,0.14542162,-0.15193939,1.9427681,3.490467,-1.9035013,9.613314,0.36232337,0,1683900381.513799
0.047983523,0.5565573,0.14542162,-0.15193939,1.9427681,3.490467,-1.7388268,9.644757,0.3543065,0,1683900381.5240636
0.047983523,0.5565573,0.14542162,-0.45021057,2.493515,3.3434677,-1.7388268,9.644757,0.3543065,0,1683900381.5496273
0.047983523,0.5565573,0.14542162,-0.45021057,2.493515,3.3434677,-1.2520187,9.720033,0.35186186,0,1683900381.5547216
0.1333954,0.53678155,-0.060555693,-0.45021057,2.493515,3.3434677,-1.2520187,9.720033,0.35186186,0,1683900381.559859
0.1333954,0.53678155,-0.060555693,-0.7100296,2.5255585,3.285923,-1.2520187,9.720033,0.35186186,0,1683900381.575186
0.1333954,0.53678155,-0.060555693,-0.7100296,2.5255585,3.285923,-0.93430084,9.754505,0.38354218,0,1683900381.5854466
0.22394839,0.5843708,-0.12473593,-0.7100296,2.5255585,3.285923,-0.93430084,9.754505,0.38354218,0,1683900381.5905728
0.22394839,0.5843708,-0.12473593,-0.8240509,2.4658775,3.2454681,-0.93430084,9.754505,0.38354218,0,1683900381.616244
0.26518327,0.614641,-0.107659616,-0.8240509,2.4658775,3.2454681,-0.93430084,9.754505,0.38354218,0,1683900381.621379
0.26518327,0.614641,-0.107659616,-0.8240509,2.4658775,3.2454681,-0.7768067,9.767167,0.4115805,0,1683900381.6264708
1.6951196,1.3143451,0.13639817,-0.8240509,2.4658775,3.2454681,-0.7768067,9.767167,0.4115805,0,1683900381.636737
1.6951196,1.3143451,0.13639817,0.16983032,-0.35608292,0.43325424,-0.7768067,9.767167,0.4115805,0,1683900381.6470056
1.6951196,1.3143451,0.13639817,0.16983032,-0.35608292,0.43325424,3.1933596,9.197204,1.1765497,0,1683900381.6572287
1.6192164,1.2728524,0.105399966,0.16983032,-0.35608292,0.43325424,3.1933596,9.197204,1.1765497,0,1683900381.6777394
1.6192164,1.2728524,0.105399966,0.10908127,-0.13124466,-0.12817383,3.1933596,9.197204,1.1765497,0,1683900381.6880205
1.6192164,1.2728524,0.105399966,0.10908127,-0.13124466,-0.12817383,3.2229698,9.189471,1.1560593,0,1683900381.6931503
1.6192164,1.2728524,0.105399966,-0.000667572,0.122299194,-0.6341934,3.2229698,9.189471,1.1560593,0,1683900381.7033992
1.5020633,1.2074438,0.0360938,-0.000667572,0.122299194,-0.6341934,3.2229698,9.189471,1.1560593,0,1683900381.7136576
1.5020633,1.2074438,0.0360938,-0.000667572,0.122299194,-0.6341934,3.1992688,9.19823,1.1522326,0,1683900381.7290287
1.3761444,1.1542434,-0.0066273073,-0.000667572,0.122299194,-0.6341934,3.1992688,9.19823,1.1522326,0,1683900381.7392523
1.3761444,1.1542434,-0.0066273073,-0.000667572,0.122299194,-0.6341934,3.1323762,9.220203,1.1603689,0,1683900381.7597275
1.3226862,1.1310554,-0.008568486,-0.000667572,0.122299194,-0.6341934,3.1323762,9.220203,1.1603689,0,1683900381.7750974
1.3226862,1.1310554,-0.008568486,-0.000667572,0.122299194,-0.6341934,3.0864675,9.234825,1.167094,0,1683900381.780206
1.3226862,1.1310554,-0.008568486,-0.12737274,0.20320892,-1.2030983,3.0864675,9.234825,1.167094,0,1683900381.7956014
1.3226862,1.1310554,-0.008568486,-0.12737274,0.20320892,-1.2030983,2.9119387,9.289094,1.1847874,0,1683900381.8007398
1.1894273,1.0532111,0.041219726,-0.12737274,0.20320892,-1.2030983,2.9119387,9.289094,1.1847874,0,1683900381.8212948
1.1894273,1.0532111,0.041219726,-0.13698578,-0.0630188,-1.5812111,2.9119387,9.289094,1.1847874,0,1683900381.8263917
1.0942488,1.0056218,0.08465361,-0.13698578,-0.0630188,-1.5812111,2.9119387,9.289094,1.1847874,0,1683900381.8469129
1.0942488,1.0056218,0.08465361,-0.05607605,-0.38158417,-1.7772102,2.9119387,9.289094,1.1847874,0,1683900381.8622584
1.0942488,1.0056218,0.08465361,-0.05607605,-0.38158417,-1.7772102,2.7729363,9.331919,1.181737,0,1683900381.8673744
1.0044389,0.9724246,0.1410388,-0.05607605,-0.38158417,-1.7772102,2.7729363,9.331919,1.181737,0,1683900381.877611
1.0044389,0.9724246,0.1410388,0.048332214,-0.73099136,-1.9263458,2.7729363,9.331919,1.181737,0,1683900381.898034
1.0044389,0.9724246,0.1410388,0.048332214,-0.73099136,-1.9263458,2.6208165,9.378248,1.1619661,0,1683900381.903165
-0.96168745,0.19583161,0.045602545,0.048332214,-0.73099136,-1.9263458,2.6208165,9.378248,1.1619661,0,1683900381.9083042
-0.96168745,0.19583161,0.045602545,0.58639526,-1.4713287,-3.5210419,2.6208165,9.378248,1.1619661,0,1683900381.9134257
-0.96168745,0.19583161,0.045602545,0.58639526,-1.4713287,-3.5210419,-4.295063,8.808232,0.37130952,0,1683900381.9185581
-0.96168745,0.19583161,0.045602545,0.58639526,-1.4713287,-3.5210419,-4.729913,8.581355,0.39831296,0,1683900381.9491649
-0.93680096,0.29175317,0.006066185,0.58639526,-1.4713287,-3.5210419,-4.729913,8.581355,0.39831296,0,1683900381.9645267
-0.93680096,0.29175317,0.006066185,0.5831909,-1.566124,-3.1108856,-4.729913,8.581355,0.39831296,0,1683900381.96965
-0.9284903,0.29395217,-0.03004278,0.5831909,-1.566124,-3.1108856,-4.729913,8.581355,0.39831296,0,1683900381.9951904
-0.9284903,0.29395217,-0.03004278,0.44246674,-1.3968277,-2.9734993,-4.729913,8.581355,0.39831296,0,1683900382.0002906
-0.9284903,0.29395217,-0.03004278,0.44246674,-1.3968277,-2.9734993,-5.1224036,8.350838,0.44144535,0,1683900382.0054407
-0.9284903,0.29395217,-0.03004278,0.44246674,-1.3968277,-2.9734993,-5.24919,8.270801,0.4585286,0,1683900382.0106065
-0.9694977,0.28955418,-0.04297892,0.44246674,-1.3968277,-2.9734993,-5.24919,8.270801,0.4585286,0,1683900382.0259695
-0.9694977,0.28955418,-0.04297892,0.35942078,-1.2774658,-2.9660225,-5.24919,8.270801,0.4585286,0,1683900382.0413797
-0.9694977,0.28955418,-0.04297892,0.14846802,-0.9749222,-2.9522705,-5.24919,8.270801,0.4585286,0,1683900382.0567336
-0.9694977,0.28955418,-0.04297892,0.14846802,-0.9749222,-2.9522705,-5.501165,8.103209,0.49555635,0,1683900382.0670025
-1.1112947,0.2878405,-0.07421977,0.14846802,-0.9749222,-2.9522705,-5.501165,8.103209,0.49555635,0,1683900382.0721395
-1.1808587,0.28150132,-0.08495692,0.14846802,-0.9749222,-2.9522705,-5.501165,8.103209,0.49555635,0,1683900382.0823932
-1.1808587,0.28150132,-0.08495692,0.03458023,-0.81724167,-2.9212952,-5.501165,8.103209,0.49555635,0,1683900382.0875168
-1.1808587,0.28150132,-0.08495692,0.03458023,-0.81724167,-2.9212952,-5.625233,8.016337,0.5152435,0,1683900382.1131618
-1.590129,0.24000861,-0.094480835,0.03458023,-0.81724167,-2.9212952,-5.625233,8.016337,0.5152435,0,1683900382.143833
-1.590129,0.24000861,-0.094480835,-0.43312073,-0.46569824,-2.3929787,-5.625233,8.016337,0.5152435,0,1683900382.148965
-1.590129,0.24000861,-0.094480835,-0.43312073,-0.46569824,-2.3929787,-5.9770756,7.7529964,0.5796564,0,1683900382.159195
-1.590129,0.24000861,-0.094480835,-0.29039383,-0.4774475,-2.6955223,-5.9770756,7.7529964,0.5796564,0,1683900382.1745923
-1.590129,0.24000861,-0.094480835,-0.29039383,-0.4774475,-2.6955223,-6.185166,7.583666,0.6341405,0,1683900382.179681
-0.98194855,0.4298802,0.05391322,-0.29039383,-0.4774475,-2.6955223,-6.185166,7.583666,0.6341405,0,1683900382.1898937
-0.98194855,0.4298802,0.05391322,-0.21575928,1.4304733,2.3624039,-6.185166,7.583666,0.6341405,0,1683900382.1950285
-0.98194855,0.4298802,0.05391322,-0.21575928,1.4304733,2.3624039,-5.3641415,8.152113,0.9692402,0,1683900382.2104132
-0.98194855,0.4298802,0.05391322,-0.4320526,1.5156555,2.632904,-5.3641415,8.152113,0.9692402,0,1683900382.2155476
-0.9707261,0.3774077,-0.013451765,-0.4320526,1.5156555,2.632904,-5.3641415,8.152113,0.9692402,0,1683900382.2206602
-0.9707261,0.3774077,-0.013451765,-0.4320526,1.5156555,2.632904,-5.077882,8.340961,0.90214056,0,1683900382.2258017
-0.89262396,0.3769224,0.010706817,-0.4320526,1.5156555,2.632904,-5.077882,8.340961,0.90214056,0,1683900382.2514749
-0.89262396,0.3769224,0.010706817,-0.4320526,1.5156555,2.632904,-4.9655356,8.409383,0.8922554,0,1683900382.2668593
-0.89262396,0.3769224,0.010706817,-0.63552856,1.427269,2.9951286,-4.9655356,8.409383,0.8922554,0,1683900382.2719545
-0.6995676,0.3901012,0.13322859,-0.63552856,1.427269,2.9951286,-4.9655356,8.409383,0.8922554,0,1683900382.287326
-0.6995676,0.3901012,0.13322859,-0.7313919,1.2355423,3.3477402,-4.9655356,8.409383,0.8922554,0,1683900382.3077614
-0.6995676,0.3901012,0.13322859,-0.7313919,1.2355423,3.3477402,-4.709686,8.555351,0.8917462,0,1683900382.312893
-0.60366124,0.40695003,0.18642902,-0.7313919,1.2355423,3.3477402,-4.709686,8.555351,0.8917462,0,1683900382.32313
-0.60366124,0.40695003,0.18642902,-0.72605133,1.1459541,3.4851265,-4.709686,8.555351,0.8917462,0,1683900382.3384645
-0.60366124,0.40695003,0.18642902,-0.72605133,1.1459541,3.4851265,-4.569425,8.630443,0.8978806,0,1683900382.3487236
-0.60366124,0.40695003,0.18642902,-0.72605133,1.1459541,3.4851265,-3.9508233,8.927539,0.9275984,0,1683900382.3692372
-0.31982443,0.47942576,0.31528997,-0.72605133,1.1459541,3.4851265,-3.9508233,8.927539,0.9275984,0,1683900382.3794684
-0.31982443,0.47942576,0.31528997,-0.5311203,0.89881897,3.6950111,-3.9508233,8.927539,0.9275984,0,1683900382.3846016
-0.31982443,0.47942576,0.31528997,-0.31909943,0.8221817,3.6396027,-3.9508233,8.927539,0.9275984,0,1683900382.3897612
-0.18021119,0.4989589,0.3089508,-0.31909943,0.8221817,3.6396027,-3.9508233,8.927539,0.9275984,0,1683900382.4051125
-0.18021119,0.4989589,0.3089508,-0.1817131,0.85515976,3.4819221,-3.9508233,8.927539,0.9275984,0,1683900382.4256225
-0.18021119,0.4989589,0.3089508,-0.19346237,0.9137726,3.3807182,-3.9508233,8.927539,0.9275984,0,1683900382.4563076
-0.19681737,0.4740572,0.07343117,-0.19346237,0.9137726,3.3807182,-3.9508233,8.927539,0.9275984,0,1683900382.4614007
-0.19681737,0.4740572,0.07343117,0.017490387,-0.5114937,1.1607742,-3.9508233,8.927539,0.9275984,0,1683900382.4716792
-0.19681737,0.4740572,0.07343117,0.017490387,-0.5114937,1.1607742,1.7963755,9.536703,1.4123492,0,1683900382.4768026
1.3156039,1.2647996,0.23012073,0.017490387,-0.5114937,1.1607742,1.7963755,9.536703,1.4123492,0,1683900382.487066
1.3156039,1.2647996,0.23012073,0.017490387,-0.5114937,1.1607742,1.9977565,9.500348,1.3866334,0,1683900382.5024722
1.4945109,1.3653618,0.24818279,0.017490387,-0.5114937,1.1607742,1.9977565,9.500348,1.3866334,0,1683900382.5177786
1.4945109,1.3653618,0.24818279,0.017490387,-0.5114937,1.1607742,2.0531087,9.490761,1.3713411,0,1683900382.528007
1.4945109,1.3653618,0.24818279,0.1612854,-0.7821274,0.7591629,2.0531087,9.490761,1.3713411,0,1683900382.5485115
1.4945109,1.3653618,0.24818279,0.37223816,-0.8566284,-0.17396927,2.0531087,9.490761,1.3713411,0,1683900382.5690465
1.4945109,1.3653618,0.24818279,0.37223816,-0.8566284,-0.17396927,2.1733909,9.47622,1.2837518,0,1683900382.5741837
1.4945109,1.3653618,0.24818279,0.4745102,-0.80135345,-0.732193,2.1733909,9.47622,1.2837518,0,1683900382.5997484
1.4945109,1.3653618,0.24818279,0.4745102,-0.80135345,-0.732193,2.1554978,9.487991,1.2256601,0,1683900382.6048865
1.4954814,1.3731719,0.29552937,0.4745102,-0.80135345,-0.732193,2.1554978,9.487991,1.2256601,0,1683900382.6202867
1.4320291,1.3306935,0.26965708,0.4745102,-0.80135345,-0.732193,2.1554978,9.487991,1.2256601,0,1683900382.6254241
1.4320291,1.3306935,0.26965708,0.4745102,-0.80135345,-0.732193,2.1259165,9.498655,1.1943219,0,1683900382.6356974
1.4320291,1.3306935,0.26965708,0.50855637,-0.75235367,-0.996418,2.1259165,9.498655,1.1943219,0,1683900382.6511078
1.2506957,1.2142835,0.16372633,0.50855637,-0.75235367,-0.996418,2.1259165,9.498655,1.1943219,0,1683900382.666464
1.2506957,1.2142835,0.16372633,0.52030563,-0.6191063,-1.4650536,2.1259165,9.498655,1.1943219,0,1683900382.676739
1.2506957,1.2142835,0.16372633,0.52030563,-0.6191063,-1.4650536,2.0298977,9.527226,1.1321949,0,1683900382.6870127
1.2506957,1.2142835,0.16372633,0.52030563,-0.6191063,-1.4650536,1.8084276,9.581619,1.0452491,0,1683900382.6972766
1.1169515,1.1418077,0.11443858,0.52030563,-0.6191063,-1.4650536,1.8084276,9.581619,1.0452491,0,1683900382.712672
1.1169515,1.1418077,0.11443858,0.48091888,-0.52324295,-2.0095253,1.8084276,9.581619,1.0452491,0,1683900382.717813
1.0595957,1.1166633,0.096133865,0.48091888,-0.52324295,-2.0095253,1.8084276,9.581619,1.0452491,0,1683900382.7332332
1.0595957,1.1166633,0.096133865,0.48091888,-0.52324295,-2.0095253,1.7188377,9.601035,1.0178803,0,1683900382.7434952
1.0595957,1.1166633,0.096133865,-0.21469116,-0.82258224,-3.397541,1.7188377,9.601035,1.0178803,0,1683900382.7537584
-0.7945034,0.2112094,-0.09375289,-0.21469116,-0.82258224,-3.397541,1.7188377,9.601035,1.0178803,0,1683900382.7588954
-0.7945034,0.2112094,-0.09375289,-0.21469116,-0.82258224,-3.397541,-4.787546,8.554533,0.2641245,0,1683900382.769157
-0.7945034,0.2112094,-0.09375289,-0.21469116,-0.82258224,-3.397541,-5.195554,8.308781,0.37520236,0,1683900382.784561
-0.7945034,0.2112094,-0.09375289,-0.16675949,-1.2689209,-2.9767036,-5.195554,8.308781,0.37520236,0,1683900382.8050802
-0.9043317,0.2536727,0.12786001,-0.16675949,-1.2689209,-2.9767036,-5.195554,8.308781,0.37520236,0,1683900382.8102186
-0.9043317,0.2536727,0.12786001,-0.16675949,-1.2689209,-2.9767036,-5.3173437,8.229331,0.4175406,0,1683900382.820385
-0.9238648,0.26929313,0.1944819,-0.16675949,-1.2689209,-2.9767036,-5.3173437,8.229331,0.4175406,0,1683900382.825518
-0.9238648,0.26929313,0.1944819,-0.09119034,-1.3893509,-2.8510666,-5.3173437,8.229331,0.4175406,0,1683900382.8306565
-0.9238648,0.26929313,0.1944819,-0.09119034,-1.3893509,-2.8510666,-5.54265,8.074506,0.5017636,0,1683900382.8563054
-0.9238648,0.26929313,0.1944819,0.09946823,-1.552372,-2.6486588,-5.54265,8.074506,0.5017636,0,1683900382.8768308
-1.0256251,0.30077663,0.33286673,0.09946823,-1.552372,-2.6486588,-5.54265,8.074506,0.5017636,0,1683900382.881967
-1.0256251,0.30077663,0.33286673,0.19639969,-1.5842819,-2.5686836,-5.54265,8.074506,0.5017636,0,1683900382.8922427
-1.0256251,0.30077663,0.33286673,0.19639969,-1.5842819,-2.5686836,-5.6485004,7.9982076,0.5417553,0,1683900382.9230044
-1.0256251,0.30077663,0.33286673,0.19639969,-1.5842819,-2.5686836,-5.9435234,7.773645,0.64448464,0,1683900382.9332688
-1.0256251,0.30077663,0.33286673,0.3743744,-1.4670563,-2.35466,-5.9435234,7.773645,0.64448464,0,1683900382.9384065
-1.0256251,0.30077663,0.33286673,0.29226303,-1.1251259,-2.061596,-5.9435234,7.773645,0.64448464,0,1683900382.9796216
-1.0256251,0.30077663,0.33286673,0.29226303,-1.1251259,-2.061596,-6.1228666,7.628347,0.6994482,0,1683900382.98476
-1.4920237,0.28638458,0.18057516,0.29226303,-1.1251259,-2.061596,-6.1228666,7.628347,0.6994482,0,1683900382.9898956
-1.4920237,0.28638458,0.18057516,0.29226303,-1.1251259,-2.061596,-6.2855062,7.490289,0.7472348,0,1683900382.994993
-1.5632862,0.27808908,0.1402957,0.29226303,-1.1251259,-2.061596,-6.2855062,7.490289,0.7472348,0,1683900383.0052564
-1.5632862,0.27808908,0.1402957,0.22951126,-0.9962845,-1.937027,-6.2855062,7.490289,0.7472348,0,1683900383.0103934
-1.5632862,0.27808908,0.1402957,-0.5183029,1.1300659,3.3062172,-6.2855062,7.490289,0.7472348,0,1683900383.0309734
-1.5632862,0.27808908,0.1402957,-0.5183029,1.1300659,3.3062172,-4.6045938,8.589035,1.093888,0,1683900383.0361278
-0.70957685,0.51482195,0.2049764,-0.5183029,1.1300659,3.3062172,-4.6045938,8.589035,1.093888,0,1683900383.046433
-0.5445918,0.54971766,0.22937763,-0.5183029,1.1300659,3.3062172,-4.6045938,8.589035,1.093888,0,1683900383.0668862
-0.5445918,0.54971766,0.22937763,-0.5257797,1.0331345,3.5330582,-4.6045938,8.589035,1.093888,0,1683900383.0771499
-0.5445918,0.54971766,0.22937763,-0.5257797,1.0331345,3.5330582,-4.321015,8.734942,1.095444,0,1683900383.0874088
-0.46723273,0.568265,0.25183767,-0.5257797,1.0331345,3.5330582,-4.321015,8.734942,1.095444,0,1683900383.107956
-0.46723273,0.568265,0.25183767,-0.5108261,0.96277237,3.6130333,-4.321015,8.734942,1.095444,0,1683900383.1130905
-0.46723273,0.568265,0.25183767,-0.5108261,0.96277237,3.6130333,-4.170495,8.8073,1.0994706,0,1683900383.1284857
-0.2295141,0.62439245,0.34774405,-0.5108261,0.96277237,3.6130333,-4.170495,8.8073,1.0994706,0,1683900383.1336195
-0.2295141,0.62439245,0.34774405,-0.5108261,0.96277237,3.6130333,-3.6928828,9.015845,1.1169329,0,1683900383.1592553
-0.2295141,0.62439245,0.34774405,-0.3680992,0.7496834,3.6896706,-3.6928828,9.015845,1.1169329,0,1683900383.1643908
-0.2295141,0.62439245,0.34774405,-0.3680992,0.7496834,3.6896706,-3.0538461,9.252275,1.1134768,0,1683900383.2208204
-0.18216753,0.62683403,0.34336123,-0.3680992,0.7496834,3.6896706,-3.0538461,9.252275,1.1134768,0,1683900383.2259598
-0.18216753,0.62683403,0.34336123,-0.027236938,0.671978,3.4936714,-3.0538461,9.252275,1.1134768,0,1683900383.2362885
-0.17459998,0.6134126,0.24549851,-0.027236938,0.671978,3.4936714,-3.0538461,9.252275,1.1134768,0,1683900383.2619348
-0.17459998,0.6134126,0.24549851,-0.027236938,0.671978,3.4936714,-2.735669,9.353707,1.0930009,0,1683900383.2670298
-0.17459998,0.6134126,0.24549851,0.0825119,0.6783867,3.51717,-2.735669,9.353707,1.0930009,0,1683900383.272165
-0.1350636,0.61316997,0.20376316,0.0825119,0.6783867,3.51717,-2.735669,9.353707,1.0930009,0,1683900383.2875307
-0.1350636,0.61316997,0.20376316,0.0825119,0.6783867,3.51717,-2.5721729,9.401353,1.0811428,0,1683900383.3029375
1.1718656,1.1849989,-0.13230349,0.0825119,0.6783867,3.51717,-2.5721729,9.401353,1.0811428,0,1683900383.308033
1.1718656,1.1849989,-0.13230349,0.08037567,0.05941391,0.034713745,-2.5721729,9.401353,1.0811428,0,1683900383.323381
1.1718656,1.1849989,-0.13230349,0.08037567,0.05941391,0.034713745,2.3467607,9.47406,0.9514621,0,1683900383.33365
1.1718656,1.1849989,-0.13230349,0.08037567,0.05941391,0.034713745,2.3268673,9.478565,0.9554407,0,1683900383.3592968
1.1718656,1.1849989,-0.13230349,-0.17103195,-0.13231277,-0.50855637,2.3268673,9.478565,0.9554407,0,1683900383.3644218
1.104986,1.1459478,-0.0998494,-0.17103195,-0.13231277,-0.50855637,2.3268673,9.478565,0.9554407,0,1683900383.3746612
1.0678912,1.142293,-0.009053781,-0.17103195,-0.13231277,-0.50855637,2.3268673,9.478565,0.9554407,0,1683900383.3797956
1.0678912,1.142293,-0.009053781,-0.17103195,-0.13231277,-0.50855637,2.2842937,9.488212,0.96240896,0,1683900383.3849328
1.0544698,1.1300848,0.039263383,-0.17103195,-0.13231277,-0.50855637,2.2842937,9.488212,0.96240896,0,1683900383.4157038
1.0544698,1.1300848,0.039263383,-0.17316818,-0.46142578,-0.8408737,2.2842937,9.488212,0.96240896,0,1683900383.420838
1.0544698,1.1300848,0.039263383,-0.17316818,-0.46142578,-0.8408737,2.2557244,9.494855,0.96427107,0,1683900383.4259744
1.0544698,1.1300848,0.039263383,-0.036849976,-0.718174,-1.1892128,2.2557244,9.494855,0.96427107,0,1683900383.4515884
1.0268838,1.1198329,0.14469367,-0.036849976,-0.718174,-1.1892128,2.2557244,9.494855,0.96427107,0,1683900383.4618597
1.0268838,1.1198329,0.14469367,-0.036849976,-0.718174,-1.1892128,2.1397939,9.52257,0.9551655,0,1683900383.4670022
1.0132197,1.1093384,0.1607994,-0.036849976,-0.718174,-1.1892128,2.1397939,9.52257,0.9551655,0,1683900383.4926763
1.0132197,1.1093384,0.1607994,0.023899078,-0.7746506,-1.3233948,2.1397939,9.52257,0.9551655,0,1683900383.5029118
1.0132197,1.1093384,0.1607994,0.023899078,-0.7746506,-1.3233948,2.0897129,9.534567,0.9463224,0,1683900383.508038
0.9644173,1.0722437,0.14884901,0.023899078,-0.7746506,-1.3233948,2.0897129,9.534567,0.9463224,0,1683900383.533707
0.9644173,1.0722437,0.14884901,0.023899078,-0.7746506,-1.3233948,1.968764,9.562792,0.9205208,0,1683900383.5388489
0.9644173,1.0722437,0.14884901,0.12723923,-0.838604,-1.6068459,1.968764,9.562792,0.9205208,0,1683900383.543985
0.9644173,1.0722437,0.14884901,0.12723923,-0.838604,-1.6068459,1.7346734,9.612487,0.8725841,0,1683900383.564482
0.9644173,1.0722437,0.14884901,0.16769409,-0.84501266,-2.0095253,1.7346734,9.612487,0.8725841,0,1683900383.5696106
0.8475067,1.0004959,0.08172668,0.16769409,-0.84501266,-2.0095253,1.7346734,9.612487,0.8725841,0,1683900383.579801
0.8475067,1.0004959,0.08172668,0.16769409,-0.84501266,-2.0095253,1.6440631,9.629667,0.8584553,0,1683900383.5849328
0.8475067,1.0004959,0.08172668,0.16769409,-0.84501266,-2.0095253,-4.6379275,8.5295,1.3811756,0,1683900383.6105344
0.8475067,1.0004959,0.08172668,-0.75582504,0.3086853,-4.0611076,-4.6379275,8.5295,1.3811756,0,1683900383.6207879
-0.85430086,0.32689154,0.26037583,-0.75582504,0.3086853,-4.0611076,-4.6379275,8.5295,1.3811756,0,1683900383.6412892
-0.85430086,0.32689154,0.26037583,-0.75582504,0.3086853,-4.0611076,-5.1701536,8.207474,1.441276,0,1683900383.6514847
-0.85430086,0.32689154,0.26037583,-0.6173706,0.44073105,-4.0356064,-5.1701536,8.207474,1.441276,0,1683900383.6566215
-1.0188006,0.28442824,0.2022921,-0.6173706,0.44073105,-4.0356064,-5.1701536,8.207474,1.441276,0,1683900383.6668622
-1.0188006,0.28442824,0.2022921,-0.49280167,0.36195755,-3.9087677,-5.1701536,8.207474,1.441276,0,1683900383.6873891
-1.0188006,0.28442824,0.2022921,-0.49280167,0.36195755,-3.9087677,-5.508836,7.979741,1.4652127,0,1683900383.6925294
-1.0188006,0.28442824,0.2022921,-0.42884827,0.26716232,-3.8023567,-5.508836,7.979741,1.4652127,0,1683900383.702801
-1.0188006,0.28442824,0.2022921,-0.42884827,0.26716232,-3.8023567,-5.668082,7.865529,1.4753566,0,1683900383.7079358
-1.0983586,0.26124024,0.1835021,-0.42884827,0.26716232,-3.8023567,-5.668082,7.865529,1.4753566,0,1683900383.7181962
-1.0983586,0.26124024,0.1835021,-0.21469116,-0.16529083,-3.3357239,-5.668082,7.865529,1.4753566,0,1683900383.7489116
-1.3370478,0.22146125,0.17617717,-0.21469116,-0.16529083,-3.3357239,-5.668082,7.865529,1.4753566,0,1683900383.7540553
-1.3370478,0.22146125,0.17617717,-0.21469116,-0.16529083,-3.3357239,-6.0973563,7.5306454,1.5106338,0,1683900383.759195
-1.5962408,0.2207333,0.28552017,-0.21469116,-0.16529083,-3.3357239,-6.0973563,7.5306454,1.5106338,0,1683900383.805328
-1.5962408,0.2207333,0.28552017,0.056877136,-0.6116295,-2.4142075,-6.0973563,7.5306454,1.5106338,0,1683900383.8104646
-1.5962408,0.2207333,0.28552017,0.056877136,-0.6116295,-2.4142075,-6.527224,7.1460705,1.5809485,0,1683900383.8258703
-1.6196713,0.24586248,0.26061848,0.056877136,-0.6116295,-2.4142075,-6.527224,7.1460705,1.5809485,0,1683900383.8361
-1.6196713,0.24586248,0.26061848,0.19533157,-0.74274063,-1.9306183,-6.527224,7.1460705,1.5809485,0,1683900383.8412302
-1.6196713,0.24586248,0.26061848,0.19533157,-0.74274063,-1.9306183,-6.6787176,6.9963045,1.6176659,0,1683900383.8617725
-0.5985353,0.5057833,0.033409514,0.19533157,-0.74274063,-1.9306183,-6.6787176,6.9963045,1.6176659,0,1683900383.88744
-0.5985353,0.5057833,0.033409514,-0.019760132,0.4663658,2.8981972,-6.6787176,6.9963045,1.6176659,0,1683900383.8977063
-0.5985353,0.5057833,0.033409514,-0.019760132,0.4663658,2.8981972,-5.1100326,8.185746,1.7468555,0,1683900383.9079618
-0.4967599,0.4808968,0.054155868,-0.019760132,0.4663658,2.8981972,-5.1100326,8.185746,1.7468555,0,1683900383.9233305
-0.4967599,0.4808968,0.054155868,-0.38412094,0.713501,2.938652,-5.1100326,8.185746,1.7468555,0,1683900383.9387324
-0.4967599,0.4808968,0.054155868,-0.38412094,0.713501,2.938652,-4.769968,8.391868,1.7304199,0,1683900383.9438598
-0.44697168,0.4513545,0.0697763,-0.38412094,0.713501,2.938652,-4.769968,8.391868,1.7304199,0,1683900383.9591877
-0.44697168,0.4513545,0.0697763,-0.38412094,0.713501,2.938652,-4.5368066,8.518754,1.7374084,0,1683900383.9643233
-0.44697168,0.4513545,0.0697763,-0.47784805,0.7657051,2.95681,-4.5368066,8.518754,1.7374084,0,1683900383.9694586
-0.44697168,0.4513545,0.0697763,-0.47784805,0.7657051,2.95681,-4.3022504,8.636217,1.754077,0,1683900384.0105462
-0.41964352,0.48552227,0.16739638,-0.47784805,0.7657051,2.95681,-4.3022504,8.636217,1.754077,0,1683900384.0208163
-0.41964352,0.48552227,0.16739638,-0.66209793,0.9340668,2.9493332,-4.3022504,8.636217,1.754077,0,1683900384.0259554
-0.3449536,0.48211005,0.2132719,-0.66209793,0.9340668,2.9493332,-4.3022504,8.636217,1.754077,0,1683900384.036208
-0.3449536,0.48211005,0.2132719,-0.66209793,0.9340668,2.9493332,-4.0702434,8.743752,1.7749131,0,1683900384.041383
-0.3449536,0.48211005,0.2132719,-0.7239151,1.0511589,2.9003334,-4.0702434,8.743752,1.7749131,0,1683900384.051595
-0.31469852,0.4686886,0.23890153,-0.7239151,1.0511589,2.9003334,-4.0702434,8.743752,1.7749131,0,1683900384.0720913
-0.31469852,0.4686886,0.23890153,-0.72605133,1.1001587,2.8588104,-4.0702434,8.743752,1.7749131,0,1683900384.0772312
-0.31469852,0.4686886,0.23890153,-0.72605133,1.1001587,2.8588104,-3.9555106,8.793943,1.7863026,0,1683900384.0874517
-0.31469852,0.4686886,0.23890153,-0.68559647,1.2366104,2.6947212,-3.9555106,8.793943,1.7863026,0,1683900384.1079493
-0.31469852,0.4686886,0.23890153,-0.68559647,1.2366104,2.6947212,-3.62702,8.929277,1.8119371,0,1683900384.1181922
-0.2907674,0.42305574,0.09270647,-0.68559647,1.2366104,2.6947212,-3.62702,8.929277,1.8119371,0,1683900384.128439
-0.2907674,0.42305574,0.09270647,-0.07516861,-0.5786514,1.0319328,-3.62702,8.929277,1.8119371,0,1683900384.1643572
1.460343,1.6406453,0.97912776,-0.07516861,-0.5786514,1.0319328,-3.62702,8.929277,1.8119371,0,1683900384.1694825
1.5669866,1.7065543,0.9564251,-0.07516861,-0.5786514,1.0319328,-3.62702,8.929277,1.8119371,0,1683900384.190124
1.5669866,1.7065543,0.9564251,-0.30641556,-0.7395363,1.6379547,-3.62702,8.929277,1.8119371,0,1683900384.1952078
1.5669866,1.7065543,0.9564251,-0.30641556,-0.7395363,1.6379547,1.096556,8.916079,3.9333823,0,1683900384.2054703
1.5669866,1.7065543,0.9564251,-0.30641556,-0.7395363,1.6379547,0.93327725,8.9384,3.9248412,0,1683900384.210605
1.5669866,1.7065543,0.9564251,-0.30641556,-0.7395363,1.6379547,1.1935121,8.907299,3.9250405,0,1683900384.2260256
1.5669866,1.7065543,0.9564251,0.020694733,-0.48065186,0.7016182,1.1935121,8.907299,3.9250405,0,1683900384.2362514
1.5833349,1.7119229,0.94031936,0.020694733,-0.48065186,0.7016182,1.1935121,8.907299,3.9250405,0,1683900384.246512
1.4395967,1.6548097,0.8297631,0.020694733,-0.48065186,0.7016182,1.1935121,8.907299,3.9250405,0,1683900384.2516391
1.4395967,1.6548097,0.8297631,0.020694733,-0.48065186,0.7016182,1.2221777,8.911838,3.9058685,0,1683900384.272191
1.4395967,1.6548097,0.8297631,0.22737503,-0.13338089,-0.24967194,1.2221777,8.911838,3.9058685,0,1683900384.2773273
1.4395967,1.6548097,0.8297631,0.25928497,-0.017223358,-0.5180359,1.2221777,8.911838,3.9058685,0,1683900384.2978296
1.3710033,1.604051,0.7765627,0.25928497,-0.017223358,-0.5180359,1.2221777,8.911838,3.9058685,0,1683900384.313216
1.3710033,1.604051,0.7765627,0.25928497,-0.017223358,-0.5180359,1.2132992,8.918117,3.8942878,0,1683900384.3183193
1.1740646,1.4590691,0.6528277,0.25928497,-0.017223358,-0.5180359,1.2132992,8.918117,3.8942878,0,1683900384.3286498
1.1740646,1.4590691,0.6528277,0.27317047,0.26929855,-1.1753273,1.2132992,8.918117,3.8942878,0,1683900384.349227
1.0661775,1.3922046,0.60717964,0.27317047,0.26929855,-1.1753273,1.2132992,8.918117,3.8942878,0,1683900384.3595376
1.0661775,1.3922046,0.60717964,0.27317047,0.26929855,-1.1753273,1.1105748,8.946233,3.860302,0,1683900384.3647256
1.0661775,1.3922046,0.60717964,0.27317047,0.26929855,-1.1753273,0.9931406,8.969468,3.83832,0,1683900384.3751173
1.0661775,1.3922046,0.60717964,0.27744293,0.33111572,-1.510849,0.9931406,8.969468,3.83832,0,1683900384.380279
1.0661775,1.3922046,0.60717964,0.28385162,0.3300476,-1.6621208,0.9224073,8.981804,3.827107,0,1683900384.3855696
-0.65514797,0.24610512,0.04341872,0.28385162,0.3300476,-1.6621208,0.9224073,8.981804,3.827107,0,1683900384.3907406
-0.65514797,0.24610512,0.04341872,-0.6898689,-0.8034897,-2.5975227,0.9224073,8.981804,3.827107,0,1683900384.4010286
-0.65514797,0.24610512,0.04341872,-0.6898689,-0.8034897,-2.5975227,-4.7921185,7.980644,3.0846887,0,1683900384.4164093
-0.65514797,0.24610512,0.04341872,-0.6898689,-0.8034897,-2.5975227,-5.0721993,7.737145,3.252656,0,1683900384.4215534
-0.7727865,0.16971669,0.1795894,-0.6898689,-0.8034897,-2.5975227,-5.0721993,7.737145,3.252656,0,1683900384.426659
-0.7727865,0.16971669,0.1795894,-1.2213898,-0.46463013,-2.3844337,-5.0721993,7.737145,3.252656,0,1683900384.4317997
-0.8967641,0.3503222,0.38997987,-1.2213898,-0.46463013,-2.3844337,-5.0721993,7.737145,3.252656,0,1683900384.4370153
-0.8967641,0.3503222,0.38997987,-1.3865471,-0.06942749,-2.3140717,-5.2526984,7.565561,3.3677638,0,1683900384.4422297
-0.9773079,0.30981523,0.37167516,-1.3865471,-0.06942749,-2.3140717,-5.2526984,7.565561,3.3677638,0,1683900384.4524646
-0.9773079,0.30981523,0.37167516,-1.3865471,-0.06942749,-2.3140717,-5.3489594,7.4763093,3.4152343,0,1683900384.4627333
-0.9773079,0.30981523,0.37167516,-1.385479,0.20427704,-2.303524,-5.3489594,7.4763093,3.4152343,0,1683900384.4678648
-0.9773079,0.30981523,0.37167516,-1.4036369,0.7454109,-2.1075249,-5.3489594,7.4763093,3.4152343,0,1683900384.4934804
-0.9773079,0.30981523,0.37167516,-1.4036369,0.7454109,-2.1075249,-5.6349134,7.212451,3.521176,0,1683900384.498601
-1.0375906,0.317125,0.18154575,-1.4036369,0.7454109,-2.1075249,-5.6349134,7.212451,3.521176,0,1683900384.5089006
-1.0375906,0.317125,0.18154575,-1.4036369,0.7454109,-2.1075249,-5.829803,7.0340643,3.5645099,0,1683900384.5191758
-1.0375906,0.317125,0.18154575,-1.4962959,1.103363,-2.039299,-5.829803,7.0340643,3.5645099,0,1683900384.5346234
-1.0375906,0.317125,0.18154575,-1.4962959,1.103363,-2.039299,-6.0196433,6.855035,3.5976079,0,1683900384.539754
-1.0375906,0.317125,0.18154575,-1.6666603,1.2195206,-1.8987083,-6.0196433,6.855035,3.5976079,0,1683900384.5500398
-1.0175722,0.3598461,-0.037367698,-1.6666603,1.2195206,-1.8987083,-6.0196433,6.855035,3.5976079,0,1683900384.565457
-1.0471145,0.36253038,-0.13742942,-1.6666603,1.2195206,-1.8987083,-6.0196433,6.855035,3.5976079,0,1683900384.5963402
-1.0471145,0.36253038,-0.13742942,-1.807251,0.74113846,-1.784687,-6.0196433,6.855035,3.5976079,0,1683900384.6015322
-1.0471145,0.36253038,-0.13742942,-1.807251,0.74113846,-1.784687,-6.1868205,6.6750765,3.651984,0,1683900384.6068351
-0.551674,0.58144385,0.6838107,-1.807251,0.74113846,-1.784687,-6.1868205,6.6750765,3.651984,0,1683900384.6119726
-0.551674,0.58144385,0.6838107,-1.807251,0.74113846,-1.784687,-5.077495,5.451895,6.37701,0,1683900384.617124
-0.551674,0.58144385,0.6838107,-0.01121521,-0.38799286,0.40014267,-5.077495,5.451895,6.37701,0,1683900384.6484642
-0.5655808,0.5665513,0.73117244,-0.01121521,-0.38799286,0.40014267,-5.077495,5.451895,6.37701,0,1683900384.653617
-0.5655808,0.5665513,0.73117244,-0.01121521,-0.38799286,0.40014267,-5.054423,5.461321,6.3872666,0,1683900384.658759
-0.56485283,0.5646102,0.7475208,-0.01121521,-0.38799286,0.40014267,-5.054423,5.461321,6.3872666,0,1683900384.6690407
-0.56485283,0.5646102,0.7475208,-0.01121521,-0.38799286,0.40014267,-5.002866,5.4847465,6.4077506,0,1683900384.679281
-0.56485283,0.5646102,0.7475208,0.059013367,-0.44553757,0.44273376,-5.002866,5.4847465,6.4077506,0,1683900384.6843903
-0.5533877,0.5685077,0.749462,0.059013367,-0.44553757,0.44273376,-5.002866,5.4847465,6.4077506,0,1683900384.704914
-0.5533877,0.5685077,0.749462,0.059013367,-0.44553757,0.44273376,-4.9507885,5.51366,6.4233675,0,1683900384.725505
-0.5533877,0.5685077,0.749462,0.11548996,-0.39226532,0.48225403,-4.9507885,5.51366,6.4233675,0,1683900384.730649
-0.5533877,0.5685077,0.749462,0.13792038,-0.28678894,0.5077553,-4.9507885,5.51366,6.4233675,0,1683900384.7512019
-0.51482195,0.5990206,0.7172505,0.13792038,-0.28678894,0.5077553,-4.9507885,5.51366,6.4233675,0,1683900384.7615287
-0.51482195,0.5990206,0.7172505,0.13792038,-0.28678894,0.5077553,-4.9026284,5.5466065,6.431934,0,1683900384.766638
-0.51482195,0.5990206,0.7172505,0.077171326,-0.08010864,0.49707413,-4.9026284,5.5466065,6.431934,0,1683900384.7769578
-0.51482195,0.5990206,0.7172505,0.077171326,-0.08010864,0.49707413,-4.8442707,5.593721,6.435349,0,1683900384.7872403
-0.48773643,0.61171407,0.72823036,0.077171326,-0.08010864,0.49707413,-4.8442707,5.593721,6.435349,0,1683900384.8026807
-0.4862654,0.6075588,0.7421522,0.077171326,-0.08010864,0.49707413,-4.8442707,5.593721,6.435349,0,1683900384.8078141
-0.4862654,0.6075588,0.7421522,0.046195984,0.02002716,0.49814224,-4.8442707,5.593721,6.435349,0,1683900384.818063
-0.4862654,0.6075588,0.7421522,0.046195984,0.02002716,0.49814224,-4.8200297,5.6196465,6.430962,0,1683900384.8283725
-0.4945609,0.6097577,0.751661,0.046195984,0.02002716,0.49814224,-4.8200297,5.6196465,6.430962,0,1683900384.8441653
-0.4945609,0.6097577,0.751661,-0.018692017,0.24580002,0.51309586,-4.8200297,5.6196465,6.430962,0,1683900384.8597023
-0.4945609,0.6097577,0.751661,-0.018692017,0.24580002,0.51309586,-4.8130636,5.631174,6.4260936,0,1683900384.875191
-0.4945609,0.6097577,0.751661,0.34980774,-0.8460808,0.47798157,-4.840106,6.1647434,5.89404,0,1683900384.8958654
