acc_x,acc_y,acc_z,gyr_x,gyr_y,gyr_z,grav_x,grav_y,grav_z,label,timestamp
0.4599049,0.5975349,1.0560982,1.6781995,0.65836,-1.4785993,1.6794293,8.414812,4.7546353,0,1683969637.921717
0.4599049,0.5975349,1.0560982,1.6781995,0.65836,-1.4785993,1.5439534,8.502376,4.643482,0,1683969637.9322932
0.44301364,0.61485296,1.0298162,1.9573649,0.39263365,-1.57084,1.5439534,8.502376,4.643482,0,1683969637.932312
0.44301364,0.61485296,1.0298162,1.9573649,0.39263365,-1.57084,1.411296,8.599429,4.5049076,0,1683969638.015845
0.35483778,0.57411885,1.0696356,3.1618385,0.12965615,-1.8249599,0.9109256,9.018811,3.7506492,0,1683969638.0213642
0.35483778,0.57411885,1.0696356,3.5747833,0.4016439,-1.8617646,0.9109256,9.018811,3.7506492,0,1683969638.0265427
0.3312998,0.59320533,0.90383315,3.5747833,0.4016439,-1.8617646,0.9109256,9.018811,3.7506492,0,1683969638.0420697
0.3312998,0.59320533,0.90383315,3.5747833,0.4016439,-1.8617646,0.7494222,9.14481,3.4708688,0,1683969638.0575979
0.30635932,0.6241218,0.6803446,3.5747833,0.4016439,-1.8617646,0.7494222,9.14481,3.4708688,0,1683969638.0627222
0.30635932,0.6241218,0.6803446,3.645033,0.59849524,-1.8965839,0.7494222,9.14481,3.4708688,0,1683969638.0678906
0.30635932,0.6241218,0.6803446,3.645033,0.59849524,-1.8965839,0.5798884,9.262294,3.179585,0,1683969638.1040566
0.30635932,0.6241218,0.6803446,3.60945,0.6618725,-1.9518672,0.5798884,9.262294,3.179585,0,1683969638.1092322
0.31709167,0.64887935,0.44984335,3.60945,0.6618725,-1.9518672,0.5798884,9.262294,3.179585,0,1683969638.1143746
0.31709167,0.64887935,0.44984335,3.5434766,0.6079636,-2.0911446,0.5798884,9.262294,3.179585,0,1683969638.1298854
0.31709167,0.64887935,0.44984335,3.5434766,0.6079636,-2.0911446,0.31409842,9.416105,2.733939,0,1683969638.1350627
0.32239684,0.6803446,0.34087354,3.5434766,0.6079636,-2.0911446,0.31409842,9.416105,2.733939,0,1683969638.1402435
0.31770146,0.6599165,0.31764048,3.5434766,0.6079636,-2.0911446,0.31409842,9.416105,2.733939,0,1683969638.1609328
0.31770146,0.6599165,0.31764048,3.5312593,0.5839872,-2.2301164,0.31409842,9.416105,2.733939,0,1683969638.1764145
0.31770146,0.6599165,0.31764048,3.5312593,0.5839872,-2.2301164,0.12642221,9.502024,2.4355052,0,1683969638.1867623
0.2795895,0.63759816,0.3266654,3.5312593,0.5839872,-2.2301164,0.12642221,9.502024,2.4355052,0,1683969638.1971273
0.2795895,0.63759816,0.3266654,3.5602753,0.62781674,-2.359467,0.12642221,9.502024,2.4355052,0,1683969638.2023091
0.2795895,0.63759816,0.3266654,3.5602753,0.62781674,-2.359467,-0.07282196,9.574785,2.1340842,0,1683969638.2074726
0.2795895,0.63759816,0.3266654,3.5602753,0.62781674,-2.359467,-0.28477564,9.633808,1.8288683,0,1683969638.2281497
0.2795895,0.63759816,0.3266654,3.5957055,0.81306165,-2.4894285,-0.28477564,9.633808,1.8288683,0,1683969638.2333333
0.2086707,0.6050963,0.34526405,3.5957055,0.81306165,-2.4894285,-0.28477564,9.633808,1.8288683,0,1683969638.2591453
0.2086707,0.6050963,0.34526405,3.5957055,0.81306165,-2.4894285,-0.508214,9.67848,1.5181823,0,1683969638.269492
0.2086707,0.6050963,0.34526405,3.6317465,1.0045679,-2.5476136,-0.508214,9.67848,1.5181823,0,1683969638.2746642
0.17543708,0.5781435,0.2952611,3.6317465,1.0045679,-2.5476136,-0.508214,9.67848,1.5181823,0,1683969638.290177
0.14756958,0.57863134,0.18757193,3.6317465,1.0045679,-2.5476136,-0.508214,9.67848,1.5181823,0,1683969638.3211703
0.14756958,0.57863134,0.18757193,3.6317465,1.0045679,-2.5476136,-0.73742527,9.708478,1.1990745,0,1683969638.326344
0.14756958,0.57863134,0.18757193,3.700469,1.1006265,-2.6170995,-0.73742527,9.708478,1.1990745,0,1683969638.331505
0.14756958,0.57863134,0.18757193,3.700469,1.1006265,-2.6170995,-0.9714921,9.723191,0.86710644,0,1683969638.347014
0.14756958,0.57863134,0.18757193,3.783852,1.0345002,-2.7407997,-0.9714921,9.723191,0.86710644,0,1683969638.3521836
0.10903075,0.58143634,0.071589544,3.783852,1.0345002,-2.7407997,-0.9714921,9.723191,0.86710644,0,1683969638.3573155
0.10903075,0.58143634,0.071589544,3.842037,0.8810204,-2.851977,-0.9714921,9.723191,0.86710644,0,1683969638.393495
0.06457694,0.55832523,-0.09274931,3.842037,0.8810204,-2.851977,-0.9714921,9.723191,0.86710644,0,1683969638.3986661
0.06457694,0.55832523,-0.09274931,3.842037,0.8810204,-2.851977,-1.3336544,9.712748,0.34643936,0,1683969638.4038393
0.06457694,0.55832523,-0.09274931,3.869373,0.57619864,-2.9894218,-1.3336544,9.712748,0.34643936,0,1683969638.4244387
0.06457694,0.55832523,-0.09274931,3.869373,0.57619864,-2.9894218,-1.5843843,9.681203,-0.012427673,0,1683969638.4347043
-0.0041465834,0.5274088,-0.269345,3.869373,0.57619864,-2.9894218,-1.5843843,9.681203,-0.012427673,0,1683969638.4398756
-0.0041465834,0.5274088,-0.269345,3.869373,0.57619864,-2.9894218,-1.8423425,9.628226,-0.37300968,0,1683969638.4656112
-0.0041465834,0.5274088,-0.269345,3.8412733,0.24785857,-3.0807462,-1.8423425,9.628226,-0.37300968,0,1683969638.470781
-0.000365875,0.5168594,-0.3670946,3.8412733,0.24785857,-3.0807462,-1.8423425,9.628226,-0.37300968,0,1683969638.475953
-0.000365875,0.5168594,-0.3670946,3.8412733,0.24785857,-3.0807462,-2.2416952,9.508282,-0.89636767,0,1683969638.4862974
-0.020001167,0.5253355,-0.415634,3.8412733,0.24785857,-3.0807462,-2.2416952,9.508282,-0.89636767,0,1683969638.5069492
-0.020001167,0.5253355,-0.415634,3.738037,-0.13164146,-3.2258267,-2.2416952,9.508282,-0.89636767,0,1683969638.5121243
-0.020001167,0.5253355,-0.415634,3.738037,-0.13164146,-3.2258267,-2.5204995,9.401423,-1.2232914,0,1683969638.5326488
-0.020001167,0.5253355,-0.415634,3.5779905,-0.25137106,-3.3542612,-2.5204995,9.401423,-1.2232914,0,1683969638.5429325
-0.05567398,0.509298,-0.40947512,3.5779905,-0.25137106,-3.3542612,-2.5204995,9.401423,-1.2232914,0,1683969638.548095
-0.11195775,0.52179873,-0.39484012,3.5779905,-0.25137106,-3.3542612,-2.5204995,9.401423,-1.2232914,0,1683969638.5532634
-0.11195775,0.52179873,-0.39484012,3.3102787,-0.15210545,-3.5124753,-2.5204995,9.401423,-1.2232914,0,1683969638.568758
-0.11195775,0.52179873,-0.39484012,3.3102787,-0.15210545,-3.5124753,-2.8081863,9.274371,-1.5284746,0,1683969638.573926
-0.11195775,0.52179873,-0.39484012,3.0955596,0.06291912,-3.6439638,-2.8081863,9.274371,-1.5284746,0,1683969638.5946083
-0.11195775,0.52179873,-0.39484012,3.0955596,0.06291912,-3.6439638,-3.1027532,9.128443,-1.8112389,0,1683969638.599736
-0.20147517,0.50472456,-0.37307054,3.0955596,0.06291912,-3.6439638,-3.1027532,9.128443,-1.8112389,0,1683969638.6100676
-0.3031884,0.42728102,-0.4089263,3.0955596,0.06291912,-3.6439638,-3.1027532,9.128443,-1.8112389,0,1683969638.6357796
-0.3031884,0.42728102,-0.4089263,2.9368873,0.28237244,-3.7264307,-3.1027532,9.128443,-1.8112389,0,1683969638.6409318
-0.3031884,0.42728102,-0.4089263,2.9368873,0.28237244,-3.7264307,-3.40304,8.9631,-2.0780356,0,1683969638.65639
-0.3031884,0.42728102,-0.4089263,2.8985555,0.3287982,-3.7110064,-3.40304,8.9631,-2.0780356,0,1683969638.6718533
-0.3031884,0.42728102,-0.4089263,2.8985555,0.3287982,-3.7110064,-3.7025106,8.779077,-2.335678,0,1683969638.6821976
-0.4110606,0.3881324,-0.4543558,2.8985555,0.3287982,-3.7110064,-3.7025106,8.779077,-2.335678,0,1683969638.692507
-0.4110606,0.3881324,-0.4543558,2.8635836,0.3287982,-3.6441166,-3.7025106,8.779077,-2.335678,0,1683969638.6977613
-0.5283845,0.35550857,-0.5440562,2.8635836,0.3287982,-3.6441166,-3.7025106,8.779077,-2.335678,0,1683969638.7132623
-0.5283845,0.35550857,-0.5440562,2.8635836,0.3287982,-3.6441166,-3.9939964,8.578601,-2.586834,0,1683969638.72873
-0.6533308,0.32422623,-0.6594287,2.8635836,0.3287982,-3.6441166,-3.9939964,8.578601,-2.586834,0,1683969638.733906
-0.6533308,0.32422623,-0.6594287,2.8635836,0.3287982,-3.6441166,-4.408927,8.25249,-2.9485393,0,1683969638.744226
-0.6533308,0.32422623,-0.6594287,2.7896688,0.25381452,-3.532023,-4.408927,8.25249,-2.9485393,0,1683969638.7597218
-0.7383357,0.32739717,-0.77132547,2.7896688,0.25381452,-3.532023,-4.408927,8.25249,-2.9485393,0,1683969638.775193
-0.7383357,0.32739717,-0.77132547,2.7084239,0.16768251,-3.4197764,-4.408927,8.25249,-2.9485393,0,1683969638.7854881
-0.7383357,0.32739717,-0.77132547,2.7084239,0.16768251,-3.4197764,-4.669259,8.022228,-3.1745791,0,1683969638.7958398
-0.7383357,0.32739717,-0.77132547,2.6229026,0.01740966,-3.3475416,-4.669259,8.022228,-3.1745791,0,1683969638.8164914
-0.7383357,0.32739717,-0.77132547,2.6229026,0.01740966,-3.3475416,-5.03724,7.661852,-3.4868824,0,1683969638.8268414
-0.8494398,0.3245921,-0.9060894,2.6229026,0.01740966,-3.3475416,-5.03724,7.661852,-3.4868824,0,1683969638.8319793
-0.9621293,0.27446723,-1.0267063,2.6229026,0.01740966,-3.3475416,-5.03724,7.661852,-3.4868824,0,1683969638.8422298
-0.9621293,0.27446723,-1.0267063,2.5192082,-0.15363261,-3.2656856,-5.03724,7.661852,-3.4868824,0,1683969638.8628466
-0.9621293,0.27446723,-1.0267063,2.5192082,-0.15363261,-3.2656856,-5.2731533,7.4116917,-3.673797,0,1683969638.8680081
-0.9621293,0.27446723,-1.0267063,2.5192082,-0.15363261,-3.2656856,-5.5005555,7.1592617,-3.8373184,0,1683969638.8886552
-0.9621293,0.27446723,-1.0267063,2.3597724,-0.34697145,-3.1180089,-5.5005555,7.1592617,-3.8373184,0,1683969638.9041498
-1.0915881,0.22964753,-1.1226875,2.3597724,-0.34697145,-3.1180089,-5.5005555,7.1592617,-3.8373184,0,1683969638.9093182
-1.0915881,0.22964753,-1.1226875,2.058463,-0.55573463,-2.8307495,-5.5005555,7.1592617,-3.8373184,0,1683969638.9196787
-1.0915881,0.22964753,-1.1226875,2.058463,-0.55573463,-2.8307495,-5.7167945,6.911519,-3.9730663,0,1683969638.9248524
-1.2650129,0.1741565,-1.2160466,2.058463,-0.55573463,-2.8307495,-5.7167945,6.911519,-3.9730663,0,1683969638.9351609
-1.2650129,0.1741565,-1.2160466,2.058463,-0.55573463,-2.8307495,-5.917264,6.6778913,-4.0777245,0,1683969638.9556954
-1.2650129,0.1741565,-1.2160466,1.7145461,-0.6565274,-2.4869852,-5.917264,6.6778913,-4.0777245,0,1683969638.960873
-1.4025208,0.1253122,-1.2307425,1.7145461,-0.6565274,-2.4869852,-5.917264,6.6778913,-4.0777245,0,1683969638.9712226
-1.4025208,0.1253122,-1.2307425,1.7145461,-0.6565274,-2.4869852,-6.1726894,6.379223,-4.176066,0,1683969638.997066
-1.4025208,0.1253122,-1.2307425,1.1901182,-0.60918534,-1.9046779,-6.1726894,6.379223,-4.176066,0,1683969639.0073638
-1.5416144,0.09903017,-1.1777517,1.1901182,-0.60918534,-1.9046779,-6.1726894,6.379223,-4.176066,0,1683969639.0125318
-1.5416144,0.09903017,-1.1777517,0.73273283,-0.42638394,-1.368949,-6.1726894,6.379223,-4.176066,0,1683969639.0228462
-1.5976541,0.10293283,-1.1330539,0.73273283,-0.42638394,-1.368949,-6.1726894,6.379223,-4.176066,0,1683969639.0279849
-1.5976541,0.10293283,-1.1330539,0.73273283,-0.42638394,-1.368949,-6.3003564,6.2300158,-4.2105293,0,1683969639.048525
-1.5976541,0.10293283,-1.1330539,0.73273283,-0.42638394,-1.368949,-6.349227,6.1727962,-4.221377,0,1683969639.0743632
-1.5976541,0.10293283,-1.1330539,0.39385536,-0.2322815,-0.97158116,-6.349227,6.1727962,-4.221377,0,1683969639.079496
-1.6058254,0.116104335,-1.0982958,0.39385536,-0.2322815,-0.97158116,-6.349227,6.1727962,-4.221377,0,1683969639.0898402
-1.5843607,0.1355567,-1.1001252,0.39385536,-0.2322815,-0.97158116,-6.349227,6.1727962,-4.221377,0,1683969639.100166
-1.5843607,0.1355567,-1.1001252,-0.107665,0.043676864,-0.35124752,-6.349227,6.1727962,-4.221377,0,1683969639.1104944
-1.5843607,0.1355567,-1.1001252,-0.107665,0.043676864,-0.35124752,-6.435865,6.0710454,-4.237705,0,1683969639.115667
-1.5843607,0.1355567,-1.1001252,-0.44135013,0.013897184,0.18875736,-6.435865,6.0710454,-4.237705,0,1683969639.1311572
-1.5200276,0.16958307,-1.092076,-0.44135013,0.013897184,0.18875736,-6.435865,6.0710454,-4.237705,0,1683969639.1363146
-1.5200276,0.16958307,-1.092076,-0.44135013,0.013897184,0.18875736,-6.4518156,6.0560107,-4.2349644,0,1683969639.146573
-1.4175828,0.2093415,-1.0267063,-0.44135013,0.013897184,0.18875736,-6.4518156,6.0560107,-4.2349644,0,1683969639.1877208
-1.4175828,0.2093415,-1.0267063,-0.59406644,-0.21762075,0.61468315,-6.4518156,6.0560107,-4.2349644,0,1683969639.1928923
-1.4175828,0.2093415,-1.0267063,-0.59406644,-0.21762075,0.61468315,-6.446758,6.0749683,-4.2154684,0,1683969639.1980538
-1.4175828,0.2093415,-1.0267063,-0.61926466,-0.45372015,0.88163126,-6.446758,6.0749683,-4.2154684,0,1683969639.2238176
-1.3389806,0.2359284,-0.9759716,-0.61926466,-0.45372015,0.88163126,-6.446758,6.0749683,-4.2154684,0,1683969639.2289824
-1.3389806,0.2359284,-0.9759716,-0.61926466,-0.45372015,0.88163126,-6.4172506,6.1481457,-4.1539493,0,1683969639.2341473
-1.2904412,0.24050182,-0.94426244,-0.61926466,-0.45372015,0.88163126,-6.4172506,6.1481457,-4.1539493,0,1683969639.2392907
-1.2904412,0.24050182,-0.94426244,-0.61850107,-0.6910413,1.108415,-6.4172506,6.1481457,-4.1539493,0,1683969639.2546473
-1.2904412,0.24050182,-0.94426244,-0.61850107,-0.6910413,1.108415,-6.3898025,6.216642,-4.0938883,0,1683969639.270139
-0.24903892,0.33227548,-0.2591005,-0.61850107,-0.6910413,1.108415,-6.3898025,6.216642,-4.0938883,0,1683969639.2907088
-0.24903892,0.33227548,-0.2591005,-3.2618678,-1.0919216,3.6230419,-6.3898025,6.216642,-4.0938883,0,1683969639.3112795
-0.24903892,0.33227548,-0.2591005,-3.2618678,-1.0919216,3.6230419,-3.6957083,9.006373,-1.209585,0,1683969639.3216105
-0.20537783,0.33684894,-0.23220867,-3.2618678,-1.0919216,3.6230419,-3.6957083,9.006373,-1.209585,0,1683969639.3267398
-0.20537783,0.33684894,-0.23220867,-3.2618678,-1.0919216,3.6230419,-3.5540795,9.081609,-1.0625526,0,1683969639.331907
-0.20537783,0.33684894,-0.23220867,-3.2826371,-1.1986703,3.6856554,-3.5540795,9.081609,-1.0625526,0,1683969639.342192
-0.099274084,0.3699606,-0.14019111,-3.2826371,-1.1986703,3.6856554,-3.5540795,9.081609,-1.0625526,0,1683969639.3781576
-0.099274084,0.3699606,-0.14019111,-3.2826371,-1.1986703,3.6856554,-3.1048524,9.285826,-0.60782045,0,1683969639.383287
-0.099274084,0.3699606,-0.14019111,-3.3799174,-1.2493721,3.7794232,-3.1048524,9.285826,-0.60782045,0,1683969639.3935637
-0.020610958,0.38612008,-0.033233646,-3.3799174,-1.2493721,3.7794232,-3.1048524,9.285826,-0.60782045,0,1683969639.4090343
-0.020610958,0.38612008,-0.033233646,-3.577685,-1.0542006,3.8528798,-3.1048524,9.285826,-0.60782045,0,1683969639.4193177
-0.020610958,0.38612008,-0.033233646,-3.577685,-1.0542006,3.8528798,-2.7832139,9.402459,-0.28915536,0,1683969639.4244504
-0.020610958,0.38612008,-0.033233646,-3.885103,-0.70417494,3.8994584,-2.7832139,9.402459,-0.28915536,0,1683969639.4502215
0.02420873,0.3995355,0.034819108,-3.885103,-0.70417494,3.8994584,-2.7832139,9.402459,-0.28915536,0,1683969639.4553273
0.02420873,0.3995355,0.034819108,-3.885103,-0.70417494,3.8994584,-2.446886,9.49984,0.044059355,0,1683969639.460445
0.02420873,0.3995355,0.034819108,-3.885103,-0.70417494,3.8994584,-2.1004026,9.574358,0.39511275,0,1683969639.4862201
0.07719963,0.4121582,0.11640923,-3.885103,-0.70417494,3.8994584,-2.1004026,9.574358,0.39511275,0,1683969639.4913495
0.07719963,0.4121582,0.11640923,-4.1813726,-0.35521814,3.907094,-2.1004026,9.574358,0.39511275,0,1683969639.4965076
0.09903017,0.41392657,0.18915738,-4.1813726,-0.35521814,3.907094,-2.1004026,9.574358,0.39511275,0,1683969639.517151
0.09903017,0.41392657,0.18915738,-4.4823766,-0.015118915,3.9232821,-2.1004026,9.574358,0.39511275,0,1683969639.527565
0.09903017,0.41392657,0.18915738,-4.4823766,-0.015118915,3.9232821,-1.5705782,9.635221,0.9653648,0,1683969639.532734
0.09903017,0.41392657,0.18915738,-4.835304,0.3555236,3.951229,-1.5705782,9.635221,0.9653648,0,1683969639.5533867
0.09903017,0.41392657,0.18915738,-4.835304,0.3555236,3.951229,-1.2184361,9.636444,1.37495,0,1683969639.558538
0.09903017,0.41392657,0.18915738,-3.9865067,1.5459472,2.496301,-1.2184361,9.636444,1.37495,0,1683969639.5689192
0.09903017,0.41392657,0.18915738,-3.9865067,1.5459472,2.496301,2.1833642,6.230073,7.256392,0,1683969639.584385
1.1928744,0.52350616,1.744248,-3.9865067,1.5459472,2.496301,2.1833642,6.230073,7.256392,0,1683969639.5946867
1.1928744,0.52350616,1.744248,-3.3573153,1.0682507,1.8420641,2.1833642,6.230073,7.256392,0,1683969639.610144
1.1928744,0.52350616,1.744248,-3.3573153,1.0682507,1.8420641,2.225815,5.8971057,7.5170474,0,1683969639.6204462
1.293856,0.5762531,2.0289598,-3.3573153,1.0682507,1.8420641,2.225815,5.8971057,7.5170474,0,1683969639.6307735
1.2962952,0.51722527,2.2683642,-3.3573153,1.0682507,1.8420641,2.225815,5.8971057,7.5170474,0,1683969639.6463416
1.2962952,0.51722527,2.2683642,-1.9387336,0.3846924,0.68966687,2.225815,5.8971057,7.5170474,0,1683969639.656668
1.2962952,0.51722527,2.2683642,-1.9387336,0.3846924,0.68966687,2.2650087,5.5281105,7.781121,0,1683969639.661837
1.2962952,0.51722527,2.2683642,-1.9387336,0.3846924,0.68966687,2.2753677,5.4055004,7.8638015,0,1683969639.682492
1.1481158,0.38855925,2.3719068,-1.9387336,0.3846924,0.68966687,2.2753677,5.4055004,7.8638015,0,1683969639.6928277
1.1481158,0.38855925,2.3719068,-0.2660318,-0.14401148,-0.321926,2.2753677,5.4055004,7.8638015,0,1683969639.703135
0.95133597,0.28623623,2.3347704,-0.2660318,-0.14401148,-0.321926,2.2753677,5.4055004,7.8638015,0,1683969639.7185843
0.95133597,0.28623623,2.3347704,1.0821478,-0.4280638,-0.91919947,2.2753677,5.4055004,7.8638015,0,1683969639.7237217
0.95133597,0.28623623,2.3347704,1.0821478,-0.4280638,-0.91919947,2.2744389,5.3937597,7.872128,0,1683969639.7288873
0.95133597,0.28623623,2.3347704,1.0821478,-0.4280638,-0.91919947,2.2549589,5.569246,7.7546616,0,1683969639.764988
0.95133597,0.28623623,2.3347704,2.5271494,-0.69974613,-1.3744467,2.2549589,5.569246,7.7546616,0,1683969639.7701604
0.696626,0.17616881,2.1059763,2.5271494,-0.69974613,-1.3744467,2.2549589,5.569246,7.7546616,0,1683969639.775294
0.696626,0.17616881,2.1059763,3.5095735,-1.0216721,-1.5577064,2.2549589,5.569246,7.7546616,0,1683969639.7959454
0.696626,0.17616881,2.1059763,3.5095735,-1.0216721,-1.5577064,2.2383156,5.7842126,7.600588,0,1683969639.8062823
0.5564349,0.114701815,1.8428514,3.5095735,-1.0216721,-1.5577064,2.2383156,5.7842126,7.600588,0,1683969639.8114145
0.5564349,0.114701815,1.8428514,3.970166,-1.289842,-1.6562084,2.2383156,5.7842126,7.600588,0,1683969639.8165843
0.5066149,0.13738607,1.6158869,3.970166,-1.289842,-1.6562084,2.2383156,5.7842126,7.600588,0,1683969639.8372803
0.5066149,0.13738607,1.6158869,4.7707047,-0.91919947,-4.480086,2.2383156,5.7842126,7.600588,0,1683969639.8475986
0.5066149,0.13738607,1.6158869,4.7707047,-0.91919947,-4.480086,-3.0020063,8.707826,-3.3760672,0,1683969639.8681886
-0.30928633,0.34562993,-1.0894538,4.7707047,-0.91919947,-4.480086,-3.0020063,8.707826,-3.3760672,0,1683969639.873354
-0.30928633,0.34562993,-1.0894538,4.7707047,-0.91919947,-4.480086,-3.3852015,8.415142,-3.7365663,0,1683969639.8888168
-0.4674663,0.3111157,-1.1425667,4.7707047,-0.91919947,-4.480086,-3.3852015,8.415142,-3.7365663,0,1683969639.9043882
-0.4674663,0.3111157,-1.1425667,4.6644144,-1.1969905,-4.6331077,-3.3852015,8.415142,-3.7365663,0,1683969639.9095194
-0.4674663,0.3111157,-1.1425667,4.6644144,-1.1969905,-4.6331077,-3.786073,8.090387,-4.055541,0,1683969639.9146771
-0.4674663,0.3111157,-1.1425667,4.364632,-1.4779885,-4.6370783,-3.786073,8.090387,-4.055541,0,1683969639.9300935
-0.79894906,0.19245026,-1.1877522,4.364632,-1.4779885,-4.6370783,-3.786073,8.090387,-4.055541,0,1683969639.935217
-1.1644582,0.0895784,-1.2515364,4.364632,-1.4779885,-4.6370783,-3.786073,8.090387,-4.055541,0,1683969639.955779
-1.1644582,0.0895784,-1.2515364,4.364632,-1.4779885,-4.6370783,-4.18194,7.7475815,-4.326943,0,1683969639.960947
-1.1644582,0.0895784,-1.2515364,3.817297,-1.3997977,-4.2855253,-4.18194,7.7475815,-4.326943,0,1683969639.9712303
-1.1644582,0.0895784,-1.2515364,3.2047517,-1.0697777,-3.7551415,-4.18194,7.7475815,-4.326943,0,1683969639.9969127
-1.1644582,0.0895784,-1.2515364,3.2047517,-1.0697777,-3.7551415,-4.547525,7.4062815,-4.5500693,0,1683969640.0123916
-1.454719,0.017805915,-1.3291019,3.2047517,-1.0697777,-3.7551415,-4.547525,7.4062815,-4.5500693,0,1683969640.0175595
-1.7069288,-0.034941066,-1.4001427,3.2047517,-1.0697777,-3.7551415,-4.547525,7.4062815,-4.5500693,0,1683969640.0278711
-1.7069288,-0.034941066,-1.4001427,2.4471262,-0.5729916,-2.9993484,-4.547525,7.4062815,-4.5500693,0,1683969640.0330362
-1.7069288,-0.034941066,-1.4001427,2.4471262,-0.5729916,-2.9993484,-4.987354,6.948949,-4.803595,0,1683969640.0536385
-1.7069288,-0.034941066,-1.4001427,2.4471262,-0.5729916,-2.9993484,-5.1811857,6.7163887,-4.92763,0,1683969640.0742514
-1.7069288,-0.034941066,-1.4001427,1.3353515,0.24190263,-1.8237382,-5.1811857,6.7163887,-4.92763,0,1683969640.0793839
-1.9041965,-0.05408852,-1.4549628,1.3353515,0.24190263,-1.8237382,-5.1811857,6.7163887,-4.92763,0,1683969640.084533
-1.9041965,-0.05408852,-1.4549628,1.3353515,0.24190263,-1.8237382,-5.282429,6.564426,-5.023978,0,1683969640.1103396
-1.9041965,-0.05408852,-1.4549628,1.3353515,0.24190263,-1.8237382,-0.93566275,9.599306,-1.7927623,0,1683969640.1206524
-1.9041965,-0.05408852,-1.4549628,-3.4109187,0.15286903,3.898084,-0.93566275,9.599306,-1.7927623,0,1683969640.1258175
0.037563168,0.42081723,-0.102688916,-3.4109187,0.15286903,3.898084,-0.93566275,9.599306,-1.7927623,0,1683969640.136156
0.037563168,0.42081723,-0.102688916,-3.4109187,0.15286903,3.898084,-0.7605129,9.641304,-1.6440752,0,1683969640.1567862
0.08506594,0.43075684,-0.069028415,-3.4109187,0.15286903,3.898084,-0.7605129,9.641304,-1.6440752,0,1683969640.1721346
0.08506594,0.43075684,-0.069028415,-3.4773505,0.13164146,3.9490912,-0.7605129,9.641304,-1.6440752,0,1683969640.1772676
0.14531335,0.44722122,0.020367041,-3.4773505,0.13164146,3.9490912,-0.7605129,9.641304,-1.6440752,0,1683969640.197872
0.14531335,0.44722122,0.020367041,-3.4773505,0.13164146,3.9490912,-0.22411443,9.736008,-1.1815662,0,1683969640.2030375
0.14531335,0.44722122,0.020367041,-3.6216674,0.21533,3.9965858,-0.22411443,9.736008,-1.1815662,0,1683969640.2082016
0.16574138,0.4475871,0.09067602,-3.6216674,0.21533,3.9965858,-0.22411443,9.736008,-1.1815662,0,1683969640.2237008
0.16574138,0.4475871,0.09067602,-3.7933204,0.37384954,4.050953,-0.22411443,9.736008,-1.1815662,0,1683969640.228868
0.16574138,0.4475871,0.09067602,-3.7933204,0.37384954,4.050953,0.14129315,9.771722,-0.8541707,0,1683969640.2494602
0.16574138,0.4475871,0.09067602,-4.0814962,0.6740898,4.167475,0.14129315,9.771722,-0.8541707,0,1683969640.2597737
0.16854642,0.42709813,0.16293633,-4.0814962,0.6740898,4.167475,0.14129315,9.771722,-0.8541707,0,1683969640.264941
0.16854642,0.42709813,0.16293633,-4.0814962,0.6740898,4.167475,0.700809,9.779592,-0.32335514,0,1683969640.2701085
0.16854642,0.42709813,0.16293633,-4.3791404,0.93615097,4.274377,0.700809,9.779592,-0.32335514,0,1683969640.2906952
0.19616999,0.40935317,0.18830366,-4.3791404,0.93615097,4.274377,0.700809,9.779592,-0.32335514,0,1683969640.2958539
0.19616999,0.40935317,0.18830366,-4.3791404,0.93615097,4.274377,1.0826827,9.749862,0.063997194,0,1683969640.3061786
0.27093044,0.39142528,0.24300198,-4.3791404,0.93615097,4.274377,1.0826827,9.749862,0.063997194,0,1683969640.3422544
0.27093044,0.39142528,0.24300198,-4.3791404,0.93615097,4.274377,1.4693093,9.687341,0.48240232,0,1683969640.3525865
0.27093044,0.39142528,0.24300198,-4.78109,1.2060007,4.3854017,1.4693093,9.687341,0.48240232,0,1683969640.3577468
0.27093044,0.39142528,0.24300198,-4.78109,1.2060007,4.3854017,1.8563893,9.5874605,0.9330233,0,1683969640.3680658
0.34441036,0.39532796,0.3295924,-4.78109,1.2060007,4.3854017,1.8563893,9.5874605,0.9330233,0,1683969640.3732271
0.34441036,0.39532796,0.3295924,-5.067738,1.3316863,4.4344234,1.8563893,9.5874605,0.9330233,0,1683969640.3886921
0.7914486,0.46179524,1.3663602,-5.067738,1.3316863,4.4344234,1.8563893,9.5874605,0.9330233,0,1683969640.39901
0.7914486,0.46179524,1.3663602,2.094657,0.7855727,-0.59849524,1.8563893,9.5874605,0.9330233,0,1683969640.4041808
0.7341892,0.438989,1.2682447,2.094657,0.7855727,-0.59849524,1.8563893,9.5874605,0.9330233,0,1683969640.4454925
0.7341892,0.438989,1.2682447,2.3602307,0.81046546,-0.7287622,1.8563893,9.5874605,0.9330233,0,1683969640.4506538
0.7341892,0.438989,1.2682447,2.3602307,0.81046546,-0.7287622,4.903384,6.0684247,5.947029,0,1683969640.4558234
0.6799787,0.4147193,1.1634215,2.3602307,0.81046546,-0.7287622,4.903384,6.0684247,5.947029,0,1683969640.4661498
0.6799787,0.4147193,1.1634215,2.3602307,0.81046546,-0.7287622,4.7755365,6.3030343,5.805351,0,1683969640.4816105
0.6799787,0.4147193,1.1634215,2.6736045,0.79519385,-0.84650654,4.7755365,6.3030343,5.805351,0,1683969640.4867775
0.6799787,0.4147193,1.1634215,2.9332223,0.73548174,-0.91919947,4.7755365,6.3030343,5.805351,0,1683969640.5022714
0.6799787,0.4147193,1.1634215,2.9332223,0.73548174,-0.91919947,4.6855903,6.4768167,5.6861424,0,1683969640.5073938
0.6474158,0.40849942,1.092076,2.9332223,0.73548174,-0.91919947,4.6855903,6.4768167,5.6861424,0,1683969640.5177128
0.6302197,0.40825552,1.0454879,2.9332223,0.73548174,-0.91919947,4.6855903,6.4768167,5.6861424,0,1683969640.5383267
0.6302197,0.40825552,1.0454879,3.2085698,0.6600399,-0.9831876,4.6855903,6.4768167,5.6861424,0,1683969640.543487
0.6302197,0.40825552,1.0454879,3.2085698,0.6600399,-0.9831876,4.59466,6.663132,5.543274,0,1683969640.5589852
0.61247474,0.40563342,1.0090833,3.2085698,0.6600399,-0.9831876,4.59466,6.663132,5.543274,0,1683969640.5847747
0.61247474,0.40563342,1.0090833,3.4926221,0.59574634,-1.0519099,4.59466,6.663132,5.543274,0,1683969640.5950704
0.61247474,0.40563342,1.0090833,3.4926221,0.59574634,-1.0519099,4.5491643,6.7604604,5.462361,0,1683969640.600232
0.61247474,0.40563342,1.0090833,3.7636936,0.6160576,-1.1065824,4.5491643,6.7604604,5.462361,0,1683969640.620892
0.61247474,0.40563342,1.0090833,3.7636936,0.6160576,-1.1065824,4.408828,7.0681,5.180762,0,1683969640.626054
0.57436275,0.39612067,0.9585315,3.7636936,0.6160576,-1.1065824,4.408828,7.0681,5.180762,0,1683969640.6363888
0.559118,0.40776768,0.85572064,3.7636936,0.6160576,-1.1065824,4.408828,7.0681,5.180762,0,1683969640.6467295
0.559118,0.40776768,0.85572064,4.016134,0.6951646,-1.161713,4.408828,7.0681,5.180762,0,1683969640.6621757
0.559118,0.40776768,0.85572064,4.016134,0.6951646,-1.161713,4.3091044,7.2810698,4.965255,0,1683969640.6724865
-0.08055348,0.5105176,-0.80577874,4.016134,0.6951646,-1.161713,4.3091044,7.2810698,4.965255,0,1683969640.6827402
-0.08055348,0.5105176,-0.80577874,4.016134,0.6951646,-1.161713,0.8608593,9.000949,-3.8049922,0,1683969640.6930165
-0.08055348,0.5105176,-0.80577874,4.795445,-0.4298964,-2.2119431,0.8608593,9.000949,-3.8049922,0,1683969640.7136052
-0.08055348,0.5105176,-0.80577874,4.4461827,-0.2948952,-2.146275,0.8608593,9.000949,-3.8049922,0,1683969640.723933
-0.08055348,0.5105176,-0.80577874,4.4461827,-0.2948952,-2.146275,0.6637734,8.839256,-4.2027483,0,1683969640.7291062
-0.158058,0.5189327,-0.9364571,4.4461827,-0.2948952,-2.146275,0.6637734,8.839256,-4.2027483,0,1683969640.7496896
-0.158058,0.5189327,-0.9364571,4.113414,-0.2554944,-2.0825922,0.6637734,8.839256,-4.2027483,0,1683969640.7754796
-0.22751327,0.54009247,-1.1524453,4.113414,-0.2554944,-2.0825922,0.6637734,8.839256,-4.2027483,0,1683969640.7806072
-0.22751327,0.54009247,-1.1524453,4.113414,-0.2554944,-2.0825922,0.3862516,8.578805,-4.7424674,0,1683969640.7857568
-0.29794422,0.5547275,-1.3117229,4.113414,-0.2554944,-2.0825922,0.3862516,8.578805,-4.7424674,0,1683969640.8115673
-0.29794422,0.5547275,-1.3117229,4.113414,-0.2554944,-2.0825922,0.20787236,8.397235,-5.0674796,0,1683969640.816746
-0.29794422,0.5547275,-1.3117229,3.866319,-0.4167628,-2.0245602,0.20787236,8.397235,-5.0674796,0,1683969640.8219056
-0.41758534,0.54917836,-1.5360652,3.866319,-0.4167628,-2.0245602,0.20787236,8.397235,-5.0674796,0,1683969640.8373837
-0.41758534,0.54917836,-1.5360652,3.5413384,-0.7516697,-1.9126191,0.20787236,8.397235,-5.0674796,0,1683969640.8425746
-0.41758534,0.54917836,-1.5360652,3.5413384,-0.7516697,-1.9126191,0.02735291,8.212008,-5.3663993,0,1683969640.8528843
-0.50942,0.547471,-1.6489376,3.5413384,-0.7516697,-1.9126191,0.02735291,8.212008,-5.3663993,0,1683969640.878707
-0.50942,0.547471,-1.6489376,3.5413384,-0.7516697,-1.9126191,-0.15852317,8.026731,-5.6376085,0,1683969640.8890114
-0.50942,0.547471,-1.6489376,3.1827607,-1.0520626,-1.7508925,-0.15852317,8.026731,-5.6376085,0,1683969640.8941786
-0.5850951,0.5603376,-1.6528404,3.1827607,-1.0520626,-1.7508925,-0.15852317,8.026731,-5.6376085,0,1683969640.8993068
-0.5850951,0.5603376,-1.6528404,3.1827607,-1.0520626,-1.7508925,-0.34624556,7.8497024,-5.873532,0,1683969640.91478
-0.5850951,0.5603376,-1.6528404,2.7334692,-1.188591,-1.5393804,-0.34624556,7.8497024,-5.873532,0,1683969640.9199026
-0.5850951,0.5603376,-1.6528404,2.0212004,-0.9804387,-1.1954633,-0.34624556,7.8497024,-5.873532,0,1683969640.9456656
-0.6718685,0.5633865,-1.6707683,2.0212004,-0.9804387,-1.1954633,-0.34624556,7.8497024,-5.873532,0,1683969640.955989
-0.6718685,0.5633865,-1.6707683,-4.5066586,-0.80832744,1.484708,-0.34624556,7.8497024,-5.873532,0,1683969640.9714608
0.025977125,0.47777176,-0.24141651,-4.5066586,-0.80832744,1.484708,-0.34624556,7.8497024,-5.873532,0,1683969640.9817858
0.025977125,0.47777176,-0.24141651,-4.5066586,-0.80832744,1.484708,-0.31200323,9.577831,-2.098557,0,1683969640.9869497
0.025977125,0.47777176,-0.24141651,-4.6390634,-0.6151413,1.5135714,-0.31200323,9.577831,-2.098557,0,1683969641.0127501
0.018049834,0.47728392,-0.120921694,-4.6390634,-0.6151413,1.5135714,-0.31200323,9.577831,-2.098557,0,1683969641.0179174
0.018049834,0.47728392,-0.120921694,-4.6390634,-0.6151413,1.5135714,-0.13191122,9.692742,-1.506475,0,1683969641.0282419
0.018110814,0.4763083,-0.013903251,-4.6390634,-0.6151413,1.5135714,-0.13191122,9.692742,-1.506475,0,1683969641.0437417
0.018110814,0.4763083,-0.013903251,-4.6390634,-0.6151413,1.5135714,-0.0031596893,9.748756,-1.0944526,0,1683969641.04891
0.018110814,0.4763083,-0.013903251,-4.700761,-0.39080104,1.5523612,-0.0031596893,9.748756,-1.0944526,0,1683969641.0592208
0.010366458,0.4718568,0.091651686,-4.700761,-0.39080104,1.5523612,-0.0031596893,9.748756,-1.0944526,0,1683969641.0798228
0.010366458,0.4718568,0.091651686,-4.700761,-0.39080104,1.5523612,0.13260967,9.786006,-0.67277366,0,1683969641.0849988
0.010366458,0.4718568,0.091651686,-4.737718,-0.17867808,1.590235,0.13260967,9.786006,-0.67277366,0,1683969641.0952857
0.010366458,0.4718568,0.091651686,-4.774981,0.039858956,1.6389514,0.13260967,9.786006,-0.67277366,0,1683969641.1107688
0.00219525,0.46380752,0.13665432,-4.774981,0.039858956,1.6389514,0.13260967,9.786006,-0.67277366,0,1683969641.1210985
0.00219525,0.46380752,0.13665432,-4.774981,0.039858956,1.6389514,0.27353978,9.8031435,-0.24429727,0,1683969641.126265
0.010915271,0.43051293,0.15037462,-4.774981,0.039858956,1.6389514,0.27353978,9.8031435,-0.24429727,0,1683969641.1520164
0.010915271,0.43051293,0.15037462,-4.850423,0.23732115,1.7351627,0.27353978,9.8031435,-0.24429727,0,1683969641.1571782
0.010915271,0.43051293,0.15037462,-4.850423,0.23732115,1.7351627,0.49429843,9.789013,0.40867245,0,1683969641.1726491
0.010915271,0.43051293,0.15037462,-4.850423,0.23732115,1.7351627,0.64945227,9.751496,0.8500852,0,1683969641.1881232
0.053844605,0.4030723,0.16037522,-4.850423,0.23732115,1.7351627,0.64945227,9.751496,0.8500852,0,1683969641.1932874
0.053844605,0.4030723,0.16037522,-4.937013,0.28848112,1.8112154,0.64945227,9.751496,0.8500852,0,1683969641.2036076
0.053844605,0.4030723,0.16037522,-5.0126076,0.17134771,1.8443549,0.64945227,9.751496,0.8500852,0,1683969641.224252
0.16641214,0.4051456,0.24141651,-5.0126076,0.17134771,1.8443549,0.64945227,9.751496,0.8500852,0,1683969641.2345726
0.16641214,0.4051456,0.24141651,3.5865426,0.47907108,-2.1768184,0.64945227,9.751496,0.8500852,0,1683969641.249932
0.16641214,0.4051456,0.24141651,3.5865426,0.47907108,-2.1768184,0.63096714,9.287832,3.0942144,0,1683969641.2603397
0.19891405,0.64997697,0.6743686,3.5865426,0.47907108,-2.1768184,0.63096714,9.287832,3.0942144,0,1683969641.2706623
0.21531744,0.632232,0.70211416,3.5865426,0.47907108,-2.1768184,0.63096714,9.287832,3.0942144,0,1683969641.2963462
0.21531744,0.632232,0.70211416,3.5863898,0.573297,-2.2249238,0.63096714,9.287832,3.0942144,0,1683969641.301481
0.21531744,0.632232,0.70211416,3.5863898,0.573297,-2.2249238,0.43577188,9.390362,2.8048756,0,1683969641.3066173
0.21531744,0.632232,0.70211416,3.5863898,0.573297,-2.2249238,0.23337145,9.48053,2.510222,0,1683969641.3220818
0.21428078,0.62936604,0.71077317,3.5863898,0.573297,-2.2249238,0.23337145,9.48053,2.510222,0,1683969641.3375309
0.21428078,0.62936604,0.71077317,3.7394116,0.7153232,-2.3138049,0.23337145,9.48053,2.510222,0,1683969641.342693
0.20147517,0.60491335,0.6691244,3.7394116,0.7153232,-2.3138049,0.23337145,9.48053,2.510222,0,1683969641.358177
0.20147517,0.60491335,0.6691244,3.9962804,0.7318166,-2.4051292,0.23337145,9.48053,2.510222,0,1683969641.3684633
0.20147517,0.60491335,0.6691244,3.9962804,0.7318166,-2.4051292,0.022751443,9.560173,2.1997015,0,1683969641.3787737
0.20147517,0.60491335,0.6691244,3.9962804,0.7318166,-2.4051292,-0.08539954,9.596184,2.0352082,0,1683969641.3942025
0.20147517,0.60491335,0.6691244,4.1657953,0.7119634,-2.451555,-0.08539954,9.596184,2.0352082,0,1683969641.3993163
0.1879378,0.597108,0.6530869,4.1657953,0.7119634,-2.451555,-0.08539954,9.596184,2.0352082,0,1683969641.4147315
0.1879378,0.597108,0.6530869,4.725043,0.36728272,-2.5615108,-0.08539954,9.596184,2.0352082,0,1683969641.4302151
0.03146525,0.53375065,0.29934675,4.725043,0.36728272,-2.5615108,-0.08539954,9.596184,2.0352082,0,1683969641.4353216
0.03146525,0.53375065,0.29934675,4.725043,0.36728272,-2.5615108,-0.5337689,9.709826,1.2924657,0,1683969641.4456553
0.03146525,0.53375065,0.29934675,4.9803843,-0.081397794,-2.61038,-0.5337689,9.709826,1.2924657,0,1683969641.466285
0.03146525,0.53375065,0.29934675,4.9803843,-0.081397794,-2.61038,-0.76273394,9.741264,0.87300164,0,1683969641.4817684
-0.042624436,0.52984804,0.11153089,4.9803843,-0.081397794,-2.61038,-0.76273394,9.741264,0.87300164,0,1683969641.492078
-0.042624436,0.52984804,0.11153089,4.9803843,-0.081397794,-2.61038,-0.99468863,9.749844,0.432732,0,1683969641.5023575
-0.097871564,0.506371,-0.041221917,4.9803843,-0.081397794,-2.61038,-0.99468863,9.749844,0.432732,0,1683969641.517799
-0.8434029,0.5704601,-1.3739827,4.9803843,-0.081397794,-2.61038,-0.99468863,9.749844,0.432732,0,1683969641.52296
-0.8434029,0.5704601,-1.3739827,4.9803843,-0.081397794,-2.61038,-3.9489758,8.13025,-3.8132327,0,1683969641.5281227
-0.8434029,0.5704601,-1.3739827,-0.43249258,0.25060746,0.14492778,-3.9489758,8.13025,-3.8132327,0,1683969641.5384538
-0.7864483,0.58790016,-1.2951975,-0.43249258,0.25060746,0.14492778,-3.9489758,8.13025,-3.8132327,0,1683969641.5436146
-0.7864483,0.58790016,-1.2951975,-0.43249258,0.25060746,0.14492778,-3.9336221,8.143629,-3.8005326,0,1683969641.548738
-0.7864483,0.58790016,-1.2951975,-0.8924741,0.10903945,0.3089451,-3.9336221,8.143629,-3.8005326,0,1683969641.5642192
-0.7452264,0.59412,-1.2112292,-0.8924741,0.10903945,0.3089451,-3.9336221,8.143629,-3.8005326,0,1683969641.5848663
-0.7452264,0.59412,-1.2112292,-0.8924741,0.10903945,0.3089451,-3.899976,8.195444,-3.7230382,0,1683969641.600308
-0.7452264,0.59412,-1.2112292,-1.1841623,-0.030390546,0.41401392,-3.899976,8.195444,-3.7230382,0,1683969641.6054196
-0.70741934,0.59607136,-1.1204922,-1.1841623,-0.030390546,0.41401392,-3.899976,8.195444,-3.7230382,0,1683969641.6311653
-0.70741934,0.59607136,-1.1204922,-1.1841623,-0.030390546,0.41401392,-3.8738317,8.245679,-3.6384523,0,1683969641.641493
-0.70741934,0.59607136,-1.1204922,-1.4240797,-0.25152376,0.5345071,-3.8738317,8.245679,-3.6384523,0,1683969641.6466463
-0.70741934,0.59607136,-1.1204922,-1.5439619,-0.4373795,0.6409504,-3.8738317,8.245679,-3.6384523,0,1683969641.6569247
-0.70741934,0.59607136,-1.1204922,-1.5439619,-0.4373795,0.6409504,-3.8459435,8.304228,-3.5333579,0,1683969641.6620865
-0.66388017,0.58546096,-1.0160959,-1.5439619,-0.4373795,0.6409504,-3.8459435,8.304228,-3.5333579,0,1683969641.6827404
-0.66388017,0.58546096,-1.0160959,-1.6207782,-0.6450737,0.7475463,-3.8459435,8.304228,-3.5333579,0,1683969641.6879027
-0.6247926,0.58729035,-0.9606658,-1.6207782,-0.6450737,0.7475463,-3.8459435,8.304228,-3.5333579,0,1683969641.6930654
-0.6247926,0.58729035,-0.9606658,-1.6207782,-0.6450737,0.7475463,-3.8155584,8.368568,-3.4124265,0,1683969641.7084355
-0.6247926,0.58729035,-0.9606658,-1.6902641,-0.8538369,0.8542951,-3.8155584,8.368568,-3.4124265,0,1683969641.7238667
-0.5836316,0.5827169,-0.9231027,-1.6902641,-0.8538369,0.8542951,-3.8155584,8.368568,-3.4124265,0,1683969641.7393014
-0.5836316,0.5827169,-0.9231027,-1.6902641,-0.8538369,0.8542951,-3.7819974,8.4374485,-3.2775135,0,1683969641.7547777
-0.5836316,0.5827169,-0.9231027,-1.6902641,-0.8538369,0.8542951,-3.7447646,8.509815,-3.129844,0,1683969641.770266
-0.5836316,0.5827169,-0.9231027,-1.7789923,-1.1695015,0.9931142,-3.7447646,8.509815,-3.129844,0,1683969641.775393
-0.5388729,0.5674112,-0.90054035,-1.7789923,-1.1695015,0.9931142,-3.7447646,8.509815,-3.129844,0,1683969641.7805529
-0.4991755,0.5585082,-0.85767204,-1.7789923,-1.1695015,0.9931142,-3.7447646,8.509815,-3.129844,0,1683969641.7960033
-0.4991755,0.5585082,-0.85767204,-1.7789923,-1.1695015,0.9931142,-1.1736428,9.417502,2.4838114,0,1683969641.8062565
-0.4991755,0.5585082,-0.85767204,-3.2102497,-1.4669929,2.1551325,-1.1736428,9.417502,2.4838114,0,1683969641.811383
-0.026586918,0.5669233,0.39819396,-3.2102497,-1.4669929,2.1551325,-1.1736428,9.417502,2.4838114,0,1683969641.8217022
-0.026586918,0.5669233,0.39819396,-3.2102497,-1.4669929,2.1551325,-0.84175074,9.3249445,2.9279654,0,1683969641.8320274
-0.026586918,0.5669233,0.39819396,-3.2511775,-1.2705997,2.2186625,-0.84175074,9.3249445,2.9279654,0,1683969641.8422914
-0.008415125,0.5852781,0.49508983,-3.2511775,-1.2705997,2.2186625,-0.84175074,9.3249445,2.9279654,0,1683969641.8577535
0.034148335,0.5901564,0.59948623,-3.2511775,-1.2705997,2.2186625,-0.84175074,9.3249445,2.9279654,0,1683969641.8732464
0.034148335,0.5901564,0.59948623,-3.2511775,-1.2705997,2.2186625,-0.61687326,9.245476,3.2212973,0,1683969641.8784115
0.034148335,0.5901564,0.59948623,-3.254232,-1.0665708,2.3055582,-0.61687326,9.245476,3.2212973,0,1683969641.8835685
0.034148335,0.5901564,0.59948623,-3.1743612,-0.98822725,2.3811526,-0.61687326,9.245476,3.2212973,0,1683969641.9092917
0.034148335,0.5901564,0.59948623,-3.1743612,-0.98822725,2.3811526,-0.38829577,9.152864,3.508622,0,1683969641.9195476
0.07841921,0.58820504,0.67381984,-3.1743612,-0.98822725,2.3811526,-0.38829577,9.152864,3.508622,0,1683969641.9298384
0.07841921,0.58820504,0.67381984,-3.004846,-0.95707315,2.460107,-0.38829577,9.152864,3.508622,0,1683969641.9504478
0.15238695,0.5998521,0.7574832,-3.004846,-0.95707315,2.460107,-0.38829577,9.152864,3.508622,0,1683969641.9555984
0.15238695,0.5998521,0.7574832,-3.004846,-0.95707315,2.460107,-0.036024988,8.994571,3.9156752,0,1683969641.9659069
0.15238695,0.5998521,0.7574832,-2.8357892,-0.97784257,2.4758368,-0.036024988,8.994571,3.9156752,0,1683969641.9762263
0.22708642,0.629305,0.8106571,-2.8357892,-0.97784257,2.4758368,-0.036024988,8.994571,3.9156752,0,1683969641.9813817
0.22708642,0.629305,0.8106571,-2.8357892,-0.97784257,2.4758368,0.20439017,8.879429,4.165344,0,1683969641.9916923
0.3231896,0.64820856,0.8730997,-2.8357892,-0.97784257,2.4758368,0.20439017,8.879429,4.165344,0,1683969642.012345
0.3231896,0.64820856,0.8730997,-2.6120598,-1.0082331,2.4199426,0.20439017,8.879429,4.165344,0,1683969642.0226598
0.3231896,0.64820856,0.8730997,-2.6120598,-1.0082331,2.4199426,0.44608176,8.759093,4.3949294,0,1683969642.0329962
0.3714241,0.646928,0.88694197,-2.6120598,-1.0082331,2.4199426,0.44608176,8.759093,4.3949294,0,1683969642.0587356
0.3714241,0.646928,0.88694197,-2.6120598,-1.0082331,2.4199426,0.5660814,8.697396,4.502329,0,1683969642.0690215
0.3714241,0.646928,0.88694197,-2.5283713,-1.0224357,2.3790147,0.5660814,8.697396,4.502329,0,1683969642.0741887
0.3714241,0.646928,0.88694197,2.9755247,1.1785117,-1.6505579,0.5660814,8.697396,4.502329,0,1683969642.0793104
0.3714241,0.646928,0.88694197,2.9755247,1.1785117,-1.6505579,1.069285,9.257916,3.0632868,0,1683969642.0947495
0.3591063,0.6250365,0.5049075,2.9755247,1.1785117,-1.6505579,1.069285,9.257916,3.0632868,0,1683969642.099915
0.32081142,0.6613191,0.5272868,2.9755247,1.1785117,-1.6505579,1.069285,9.257916,3.0632868,0,1683969642.120472
0.32081142,0.6613191,0.5272868,2.9755247,1.1785117,-1.6505579,0.90250283,9.348665,2.8326762,0,1683969642.130791
0.32081142,0.6613191,0.5272868,2.9717066,1.4729488,-1.6971364,0.90250283,9.348665,2.8326762,0,1683969642.146265
0.304347,0.6633314,0.45167267,2.9717066,1.4729488,-1.6971364,0.90250283,9.348665,2.8326762,0,1683969642.1616993
0.304347,0.6633314,0.45167267,2.9717066,1.4729488,-1.6971364,0.7279731,9.431815,2.597503,0,1683969642.1720192
0.304347,0.6633314,0.45167267,3.1380148,1.6604844,-1.7898352,0.7279731,9.431815,2.597503,0,1683969642.1823273
0.304347,0.6633314,0.45167267,3.1380148,1.6604844,-1.7898352,0.45272186,9.546345,2.213246,0,1683969642.1977503
0.28727287,0.6328418,0.34026375,3.1380148,1.6604844,-1.7898352,0.45272186,9.546345,2.213246,0,1683969642.2080584
0.28727287,0.6328418,0.34026375,3.315013,1.7117971,-1.9013181,0.45272186,9.546345,2.213246,0,1683969642.213221
0.28727287,0.6328418,0.34026375,3.315013,1.7117971,-1.9013181,0.26053864,9.614537,1.931043,0,1683969642.2235215
0.28727287,0.6328418,0.34026375,3.4385605,1.7159204,-2.0201313,0.26053864,9.614537,1.931043,0,1683969642.2390025
0.25190493,0.57655805,0.20848778,3.4385605,1.7159204,-2.0201313,0.26053864,9.614537,1.931043,0,1683969642.2441223
0.25190493,0.57655805,0.20848778,3.4385605,1.7159204,-2.0201313,0.062360264,9.673033,1.6323866,0,1683969642.269909
0.25190493,0.57655805,0.20848778,3.4984252,1.6620116,-2.1109977,0.062360264,9.673033,1.6323866,0,1683969642.2802155
0.20653644,0.5232622,0.10134738,3.4984252,1.6620116,-2.1109977,0.062360264,9.673033,1.6323866,0,1683969642.2853713
0.20653644,0.5232622,0.10134738,3.4984252,1.6620116,-2.1109977,-0.13857302,9.719387,1.3230461,0,1683969642.2956977
0.20653644,0.5232622,0.10134738,3.4961345,1.5499178,-2.2056818,-0.13857302,9.719387,1.3230461,0,1683969642.3111186
0.14811839,0.46277088,0.030489584,3.4961345,1.5499178,-2.2056818,-0.13857302,9.719387,1.3230461,0,1683969642.321369
0.14811839,0.46277088,0.030489584,3.499647,1.4479034,-2.2624922,-0.13857302,9.719387,1.3230461,0,1683969642.3419566
0.14811839,0.46277088,0.030489584,3.499647,1.4479034,-2.2624922,-0.34221357,9.752015,1.0085728,0,1683969642.3471293
0.102140106,0.44795296,-0.012805625,3.499647,1.4479034,-2.2624922,-0.34221357,9.752015,1.0085728,0,1683969642.352296
0.102140106,0.44795296,-0.012805625,-0.7823657,-0.60918534,0.68630713,-0.34221357,9.752015,1.0085728,0,1683969642.3574543
-1.0559762,0.56417924,-1.1214069,-0.7823657,-0.60918534,0.68630713,-0.34221357,9.752015,1.0085728,0,1683969642.3626218
-1.0559762,0.56417924,-1.1214069,-0.7823657,-0.60918534,0.68630713,-4.181287,7.7756367,-4.276969,0,1683969642.367781
-1.0559762,0.56417924,-1.1214069,-0.98944896,-0.69226307,0.91247994,-4.181287,7.7756367,-4.276969,0,1683969642.3883715
-1.0559762,0.56417924,-1.1214069,-0.98944896,-0.69226307,0.91247994,-4.160051,7.827794,-4.201872,0,1683969642.3935344
-0.9736544,0.5574716,-1.0415242,-0.98944896,-0.69226307,0.91247994,-4.160051,7.827794,-4.201872,0,1683969642.3986986
-0.9065772,0.5485686,-1.0048147,-0.98944896,-0.69226307,0.91247994,-4.160051,7.827794,-4.201872,0,1683969642.4192238
-0.9065772,0.5485686,-1.0048147,-1.1385001,-0.77381355,1.0790935,-4.160051,7.827794,-4.201872,0,1683969642.4243338
-0.9065772,0.5485686,-1.0048147,-1.1385001,-0.77381355,1.0790935,-4.1273794,7.8922696,-4.1125345,0,1683969642.4346116
-0.8247433,0.5397266,-0.97767895,-1.1385001,-0.77381355,1.0790935,-4.1273794,7.8922696,-4.1125345,0,1683969642.4500773
-0.8247433,0.5397266,-0.97767895,-1.1385001,-0.77381355,1.0790935,-4.059751,8.008454,-3.9521127,0,1683969642.4655335
-0.8247433,0.5397266,-0.97767895,-1.3130548,-0.9486737,1.2728904,-4.059751,8.008454,-3.9521127,0,1683969642.4706998
-0.8247433,0.5397266,-0.97767895,-1.3130548,-0.9486737,1.2728904,-4.0046244,8.09715,-3.8256001,0,1683969642.4913025
-0.75156826,0.5367996,-0.9186512,-1.3130548,-0.9486737,1.2728904,-4.0046244,8.09715,-3.8256001,0,1683969642.4964576
-0.75156826,0.5367996,-0.9186512,-1.4419475,-1.1184943,1.4217888,-4.0046244,8.09715,-3.8256001,0,1683969642.5016148
-0.75156826,0.5367996,-0.9186512,-1.5696182,-1.2490667,1.541213,-4.0046244,8.09715,-3.8256001,0,1683969642.532505
-0.6769907,0.54210484,-0.84462243,-1.5696182,-1.2490667,1.541213,-4.0046244,8.09715,-3.8256001,0,1683969642.5376675
-0.6769907,0.54210484,-0.84462243,-1.5696182,-1.2490667,1.541213,-3.9419677,8.193234,-3.68347,0,1683969642.5428274
-0.6769907,0.54210484,-0.84462243,-1.7218764,-1.3455834,1.6519324,-3.9419677,8.193234,-3.68347,0,1683969642.5633528
-0.58704644,0.556313,-0.74534833,-1.7218764,-1.3455834,1.6519324,-3.9419677,8.193234,-3.68347,0,1683969642.5737047
-0.58704644,0.556313,-0.74534833,-1.7218764,-1.3455834,1.6519324,-3.871286,8.295207,-3.5268624,0,1683969642.5839863
-0.58704644,0.556313,-0.74534833,-1.7218764,-1.3455834,1.6519324,-3.750885,8.454247,-3.2699702,0,1683969642.5891485
-0.5250307,0.55625194,-0.69125986,-1.7218764,-1.3455834,1.6519324,-3.750885,8.454247,-3.2699702,0,1683969642.6046154
-0.5250307,0.55625194,-0.69125986,-1.864208,-1.40667,1.7185167,-3.750885,8.454247,-3.2699702,0,1683969642.6149313
0.04762473,0.4484408,0.1355567,-1.864208,-1.40667,1.7185167,-3.750885,8.454247,-3.2699702,0,1683969642.6304314
0.04762473,0.4484408,0.1355567,-3.3750305,-0.84665924,3.172376,-3.750885,8.454247,-3.2699702,0,1683969642.6407466
0.10848194,0.47069818,0.2128173,-3.3750305,-0.84665924,3.172376,-3.750885,8.454247,-3.2699702,0,1683969642.661364
0.10848194,0.47069818,0.2128173,-3.3750305,-0.84665924,3.172376,-0.9624871,9.747999,0.53502667,0,1683969642.671676
0.2215983,0.5174692,0.3377636,-3.3750305,-0.84665924,3.172376,-0.9624871,9.747999,0.53502667,0,1683969642.6819727
0.2215983,0.5174692,0.3377636,-3.4715471,-0.689056,3.1771102,-0.9624871,9.747999,0.53502667,0,1683969642.6922984
0.2215983,0.5174692,0.3377636,-3.4715471,-0.689056,3.1771102,-0.5190085,9.743985,1.0106989,0,1683969642.6974576
0.34904477,0.5705211,0.4376475,-3.4715471,-0.689056,3.1771102,-0.5190085,9.743985,1.0106989,0,1683969642.7232068
0.34904477,0.5705211,0.4376475,-3.4715471,-0.689056,3.1771102,-0.22167146,9.716595,1.3322028,0,1683969642.7334845
0.34904477,0.5705211,0.4376475,-3.480252,-0.57650405,3.1057916,-0.22167146,9.716595,1.3322028,0,1683969642.7386467
0.34904477,0.5705211,0.4376475,-3.4008396,-0.4980079,2.9277244,-0.22167146,9.716595,1.3322028,0,1683969642.759215
0.34904477,0.5705211,0.4376475,-3.4008396,-0.4980079,2.9277244,0.06857001,9.670147,1.6491452,0,1683969642.7643387
0.5107005,0.6589409,0.535702,-3.4008396,-0.4980079,2.9277244,0.06857001,9.670147,1.6491452,0,1683969642.7746584
0.5107005,0.6589409,0.535702,-3.262784,-0.5395467,2.688418,0.06857001,9.670147,1.6491452,0,1683969642.7900927
0.5107005,0.6589409,0.535702,-3.262784,-0.5395467,2.688418,0.34446505,9.607053,1.9549944,0,1683969642.795213
0.6286342,0.7321159,0.603023,-3.262784,-0.5395467,2.688418,0.34446505,9.607053,1.9549944,0,1683969642.8003716
0.75925165,0.7630323,0.626439,-3.262784,-0.5395467,2.688418,0.34446505,9.607053,1.9549944,0,1683969642.8261366
0.75925165,0.7630323,0.626439,-3.262784,-0.5395467,2.688418,0.60056406,9.531116,2.2434971,0,1683969642.8312614
0.75925165,0.7630323,0.626439,-3.0439415,-0.7133379,2.415972,0.60056406,9.531116,2.2434971,0,1683969642.836425
0.75925165,0.7630323,0.626439,-3.0439415,-0.7133379,2.415972,0.9516961,9.404113,2.6254585,0,1683969642.8622177
0.75925165,0.7630323,0.626439,-2.6352727,-1.1988231,2.0680842,0.9516961,9.404113,2.6254585,0,1683969642.8776512
0.94011587,0.85236686,0.6974797,-2.6352727,-1.1988231,2.0680842,0.9516961,9.404113,2.6254585,0,1683969642.8827744
0.94011587,0.85236686,0.6974797,-2.3212879,-1.536326,1.8190039,0.9516961,9.404113,2.6254585,0,1683969642.9033444
0.31312802,0.7364454,0.21135378,-2.3212879,-1.536326,1.8190039,0.9516961,9.404113,2.6254585,0,1683969642.9240074
0.31312802,0.7364454,0.21135378,3.268587,1.6783522,-2.2052236,0.9516961,9.404113,2.6254585,0,1683969642.9291718
0.31312802,0.7364454,0.21135378,3.268587,1.6783522,-2.2052236,0.18055472,9.769015,0.87741745,0,1683969642.93948
0.3070911,0.72760344,0.06658925,3.268587,1.6783522,-2.2052236,0.18055472,9.769015,0.87741745,0,1683969642.9652758
0.3070911,0.72760344,0.06658925,3.268587,1.6783522,-2.2052236,-0.115431644,9.79918,0.44596305,0,1683969642.9755542
0.3070911,0.72760344,0.06658925,3.4338262,1.701107,-2.3397665,-0.115431644,9.79918,0.44596305,0,1683969642.9807105
0.3070911,0.72760344,0.06658925,3.4338262,1.701107,-2.3397665,-0.3224143,9.803831,0.13062973,0,1683969643.0013468
0.28715092,0.71034634,-0.11317733,3.4338262,1.701107,-2.3397665,-0.3224143,9.803831,0.13062973,0,1683969643.0065036
0.28715092,0.71034634,-0.11317733,3.5631769,1.5824465,-2.499508,-0.3224143,9.803831,0.13062973,0,1683969643.0168264
0.28715092,0.71034634,-0.11317733,3.6221254,1.2235631,-2.7181976,-0.3224143,9.803831,0.13062973,0,1683969643.0323114
0.21732976,0.6608312,-0.3312998,3.6221254,1.2235631,-2.7181976,-0.3224143,9.803831,0.13062973,0,1683969643.037472
0.21732976,0.6608312,-0.3312998,3.6221254,1.2235631,-2.7181976,-0.5401009,9.793037,-0.20202832,0,1683969643.0426328
0.1703758,0.6186946,-0.42685416,3.6221254,1.2235631,-2.7181976,-0.5401009,9.793037,-0.20202832,0,1683969643.0581079
0.1703758,0.6186946,-0.42685416,3.6221254,1.2235631,-2.7181976,-0.7703539,9.764645,-0.5425766,0,1683969643.0684032
0.1703758,0.6186946,-0.42685416,3.5715764,0.79427755,-2.8383853,-0.7703539,9.764645,-0.5425766,0,1683969643.0838842
0.09640807,0.59613234,-0.45148978,3.5715764,0.79427755,-2.8383853,-0.7703539,9.764645,-0.5425766,0,1683969643.0941951
0.09640807,0.59613234,-0.45148978,3.3928983,0.42546764,-2.9109256,-0.7703539,9.764645,-0.5425766,0,1683969643.1096153
0.09640807,0.59613234,-0.45148978,3.3928983,0.42546764,-2.9109256,-1.0105671,9.718291,-0.87733793,0,1683969643.1250503
0.033355605,0.61149913,-0.33325115,3.3928983,0.42546764,-2.9109256,-1.0105671,9.718291,-0.87733793,0,1683969643.135333
0.033355605,0.61149913,-0.33325115,3.0228667,0.29703322,-2.9843822,-1.0105671,9.718291,-0.87733793,0,1683969643.145647
0.033355605,0.61149913,-0.33325115,3.0228667,0.29703322,-2.9843822,-1.2577451,9.6559305,-1.1904768,0,1683969643.1611235
0.00219525,0.614731,-0.2273913,3.0228667,0.29703322,-2.9843822,-1.2577451,9.6559305,-1.1904768,0,1683969643.1714206
0.00219525,0.614731,-0.2273913,2.790585,0.4448626,-3.0071368,-1.2577451,9.6559305,-1.1904768,0,1683969643.1817348
0.00219525,0.614731,-0.2273913,2.790585,0.4448626,-3.0071368,-1.5090168,9.580892,-1.4715642,0,1683969643.1868927
0.00219525,0.614731,-0.2273913,2.790585,0.4448626,-3.0071368,-4.764487,7.409768,-4.316384,0,1683969643.2023504
0.00219525,0.614731,-0.2273913,-0.79534656,-0.9411906,1.5137241,-4.764487,7.409768,-4.316384,0,1683969643.2178166
-1.1161627,0.35605735,-0.8466957,-0.79534656,-0.9411906,1.5137241,-4.764487,7.409768,-4.316384,0,1683969643.2229784
-1.1161627,0.35605735,-0.8466957,-0.9642508,-0.92179567,1.7712038,-4.764487,7.409768,-4.316384,0,1683969643.2332692
-1.1161627,0.35605735,-0.8466957,-0.9642508,-0.92179567,1.7712038,-4.7020283,7.5021014,-4.2243953,0,1683969643.2435014
-1.0413412,0.36471638,-0.80218095,-0.9642508,-0.92179567,1.7712038,-4.7020283,7.5021014,-4.2243953,0,1683969643.2486105
-0.936762,0.38307112,-0.7590077,-0.9642508,-0.92179567,1.7712038,-4.7020283,7.5021014,-4.2243953,0,1683969643.2795272
-0.936762,0.38307112,-0.7590077,-0.9642508,-0.92179567,1.7712038,-4.6195445,7.609627,-4.1218343,0,1683969643.284685
-0.936762,0.38307112,-0.7590077,-1.1427761,-0.94913185,2.0631974,-4.6195445,7.609627,-4.1218343,0,1683969643.2898498
-0.8496228,0.39795005,-0.7299816,-1.1427761,-0.94913185,2.0631974,-4.6195445,7.609627,-4.1218343,0,1683969643.3052864
-0.8496228,0.39795005,-0.7299816,-1.1427761,-0.94913185,2.0631974,-4.519024,7.7296615,-4.008352,0,1683969643.3156078
-0.8496228,0.39795005,-0.7299816,-1.2615894,-1.0154108,2.2666154,-4.519024,7.7296615,-4.008352,0,1683969643.3310366
-0.8496228,0.39795005,-0.7299816,-1.2615894,-1.0154108,2.2666154,-4.402969,7.8588176,-3.8844495,0,1683969643.3464074
-0.8496228,0.39795005,-0.7299816,-1.3972015,-1.1507174,2.462856,-4.402969,7.8588176,-3.8844495,0,1683969643.3566835
-0.7326037,0.41575596,-0.7109561,-1.3972015,-1.1507174,2.462856,-4.402969,7.8588176,-3.8844495,0,1683969643.361841
-0.7326037,0.41575596,-0.7109561,-1.500285,-1.2666291,2.5714374,-4.402969,7.8588176,-3.8844495,0,1683969643.3824692
-0.6421716,0.42874455,-0.6712587,-1.500285,-1.2666291,2.5714374,-4.402969,7.8588176,-3.8844495,0,1683969643.3876274
-0.6421716,0.42874455,-0.6712587,-1.500285,-1.2666291,2.5714374,-4.273999,7.994746,-3.748747,0,1683969643.3979397
-0.6421716,0.42874455,-0.6712587,-1.500285,-1.2666291,2.5714374,-4.0629435,8.204648,-3.5231154,0,1683969643.4134192
-0.57033813,0.43392777,-0.6238779,-1.500285,-1.2666291,2.5714374,-4.0629435,8.204648,-3.5231154,0,1683969643.4185815
-0.57033813,0.43392777,-0.6238779,-1.6081028,-1.3640621,2.643214,-4.0629435,8.204648,-3.5231154,0,1683969643.4237342
-0.5278967,0.43575716,-0.56363046,-1.6081028,-1.3640621,2.643214,-4.0629435,8.204648,-3.5231154,0,1683969643.459698
-0.5278967,0.43575716,-0.56363046,-1.6927075,-1.408808,2.682004,-4.0629435,8.204648,-3.5231154,0,1683969643.46485
-0.5278967,0.43575716,-0.56363046,-1.3828462,-0.12110403,2.3701572,-4.0629435,8.204648,-3.5231154,0,1683969643.485439
-0.5278967,0.43575716,-0.56363046,-1.3828462,-0.12110403,2.3701572,1.8552374,9.607578,0.69902706,0,1683969643.495752
0.6961991,0.90169895,0.26641798,-1.3828462,-0.12110403,2.3701572,1.8552374,9.607578,0.69902706,0,1683969643.5009131
0.92926157,1.0364629,0.39233997,-1.3828462,-0.12110403,2.3701572,1.8552374,9.607578,0.69902706,0,1683969643.5215223
0.92926157,1.0364629,0.39233997,-1.5335772,0.035124753,2.4136813,1.8552374,9.607578,0.69902706,0,1683969643.5318422
1.0605496,1.1311026,0.4984437,-1.5335772,0.035124753,2.4136813,1.8552374,9.607578,0.69902706,0,1683969643.557622
1.0605496,1.1311026,0.4984437,-1.5335772,0.035124753,2.4136813,2.498643,9.424097,1.0859543,0,1683969643.5627887
1.0605496,1.1311026,0.4984437,-1.490053,0.14156802,2.2573,2.498643,9.424097,1.0859543,0,1683969643.5679078
1.1372005,1.1772028,0.6018644,-1.490053,0.14156802,2.2573,2.498643,9.424097,1.0859543,0,1683969643.578231
1.1372005,1.1772028,0.6018644,-1.413084,0.23350324,2.0657935,2.498643,9.424097,1.0859543,0,1683969643.5833511
1.1372005,1.1772028,0.6018644,-1.413084,0.23350324,2.0657935,2.6951163,9.3531685,1.2209467,0,1683969643.5885136
1.1372005,1.1772028,0.6018644,-1.413084,0.23350324,2.0657935,2.8707764,9.282708,1.351332,0,1683969643.614295
1.1372005,1.1772028,0.6018644,-1.25319,0.49754974,1.787239,2.8707764,9.282708,1.351332,0,1683969643.6297631
1.1791542,1.2198882,0.7153466,-1.25319,0.49754974,1.787239,2.8707764,9.282708,1.351332,0,1683969643.6400917
1.1791542,1.2198882,0.7153466,-1.0937542,0.75884736,1.428203,2.8707764,9.282708,1.351332,0,1683969643.6555724
1.1791542,1.2198882,0.7153466,-1.0937542,0.75884736,1.428203,3.022448,9.215214,1.4767349,0,1683969643.660729
1.2364136,1.2373892,0.69674796,-1.0937542,0.75884736,1.428203,3.022448,9.215214,1.4767349,0,1683969643.6813593
1.2809284,1.2659885,0.67949086,-1.0937542,0.75884736,1.428203,3.022448,9.215214,1.4767349,0,1683969643.6968184
1.2809284,1.2659885,0.67949086,-1.019076,0.79443026,1.2502885,3.022448,9.215214,1.4767349,0,1683969643.701981
1.2809284,1.2659885,0.67949086,-1.019076,0.79443026,1.2502885,3.087701,9.183646,1.5371594,0,1683969643.7071455
1.3625185,1.3211137,0.7233959,-1.019076,0.79443026,1.2502885,3.087701,9.183646,1.5371594,0,1683969643.7432148
1.3625185,1.3211137,0.7233959,-0.677755,0.74281216,0.5876524,3.087701,9.183646,1.5371594,0,1683969643.7483385
1.3625185,1.3211137,0.7233959,-0.677755,0.74281216,0.5876524,3.2667592,9.083126,1.7496367,0,1683969643.7535322
1.3625185,1.3211137,0.7233959,-0.677755,0.74281216,0.5876524,0.92257375,9.744877,0.64989877,0,1683969643.763831
1.3625185,1.3211137,0.7233959,1.851838,1.6606371,-2.6316075,0.92257375,9.744877,0.64989877,0,1683969643.7741094
0.2277572,0.6887597,0.21440275,1.851838,1.6606371,-2.6316075,0.92257375,9.744877,0.64989877,0,1683969643.7792106
0.2277572,0.6887597,0.21440275,1.851838,1.6606371,-2.6316075,0.6857264,9.77312,0.5020104,0,1683969643.7998335
0.2277572,0.6887597,0.21440275,2.0073032,1.777007,-2.6946793,0.6857264,9.77312,0.5020104,0,1683969643.8049998
0.2277572,0.6887597,0.21440275,2.1375701,1.7912096,-2.7684412,0.6857264,9.77312,0.5020104,0,1683969643.8255446
0.18946227,0.6679658,0.12561709,2.1375701,1.7912096,-2.7684412,0.6857264,9.77312,0.5020104,0,1683969643.8306665
0.18946227,0.6679658,0.12561709,2.1375701,1.7912096,-2.7684412,0.44498718,9.794104,0.33712357,0,1683969643.8358283
0.11146992,0.6039377,0.012988563,2.1375701,1.7912096,-2.7684412,0.44498718,9.794104,0.33712357,0,1683969643.8563318
0.11146992,0.6039377,0.012988563,2.2762365,1.6826283,-2.8561006,0.44498718,9.794104,0.33712357,0,1683969643.8614554
0.11146992,0.6039377,0.012988563,2.2762365,1.6826283,-2.8561006,0.1995304,9.806764,0.15391919,0,1683969643.871686
0.03506302,0.54820275,-0.067199044,2.2762365,1.6826283,-2.8561006,0.1995304,9.806764,0.15391919,0,1683969643.8973367
0.03506302,0.54820275,-0.067199044,2.2762365,1.6826283,-2.8561006,-0.17620058,9.807251,-0.1513201,0,1683969643.9024909
0.03506302,0.54820275,-0.067199044,2.3261747,1.536937,-2.8637362,-0.17620058,9.807251,-0.1513201,0,1683969643.9076426
0.03506302,0.54820275,-0.067199044,2.3261747,1.536937,-2.8637362,-0.4256741,9.793945,-0.36543053,0,1683969643.9437408
-0.046710044,0.5130787,-0.09079798,2.3261747,1.536937,-2.8637362,-0.4256741,9.793945,-0.36543053,0,1683969643.9489024
-0.046710044,0.5130787,-0.09079798,2.2982278,1.4043792,-2.8034134,-0.4256741,9.793945,-0.36543053,0,1683969643.9540792
-0.046710044,0.5130787,-0.09079798,2.2982278,1.4043792,-2.8034134,-0.6695106,9.77005,-0.5779435,0,1683969643.9591658
-0.046710044,0.5130787,-0.09079798,2.1989622,1.4372132,-2.680935,-0.6695106,9.77005,-0.5779435,0,1683969643.9745076
-0.12561709,0.4871626,-0.10427438,2.1989622,1.4372132,-2.680935,-0.6695106,9.77005,-0.5779435,0,1683969643.9899778
-0.12561709,0.4871626,-0.10427438,2.1294763,1.491122,-2.5949554,-0.6695106,9.77005,-0.5779435,0,1683969644.0054586
-0.1425693,0.49813882,-0.12567806,2.1294763,1.491122,-2.5949554,-0.6695106,9.77005,-0.5779435,0,1683969644.0208993
-0.1425693,0.49813882,-0.12567806,2.1294763,1.491122,-2.5949554,-0.9016065,9.736778,-0.7863786,0,1683969644.0260544
-0.1425693,0.49813882,-0.12567806,2.1294763,1.491122,-2.5949554,-3.6379738,8.25571,-3.8528605,0,1683969644.041495
-1.1352491,0.5886929,-1.2250715,2.1294763,1.491122,-2.5949554,-3.6379738,8.25571,-3.8528605,0,1683969644.0517912
-1.1352491,0.5886929,-1.2250715,1.5532776,-0.4914411,-1.4127786,-3.6379738,8.25571,-3.8528605,0,1683969644.0621305
-1.1352491,0.5886929,-1.2250715,1.2663237,-0.5308419,-1.2189816,-3.6379738,8.25571,-3.8528605,0,1683969644.082655
-1.2049484,0.5676551,-1.2375113,1.2663237,-0.5308419,-1.2189816,-3.6379738,8.25571,-3.8528605,0,1683969644.087821
-1.2049484,0.5676551,-1.2375113,1.2663237,-0.5308419,-1.2189816,-3.7685564,8.145821,-3.9597557,0,1683969644.0929708
-1.3076372,0.52173775,-1.2656226,1.2663237,-0.5308419,-1.2189816,-3.7685564,8.145821,-3.9597557,0,1683969644.1134439
-1.3076372,0.52173775,-1.2656226,0.8741482,-0.5119051,-0.9077458,-3.7685564,8.145821,-3.9597557,0,1683969644.1186018
-1.3076372,0.52173775,-1.2656226,0.8741482,-0.5119051,-0.9077458,-3.9371989,8.008667,-4.0738015,0,1683969644.1289093
-1.3655065,0.48179638,-1.288124,0.8741482,-0.5119051,-0.9077458,-3.9371989,8.008667,-4.0738015,0,1683969644.1546688
-1.3655065,0.48179638,-1.288124,0.538325,-0.52549684,-0.5766568,-3.9371989,8.008667,-4.0738015,0,1683969644.1598282
-1.3655065,0.48179638,-1.288124,0.538325,-0.52549684,-0.5766568,-4.0242844,7.941815,-4.119326,0,1683969644.1649857
-1.3655065,0.48179638,-1.288124,0.538325,-0.52549684,-0.5766568,-4.0874195,7.8995485,-4.138386,0,1683969644.1907544
-1.3830684,0.45228252,-1.2828188,0.538325,-0.52549684,-0.5766568,-4.0874195,7.8995485,-4.138386,0,1683969644.2010698
-1.3830684,0.45228252,-1.2828188,0.093767814,-0.5884159,-0.09697486,-4.0874195,7.8995485,-4.138386,0,1683969644.2062376
-1.3830684,0.45228252,-1.2828188,-0.2780964,-0.6227771,0.30741793,-4.0874195,7.8995485,-4.138386,0,1683969644.2113595
-1.3456882,0.43844023,-1.2534878,-0.2780964,-0.6227771,0.30741793,-4.0874195,7.8995485,-4.138386,0,1683969644.226832
-1.3456882,0.43844023,-1.2534878,-0.2780964,-0.6227771,0.30741793,-4.1241994,7.885011,-4.1296124,0,1683969644.2319865
-1.2934291,0.43691576,-1.1998872,-0.2780964,-0.6227771,0.30741793,-4.1241994,7.885011,-4.1296124,0,1683969644.2474444
-1.2934291,0.43691576,-1.1998872,-0.2780964,-0.6227771,0.30741793,-4.133406,7.899431,-4.092678,0,1683969644.252596
-1.2934291,0.43691576,-1.1998872,-0.5644395,-0.6398814,0.59498274,-4.133406,7.899431,-4.092678,0,1683969644.2577531
-1.2934291,0.43691576,-1.1998872,-1.0114402,-0.6427829,1.0230466,-4.133406,7.899431,-4.092678,0,1683969644.293758
-1.1820812,0.4463675,-1.0869538,-1.0114402,-0.6427829,1.0230466,-4.133406,7.899431,-4.092678,0,1683969644.3040266
-1.1820812,0.4463675,-1.0869538,-1.0114402,-0.6427829,1.0230466,-4.1156917,7.9418945,-4.0278454,0,1683969644.3091948
1.5080148,1.1306758,1.0448171,-1.0114402,-0.6427829,1.0230466,-4.1156917,7.9418945,-4.0278454,0,1683969644.3297422
1.5080148,1.1306758,1.0448171,-1.0114402,-0.6427829,1.0230466,3.6503227,8.869742,2.0588667,0,1683969644.3349013
1.5080148,1.1306758,1.0448171,-0.93462384,0.14446963,1.5992452,3.6503227,8.869742,2.0588667,0,1683969644.340072
1.5080148,1.1306758,1.0448171,-0.9410379,0.77747875,1.1643091,3.6503227,8.869742,2.0588667,0,1683969644.3656876
1.4922822,1.1232363,0.8854175,-0.9410379,0.77747875,1.1643091,3.6503227,8.869742,2.0588667,0,1683969644.3759854
1.4922822,1.1232363,0.8854175,-0.9410379,0.77747875,1.1643091,3.7728589,8.79586,2.1527905,0,1683969644.386206
1.5019169,1.1467743,0.8394393,-0.9410379,0.77747875,1.1643091,3.7728589,8.79586,2.1527905,0,1683969644.4016216
1.5019169,1.1467743,0.8394393,-0.9410379,0.77747875,1.1643091,3.8573534,8.732101,2.2599466,0,1683969644.4067833
1.5019169,1.1467743,0.8394393,-0.87766063,0.9250027,0.7881689,3.8573534,8.732101,2.2599466,0,1683969644.4170847
1.5019169,1.1467743,0.8394393,-0.87766063,0.9250027,0.7881689,3.907381,8.681837,2.3652058,0,1683969644.447948
1.5019169,1.1467743,0.8394393,-0.6730208,0.86467975,0.3565926,3.907381,8.681837,2.3652058,0,1683969644.4531116
1.4860623,1.144396,0.86889213,-0.6730208,0.86467975,0.3565926,3.907381,8.681837,2.3652058,0,1683969644.4582736
1.4113629,1.1270779,0.93048114,-0.6730208,0.86467975,0.3565926,3.907381,8.681837,2.3652058,0,1683969644.4633958
1.4113629,1.1270779,0.93048114,-0.6730208,0.86467975,0.3565926,3.923052,8.650853,2.4512296,0,1683969644.4787507
1.4113629,1.1270779,0.93048114,-0.2640465,0.6543894,-0.22449298,3.923052,8.650853,2.4512296,0,1683969644.483867
1.3141621,1.0825632,0.9958508,-0.2640465,0.6543894,-0.22449298,3.923052,8.650853,2.4512296,0,1683969644.4992018
1.3141621,1.0825632,0.9958508,-0.2640465,0.6543894,-0.22449298,3.8844006,8.648281,2.5208745,0,1683969644.5094938
1.3141621,1.0825632,0.9958508,0.16539176,0.47571132,-0.62980205,3.8844006,8.648281,2.5208745,0,1683969644.5146494
1.3141621,1.0825632,0.9958508,0.16539176,0.47571132,-0.62980205,3.8240004,8.6757555,2.5188055,0,1683969644.5506575
1.179642,1.027682,1.0359142,0.16539176,0.47571132,-0.62980205,3.8240004,8.6757555,2.5188055,0,1683969644.5559027
1.179642,1.027682,1.0359142,0.73624533,0.3791946,-1.0201449,3.8240004,8.6757555,2.5188055,0,1683969644.566154
1.179642,1.027682,1.0359142,0.73624533,0.3791946,-1.0201449,3.7404945,8.723194,2.480062,0,1683969644.5764112
1.0687819,0.9860331,0.983594,0.73624533,0.3791946,-1.0201449,3.7404945,8.723194,2.480062,0,1683969644.5815237
1.0687819,0.9860331,0.983594,0.73624533,0.3791946,-1.0201449,-0.37677062,9.775895,-0.7252998,0,1683969644.5866687
-0.051588375,0.40185273,-0.1791568,0.73624533,0.3791946,-1.0201449,-0.37677062,9.775895,-0.7252998,0,1683969644.596973
-0.051588375,0.40185273,-0.1791568,2.790127,0.9036224,-3.1178563,-0.37677062,9.775895,-0.7252998,0,1683969644.60213
-0.051588375,0.40185273,-0.1791568,2.790127,0.9036224,-3.1178563,-0.65197027,9.737079,-1.0001792,0,1683969644.6072118
-0.051588375,0.40185273,-0.1791568,2.790127,0.9036224,-3.1178563,-0.9180874,9.686433,-1.2514943,0,1683969644.6381202
-0.11238461,0.45716083,-0.11043327,2.790127,0.9036224,-3.1178563,-0.9180874,9.686433,-1.2514943,0,1683969644.643205
-0.11238461,0.45716083,-0.11043327,2.5405886,1.3671165,-3.0605876,-0.9180874,9.686433,-1.2514943,0,1683969644.6535048
-0.1817789,0.47588143,-0.21690291,2.5405886,1.3671165,-3.0605876,-0.9180874,9.686433,-1.2514943,0,1683969644.674051
-0.1817789,0.47588143,-0.21690291,2.4523184,1.7460055,-3.0225613,-0.9180874,9.686433,-1.2514943,0,1683969644.6791844
-0.1817789,0.47588143,-0.21690291,2.4523184,1.7460055,-3.0225613,-1.1734086,9.624804,-1.4907793,0,1683969644.6946316
-0.1817789,0.47588143,-0.21690291,2.4426973,1.8541287,-2.9669726,-1.1734086,9.624804,-1.4907793,0,1683969644.7101068
-0.23830658,0.46435636,-0.3983159,2.4426973,1.8541287,-2.9669726,-1.1734086,9.624804,-1.4907793,0,1683969644.7203803
-0.23830658,0.46435636,-0.3983159,2.4426973,1.8541287,-2.9669726,-1.4161681,9.551222,-1.7334288,0,1683969644.7307045
-0.30074924,0.4735642,-0.5783264,2.493552,1.6633861,-2.9023736,-1.8706843,9.366115,-2.2388833,0,1683969644.7411668
-0.34581286,0.4776498,-0.72876203,2.5541804,1.2405146,-2.8292224,-1.8706843,9.366115,-2.2388833,0,1683969644.7463822
-0.34581286,0.4776498,-0.72876203,2.506533,0.656222,-2.716976,-1.8706843,9.366115,-2.2388833,0,1683969644.751529
-0.34581286,0.4776498,-0.72876203,2.506533,0.656222,-2.716976,-2.1985419,9.196177,-2.6139722,0,1683969644.7618487
-0.4173414,0.500578,-0.7650446,2.506533,0.656222,-2.716976,-2.1985419,9.196177,-2.6139722,0,1683969644.7669947
-0.5465563,0.53783625,-0.68064946,2.506533,0.656222,-2.716976,-2.1985419,9.196177,-2.6139722,0,1683969644.7876332
-0.5465563,0.53783625,-0.68064946,2.323884,0.50671273,-2.6062565,-2.1985419,9.196177,-2.6139722,0,1683969644.7979436
-0.65278196,0.49027252,-0.53149444,2.323884,0.50671273,-2.6062565,-2.1985419,9.196177,-2.6139722,0,1683969644.8135166
-0.65278196,0.49027252,-0.53149444,2.323884,0.50671273,-2.6062565,-3.7824795,8.5164585,-3.065765,0,1683969644.8186762
-0.65278196,0.49027252,-0.53149444,-1.5140295,-1.5836681,1.5884024,-3.7824795,8.5164585,-3.065765,0,1683969644.8238344
-0.65278196,0.49027252,-0.53149444,-1.5140295,-1.5836681,1.5884024,-3.6726158,8.649028,-2.8182137,0,1683969644.8547504
-0.60655975,0.47136897,-0.44648945,-1.5140295,-1.5836681,1.5884024,-3.6726158,8.649028,-2.8182137,0,1683969644.8650663
-0.60655975,0.47136897,-0.44648945,-1.5726726,-1.5995506,1.724778,-3.6726158,8.649028,-2.8182137,0,1683969644.8702269
-0.5570447,0.46581987,-0.41228014,-1.5726726,-1.5995506,1.724778,-3.6726158,8.649028,-2.8182137,0,1683969644.8856359
-0.5570447,0.46581987,-0.41228014,-1.6511687,-1.5676329,1.8668042,-3.6726158,8.649028,-2.8182137,0,1683969644.8908107
-0.5570447,0.46581987,-0.41228014,-1.6511687,-1.5676329,1.8668042,-3.5811732,8.741221,-2.6462073,0,1683969644.906291
-0.50448066,0.46411243,-0.39112037,-1.6511687,-1.5676329,1.8668042,-3.5811732,8.741221,-2.6462073,0,1683969644.9268692
-0.50448066,0.46411243,-0.39112037,-1.6511687,-1.5676329,1.8668042,-3.4738135,8.835738,-2.4695084,0,1683969644.9320264
-0.50448066,0.46411243,-0.39112037,-1.7702875,-1.512655,2.0245602,-3.4738135,8.835738,-2.4695084,0,1683969644.9371903
-0.50448066,0.46411243,-0.39112037,-1.8645134,-1.4944818,2.1445951,-3.4738135,8.835738,-2.4695084,0,1683969644.947492
-0.50448066,0.46411243,-0.39112037,-1.8645134,-1.4944818,2.1445951,-3.3508005,8.932038,-2.2862527,0,1683969644.952648
-0.47008842,0.4677102,-0.3647774,-1.8645134,-1.4944818,2.1445951,-3.3508005,8.932038,-2.2862527,0,1683969644.9578216
-0.47008842,0.4677102,-0.3647774,-1.9746219,-1.5144876,2.2941043,-3.3508005,8.932038,-2.2862527,0,1683969644.9887319
-0.47008842,0.4677102,-0.3647774,-1.9746219,-1.5144876,2.2941043,-3.1388562,9.076777,-1.9989555,0,1683969645.0041735
-0.4136217,0.4549046,-0.34166628,-1.9746219,-1.5144876,2.2941043,-3.1388562,9.076777,-1.9989555,0,1683969645.0093346
-0.4136217,0.4549046,-0.34166628,-2.075873,-1.5418239,2.4058928,-3.1388562,9.076777,-1.9989555,0,1683969645.0299587
-0.4136217,0.4549046,-0.34166628,-2.075873,-1.5418239,2.4058928,-3.0608146,9.124608,-1.8997535,0,1683969645.035131
-0.37075335,0.45167267,-0.3234945,-2.075873,-1.5418239,2.4058928,-3.0608146,9.124608,-1.8997535,0,1683969645.0402536
-0.3017859,0.430269,-0.2804432,-2.075873,-1.5418239,2.4058928,-3.0608146,9.124608,-1.8997535,0,1683969645.0608659
-0.3017859,0.430269,-0.2804432,-2.075873,-1.5418239,2.4058928,-2.805537,9.264922,-1.5894364,0,1683969645.0660217
-0.3017859,0.430269,-0.2804432,-0.37507126,0.6808093,-0.16539176,-2.805537,9.264922,-1.5894364,0,1683969645.0814848
-0.3017859,0.430269,-0.2804432,-0.37507126,0.6808093,-0.16539176,3.0257413,8.869165,2.901536,0,1683969645.0866406
1.2636713,1.1318344,1.0109736,-0.37507126,0.6808093,-0.16539176,3.0257413,8.869165,2.901536,0,1683969645.0918057
1.0997593,1.0675013,1.1167115,-0.37507126,0.6808093,-0.16539176,3.0257413,8.869165,2.901536,0,1683969645.1123643
1.0997593,1.0675013,1.1167115,-0.37507126,0.6808093,-0.16539176,2.99311,8.86371,2.9516156,0,1683969645.127829
1.0997593,1.0675013,1.1167115,-0.00870483,0.80481493,-0.55924714,2.99311,8.86371,2.9516156,0,1683969645.138142
1.0997593,1.0675013,1.1167115,-0.00870483,0.80481493,-0.55924714,2.9326642,8.874246,2.9804938,0,1683969645.1535594
0.9840818,1.0076808,1.1225046,-0.00870483,0.80481493,-0.55924714,2.9326642,8.874246,2.9804938,0,1683969645.1690319
0.9840818,1.0076808,1.1225046,0.35277468,0.9086621,-0.7846564,2.9326642,8.874246,2.9804938,0,1683969645.1793146
0.86480653,0.9709103,1.0826851,0.35277468,0.9086621,-0.7846564,2.9326642,8.874246,2.9804938,0,1683969645.199927
0.86480653,0.9709103,1.0826851,0.35277468,0.9086621,-0.7846564,2.8510551,8.900048,2.9827409,0,1683969645.205087
0.86480653,0.9709103,1.0826851,1.0968086,1.045954,-1.0774136,2.8510551,8.900048,2.9827409,0,1683969645.230807
0.763947,0.9470675,1.0051806,1.0968086,1.045954,-1.0774136,2.8510551,8.900048,2.9827409,0,1683969645.235968
0.763947,0.9470675,1.0051806,1.0968086,1.045954,-1.0774136,2.7530177,8.939968,2.9553323,0,1683969645.24624
0.763947,0.9470675,1.0051806,1.3952162,1.0797043,-1.1771374,2.7530177,8.939968,2.9553323,0,1683969645.2513556
0.763947,0.9470675,1.0051806,1.3952162,1.0797043,-1.1771374,2.6431363,8.991278,2.899464,0,1683969645.2565258
0.7033947,0.9242003,0.9022478,1.3952162,1.0797043,-1.1771374,2.6431363,8.991278,2.899464,0,1683969645.2771015
0.7033947,0.9242003,0.9022478,1.3952162,1.0797043,-1.1771374,2.461962,9.083358,2.769014,0,1683969645.3028314
0.65412354,0.9143826,0.7818749,1.3952162,1.0797043,-1.1771374,2.461962,9.083358,2.769014,0,1683969645.3080041
0.65412354,0.9143826,0.7818749,1.6824756,1.1270463,-1.2819008,2.461962,9.083358,2.769014,0,1683969645.3183217
0.63174415,0.9128582,0.65729445,1.6824756,1.1270463,-1.2819008,2.461962,9.083358,2.769014,0,1683969645.3234627
0.63174415,0.9128582,0.65729445,1.8729129,1.1992812,-1.3811663,2.461962,9.083358,2.769014,0,1683969645.344077
0.63174415,0.9128582,0.65729445,1.8729129,1.1992812,-1.3811663,2.3323212,9.150648,2.6574438,0,1683969645.349231
0.63174415,0.9128582,0.65729445,3.241251,-0.37400225,-3.6178493,2.3323212,9.150648,2.6574438,0,1683969645.3646731
0.63174415,0.9128582,0.65729445,3.241251,-0.37400225,-3.6178493,-3.8279557,8.236872,-3.7063203,0,1683969645.3749847
-0.51246893,0.41539007,-0.8191332,3.241251,-0.37400225,-3.6178493,-3.8279557,8.236872,-3.7063203,0,1683969645.3904774
-0.51246893,0.41539007,-0.8191332,3.241251,-0.37400225,-3.6178493,-4.112378,7.98659,-3.9419339,0,1683969645.4007847
-0.51246893,0.41539007,-0.8191332,3.0952542,-0.550695,-3.6141841,-4.112378,7.98659,-3.9419339,0,1683969645.4110992
-0.61223084,0.40240154,-0.85163504,3.0952542,-0.550695,-3.6141841,-4.112378,7.98659,-3.9419339,0,1683969645.4265735
-0.7798016,0.37032646,-0.8951132,3.0952542,-0.550695,-3.6141841,-4.112378,7.98659,-3.9419339,0,1683969645.4317305
-0.7798016,0.37032646,-0.8951132,2.784782,-0.600786,-3.5327864,-4.112378,7.98659,-3.9419339,0,1683969645.4419985
-0.7798016,0.37032646,-0.8951132,2.784782,-0.600786,-3.5327864,-4.5343065,7.593752,-4.2439537,0,1683969645.4626398
-0.7798016,0.37032646,-0.8951132,2.4533875,-0.49464813,-3.3851097,-4.5343065,7.593752,-4.2439537,0,1683969645.4832268
-0.7798016,0.37032646,-0.8951132,2.4533875,-0.49464813,-3.3851097,-4.8001337,7.3311415,-4.41012,0,1683969645.493538
-0.91816336,0.32825086,-0.9214562,2.4533875,-0.49464813,-3.3851097,-4.8001337,7.3311415,-4.41012,0,1683969645.4987051
-1.0625011,0.29001692,-0.94200623,2.4533875,-0.49464813,-3.3851097,-4.8001337,7.3311415,-4.41012,0,1683969645.5090103
-1.0625011,0.29001692,-0.94200623,2.4533875,-0.49464813,-3.3851097,-5.0418177,7.07866,-4.550688,0,1683969645.524442
-1.0625011,0.29001692,-0.94200623,1.9581286,-0.18936823,-3.1137328,-5.0418177,7.07866,-4.550688,0,1683969645.5347636
-1.2217176,0.25214887,-0.983533,1.9581286,-0.18936823,-3.1137328,-5.0418177,7.07866,-4.550688,0,1683969645.5502286
-1.2217176,0.25214887,-0.983533,1.6487253,0.05207626,-2.9068022,-5.0418177,7.07866,-4.550688,0,1683969645.5553617
-1.2217176,0.25214887,-0.983533,1.6487253,0.05207626,-2.9068022,-5.2524967,6.84283,-4.6715207,0,1683969645.570824
-1.2217176,0.25214887,-0.983533,1.6487253,0.05207626,-2.9068022,-5.4253955,6.6316414,-4.777297,0,1683969645.5862913
-1.2217176,0.25214887,-0.983533,1.1383474,0.38148534,-2.4489589,-5.4253955,6.6316414,-4.777297,0,1683969645.5965645
-1.4056308,0.18970619,-1.1054914,1.1383474,0.38148534,-2.4489589,-5.4253955,6.6316414,-4.777297,0,1683969645.6068625
-1.5246011,0.15305771,-1.2339134,1.1383474,0.38148534,-2.4489589,-5.4253955,6.6316414,-4.777297,0,1683969645.622323
-1.5246011,0.15305771,-1.2339134,0.7779369,0.43203443,-1.9961549,-5.4253955,6.6316414,-4.777297,0,1683969645.6377819
-1.5246011,0.15305771,-1.2339134,-1.3251194,-1.3104587,2.6030495,-5.4253955,6.6316414,-4.777297,0,1683969645.6480932
-1.5246011,0.15305771,-1.2339134,-1.3251194,-1.3104587,2.6030495,-5.371468,7.1362143,-4.0568295,0,1683969645.6584089
-0.8499886,0.31105474,-0.6692464,-1.3251194,-1.3104587,2.6030495,-5.371468,7.1362143,-4.0568295,0,1683969645.6635704
-0.7712035,0.324958,-0.63735425,-1.3251194,-1.3104587,2.6030495,-5.371468,7.1362143,-4.0568295,0,1683969645.6996052
-0.7712035,0.324958,-0.63735425,-1.3251194,-1.3104587,2.6030495,-5.2547364,7.301735,-3.9126124,0,1683969645.7047644
-0.7712035,0.324958,-0.63735425,-1.4230106,-1.3203852,2.7598891,-5.2547364,7.301735,-3.9126124,0,1683969645.7099273
-0.7122977,0.32422623,-0.61717016,-1.4230106,-1.3203852,2.7598891,-5.2547364,7.301735,-3.9126124,0,1683969645.715088
-0.7122977,0.32422623,-0.61717016,-1.4230106,-1.3203852,2.7598891,-5.122031,7.4733963,-3.7615554,0,1683969645.7357023
-0.7122977,0.32422623,-0.61717016,-1.5430456,-1.3293955,2.9057333,-5.122031,7.4733963,-3.7615554,0,1683969645.7460172
-0.7122977,0.32422623,-0.61717016,-1.6801848,-1.3322971,3.046385,-5.122031,7.4733963,-3.7615554,0,1683969645.7511797
-0.6641851,0.3269093,-0.5907052,-1.6801848,-1.3322971,3.046385,-5.122031,7.4733963,-3.7615554,0,1683969645.756347
-0.6641851,0.3269093,-0.5907052,-1.6801848,-1.3322971,3.046385,-4.9728613,7.650847,-3.6015756,0,1683969645.7821338
-0.6641851,0.3269093,-0.5907052,-1.8727602,-1.2915218,3.2000177,-4.9728613,7.650847,-3.6015756,0,1683969645.7975068
-0.58753425,0.33117786,-0.5350922,-1.8727602,-1.2915218,3.2000177,-4.9728613,7.650847,-3.6015756,0,1683969645.802655
-0.58753425,0.33117786,-0.5350922,-1.8727602,-1.2915218,3.2000177,-4.8069177,7.832824,-3.4316995,0,1683969645.8129795
-0.58753425,0.33117786,-0.5350922,-2.0317378,-1.2567025,3.2989779,-4.8069177,7.832824,-3.4316995,0,1683969645.828414
-0.53167737,0.32904357,-0.50039506,-2.0317378,-1.2567025,3.2989779,-4.8069177,7.832824,-3.4316995,0,1683969645.8387282
-0.53167737,0.32904357,-0.50039506,-2.0317378,-1.2567025,3.2989779,-4.6244674,8.017135,-3.2520711,0,1683969645.843878
-0.53167737,0.32904357,-0.50039506,-2.2266037,-1.2136365,3.4246633,-4.6244674,8.017135,-3.2520711,0,1683969645.874736
-0.4463675,0.31800637,-0.4238052,-2.2266037,-1.2136365,3.4246633,-4.6244674,8.017135,-3.2520711,0,1683969645.8799
-0.4463675,0.31800637,-0.4238052,-2.2266037,-1.2136365,3.4246633,-4.320269,8.294409,-2.9621236,0,1683969645.885018
-0.4463675,0.31800637,-0.4238052,-2.2266037,-1.2136365,3.4246633,-4.0971785,8.47704,-2.7548227,0,1683969645.9056
-0.4463675,0.31800637,-0.4238052,-2.3663392,-1.1540772,3.5370624,-4.0971785,8.47704,-2.7548227,0,1683969645.9159112
-0.4463675,0.31800637,-0.4238052,-3.4232888,-0.9630291,3.9484801,-4.0971785,8.47704,-2.7548227,0,1683969645.9364996
0.9726787,0.72729856,0.62778056,-3.4232888,-0.9630291,3.9484801,-4.0971785,8.47704,-2.7548227,0,1683969645.9468086
0.9726787,0.72729856,0.62778056,-3.4232888,-0.9630291,3.9484801,1.5586501,9.507011,1.8502661,0,1683969645.9519634
1.1175652,0.82956064,0.79736364,-3.4232888,-0.9630291,3.9484801,1.5586501,9.507011,1.8502661,0,1683969645.9725802
1.1175652,0.82956064,0.79736364,-3.4232888,-0.9630291,3.9484801,1.926658,9.379171,2.1342993,0,1683969645.9777296
1.1175652,0.82956064,0.79736364,-2.9943087,-0.93584555,3.4530685,1.926658,9.379171,2.1342993,0,1683969645.9828892
1.2008628,0.92657846,0.91383386,-2.9943087,-0.93584555,3.4530685,1.926658,9.379171,2.1342993,0,1683969645.9983668
1.2008628,0.92657846,0.91383386,-2.6804767,-0.7463246,2.973234,1.926658,9.379171,2.1342993,0,1683969646.008676
1.2008628,0.92657846,0.91383386,-2.6804767,-0.7463246,2.973234,2.2583323,9.244276,2.383148,0,1683969646.0189931
1.2008628,0.92657846,0.91383386,-2.3890939,-0.4512767,2.4819455,2.2583323,9.244276,2.383148,0,1683969646.0395935
1.2008628,0.92657846,0.91383386,-2.3890939,-0.4512767,2.4819455,2.5430353,9.11019,2.6025987,0,1683969646.044749
1.1774467,0.96225125,1.0152422,-2.3890939,-0.4512767,2.4819455,2.5430353,9.11019,2.6025987,0,1683969646.060198
1.1774467,0.96225125,1.0152422,-2.2009475,-0.18463401,2.2035437,2.5430353,9.11019,2.6025987,0,1683969646.080796
1.1774467,0.96225125,1.0152422,-2.2009475,-0.18463401,2.2035437,2.7765858,8.982676,2.7996833,0,1683969646.091136
1.0601839,0.88992995,1.0370728,-2.2009475,-0.18463401,2.2035437,2.7765858,8.982676,2.7996833,0,1683969646.0962956
1.0601839,0.88992995,1.0370728,-1.9695823,0.010079277,1.9318613,2.7765858,8.982676,2.7996833,0,1683969646.1014538
1.1273829,0.8749901,0.8951132,-1.9695823,0.010079277,1.9318613,2.7765858,8.982676,2.7996833,0,1683969646.1117735
1.1273829,0.8749901,0.8951132,-1.9695823,0.010079277,1.9318613,3.054796,8.803188,3.0672793,0,1683969646.122092
1.1273829,0.8749901,0.8951132,-1.7067575,-0.18707748,1.5329664,3.054796,8.803188,3.0672793,0,1683969646.1529922
1.1273829,0.8749901,0.8951132,-1.7067575,-0.18707748,1.5329664,3.2128246,8.6903105,3.2237184,0,1683969646.1581554
1.3342851,0.9860941,0.9444453,-1.7067575,-0.18707748,1.5329664,3.2128246,8.6903105,3.2237184,0,1683969646.1632795
1.3342851,0.9860941,0.9444453,-1.2605205,-0.3539964,1.00075,3.2128246,8.6903105,3.2237184,0,1683969646.1839044
1.4511213,1.0131688,1.0942101,-1.2605205,-0.3539964,1.00075,3.2128246,8.6903105,3.2237184,0,1683969646.1890693
1.4511213,1.0131688,1.0942101,-1.2605205,-0.3539964,1.00075,3.402798,8.546513,3.407965,0,1683969646.194226
1.4511213,1.0131688,1.0942101,3.5141551,0.8425359,-3.5318701,3.402798,8.546513,3.407965,0,1683969646.2199588
0.10689648,0.5676551,0.14720371,3.5141551,0.8425359,-3.5318701,3.402798,8.546513,3.407965,0,1683969646.2251127
0.10689648,0.5676551,0.14720371,3.5141551,0.8425359,-3.5318701,-0.14453937,9.774598,0.82003635,0,1683969646.230272
0.10689648,0.5676551,0.14720371,3.5141551,0.8425359,-3.5318701,-0.45800686,9.786094,0.50864697,0,1683969646.2457352
0.05433244,0.5046026,0.029391957,3.5141551,0.8425359,-3.5318701,-0.45800686,9.786094,0.50864697,0,1683969646.2508962
0.05433244,0.5046026,0.029391957,3.5720346,0.8527679,-3.562108,-0.45800686,9.786094,0.50864697,0,1683969646.2560546
-0.02262327,0.4422209,-0.15293576,3.5720346,0.8527679,-3.562108,-0.45800686,9.786094,0.50864697,0,1683969646.2714906
-0.02262327,0.4422209,-0.15293576,3.5720346,0.8527679,-3.562108,-0.9308582,9.765718,0.018715184,0,1683969646.2766495
-0.02262327,0.4422209,-0.15293576,3.5822666,0.7276932,-3.5321755,-0.9308582,9.765718,0.018715184,0,1683969646.2869773
-0.02262327,0.4422209,-0.15293576,3.5822666,0.7276932,-3.5321755,-1.0871801,9.748444,-0.1483503,0,1683969646.3178911
-0.033599522,0.4367328,-0.1806203,3.5822666,0.7276932,-3.5321755,-1.0871801,9.748444,-0.1483503,0,1683969646.3230495
-0.033599522,0.4367328,-0.1806203,3.5666895,0.6453791,-3.5086572,-1.0871801,9.748444,-0.1483503,0,1683969646.3333626
-0.07500438,0.4170365,-0.24178241,3.5666895,0.6453791,-3.5086572,-1.0871801,9.748444,-0.1483503,0,1683969646.3488407
-0.07500438,0.4170365,-0.24178241,3.5666895,0.6453791,-3.5086572,-1.3950473,9.698375,-0.48113465,0,1683969646.3540018
-0.07500438,0.4170365,-0.24178241,3.5036175,0.45356745,-3.4556646,-1.3950473,9.698375,-0.48113465,0,1683969646.3694785
-0.11543357,0.40526757,-0.25556368,3.5036175,0.45356745,-3.4556646,-1.3950473,9.698375,-0.48113465,0,1683969646.3798048
-0.11543357,0.40526757,-0.25556368,3.3631186,0.27351493,-3.3837354,-1.3950473,9.698375,-0.48113465,0,1683969646.4003391
-0.11543357,0.40526757,-0.25556368,3.3631186,0.27351493,-3.3837354,-1.8438896,9.586898,-0.9631031,0,1683969646.410598
-0.1797666,0.4004502,-0.20751211,3.3631186,0.27351493,-3.3837354,-1.8438896,9.586898,-0.9631031,0,1683969646.4157555
-0.1797666,0.4004502,-0.20751211,3.3631186,0.27351493,-3.3837354,-2.1360319,9.490716,-1.2648475,0,1683969646.426059
-0.1797666,0.4004502,-0.20751211,3.1308372,0.269697,-3.2922583,-2.1360319,9.490716,-1.2648475,0,1683969646.446672
-0.1797666,0.4004502,-0.20751211,2.8687758,0.54534996,-3.208417,-2.1360319,9.490716,-1.2648475,0,1683969646.4672546
-0.23568448,0.44490403,-0.1885476,2.8687758,0.54534996,-3.208417,-2.1360319,9.490716,-1.2648475,0,1683969646.4724085
-0.23568448,0.44490403,-0.1885476,-2.3127358,-0.14614952,2.5273023,-2.1360319,9.490716,-1.2648475,0,1683969646.4878287
-0.89139354,0.37282664,-0.6928453,-2.3127358,-0.14614952,2.5273023,-2.1360319,9.490716,-1.2648475,0,1683969646.4981058
-0.89139354,0.37282664,-0.6928453,-2.3127358,-0.14614952,2.5273023,-4.355189,8.091678,-3.4341185,0,1683969646.5083559
-0.89139354,0.37282664,-0.6928453,-2.3127358,-0.14614952,2.5273023,-4.2685423,8.173119,-3.3490012,0,1683969646.5341198
-0.8323047,0.36593598,-0.6392446,-2.3127358,-0.14614952,2.5273023,-4.2685423,8.173119,-3.3490012,0,1683969646.5392046
-0.8323047,0.36593598,-0.6392446,-2.5735753,-0.09560041,2.7780623,-4.2685423,8.173119,-3.3490012,0,1683969646.5443594
-0.8323047,0.36593598,-0.6392446,-2.8689287,0.0,3.015078,-4.2685423,8.173119,-3.3490012,0,1683969646.5649285
-0.74888515,0.36788732,-0.57436275,-2.8689287,0.0,3.015078,-4.2685423,8.173119,-3.3490012,0,1683969646.5752263
-0.74888515,0.36788732,-0.57436275,-2.8689287,0.0,3.015078,-3.9723148,8.43098,-3.0619333,0,1683969646.5803716
-0.64491564,0.3828882,-0.5132617,-2.8689287,0.0,3.015078,-3.9723148,8.43098,-3.0619333,0,1683969646.5958278
-0.64491564,0.3828882,-0.5132617,-3.258966,0.14782938,3.2609513,-3.9723148,8.43098,-3.0619333,0,1683969646.6061358
-0.64491564,0.3828882,-0.5132617,-3.258966,0.14782938,3.2609513,-3.7435718,8.610794,-2.8418305,0,1683969646.6112258
-0.64491564,0.3828882,-0.5132617,-3.4735324,0.24220806,3.367853,-3.7435718,8.610794,-2.8418305,0,1683969646.631823
-0.5397876,0.39612067,-0.42313445,-3.4735324,0.24220806,3.367853,-3.7435718,8.610794,-2.8418305,0,1683969646.642123
-0.5397876,0.39612067,-0.42313445,-3.4735324,0.24220806,3.367853,-3.4910002,8.79272,-2.5955904,0,1683969646.647215
-0.5397876,0.39612067,-0.42313445,-3.4735324,0.24220806,3.367853,-3.2200463,8.970256,-2.3242016,0,1683969646.6678112
-0.5397876,0.39612067,-0.42313445,-3.8049269,0.3912592,3.4946074,-3.2200463,8.970256,-2.3242016,0,1683969646.6781194
-0.46496618,0.41465837,-0.32392135,-3.8049269,0.3912592,3.4946074,-3.2200463,8.970256,-2.3242016,0,1683969646.68836
-0.44911155,0.41819513,-0.18391317,-3.8049269,0.3912592,3.4946074,-3.2200463,8.970256,-2.3242016,0,1683969646.7038193
-0.44911155,0.41819513,-0.18391317,-4.1040983,0.5119051,3.5789068,-3.2200463,8.970256,-2.3242016,0,1683969646.7141316
-0.44911155,0.41819513,-0.18391317,-4.1040983,0.5119051,3.5789068,-2.788788,9.218032,-1.867271,0,1683969646.72439
-0.44911155,0.41819513,-0.18391317,-4.3263,0.6934848,3.6523633,-2.788788,9.218032,-1.867271,0,1683969646.7450004
-0.44911155,0.41819513,-0.18391317,-4.3263,0.6934848,3.6523633,-2.4899738,9.364796,-1.5286511,0,1683969646.7552726
0.6545504,0.32886064,0.90346736,-4.3263,0.6934848,3.6523633,-2.4899738,9.364796,-1.5286511,0,1683969646.7603846
0.6545504,0.32886064,0.90346736,-0.5681047,1.5891659,0.8196284,-2.4899738,9.364796,-1.5286511,0,1683969646.7655442
0.6545504,0.32886064,0.90346736,-0.5681047,1.5891659,0.8196284,2.8843808,5.2253838,7.78536,0,1683969646.7758555
0.53167737,0.4612464,1.7561389,-0.5681047,1.5891659,0.8196284,2.8843808,5.2253838,7.78536,0,1683969646.786124
0.53167737,0.4612464,1.7561389,-1.1247556,1.1241448,0.73823065,2.8843808,5.2253838,7.78536,0,1683969646.8014941
0.53167737,0.4612464,1.7561389,-1.0125091,2.1413882,0.68279463,2.8843808,5.2253838,7.78536,0,1683969646.8117976
0.53167737,0.4612464,1.7561389,-1.0125091,2.1413882,0.68279463,2.7923067,5.0726037,7.9188266,0,1683969646.8220956
0.5225305,0.4352693,2.0336552,-1.0125091,2.1413882,0.68279463,2.7923067,5.0726037,7.9188266,0,1683969646.8323507
0.5225305,0.4352693,2.0336552,-0.6898196,3.4289393,0.61376685,2.7923067,5.0726037,7.9188266,0,1683969646.858104
0.5225305,0.4352693,2.0336552,-0.6898196,3.4289393,0.61376685,2.6357005,4.9834604,8.028344,0,1683969646.8683558
0.45673394,0.36331388,1.5211253,-0.6898196,3.4289393,0.61376685,2.6357005,4.9834604,8.028344,0,1683969646.8786688
0.45673394,0.36331388,1.5211253,-0.75732017,3.228881,0.7716755,2.6357005,4.9834604,8.028344,0,1683969646.8941321
0.33343408,0.32739717,1.106467,-0.75732017,3.228881,0.7716755,2.6357005,4.9834604,8.028344,0,1683969646.8992548
0.33343408,0.32739717,1.106467,-0.75732017,3.228881,0.7716755,2.4169686,4.910764,8.141177,0,1683969646.9147012
0.33343408,0.32739717,1.106467,-0.95325524,2.775619,1.0887146,2.4169686,4.910764,8.141177,0,1683969646.9249682
0.23312336,0.41087765,1.1163456,-0.95325524,2.775619,1.0887146,2.4169686,4.910764,8.141177,0,1683969646.9352055
0.23312336,0.41087765,1.1163456,-0.95325524,2.775619,1.0887146,2.2170308,4.8307977,8.245258,0,1683969646.940363
0.23312336,0.41087765,1.1163456,-1.0454959,2.765998,1.3017539,2.2170308,4.8307977,8.245258,0,1683969646.9558215
0.23312336,0.41087765,1.1163456,-1.0454959,2.765998,1.3017539,2.0549674,4.7335153,8.343084,0,1683969646.9815278
0.32453114,0.5038709,1.308369,-1.0454959,2.765998,1.3017539,2.0549674,4.7335153,8.343084,0,1683969646.9866805
0.32453114,0.5038709,1.308369,-1.0100657,2.8139508,1.2712106,2.0549674,4.7335153,8.343084,0,1683969646.996997
0.34642264,0.5622279,1.3655065,-1.0100657,2.8139508,1.2712106,2.0549674,4.7335153,8.343084,0,1683969647.0021532
0.34642264,0.5622279,1.3655065,-1.0100657,2.8139508,1.2712106,1.8195297,4.576417,8.484211,0,1683969647.0072694
0.3322145,0.5871074,1.422949,-1.0100657,2.8139508,1.2712106,1.8195297,4.576417,8.484211,0,1683969647.0278833
0.3322145,0.5871074,1.422949,-1.0100657,2.8139508,1.2712106,0.16468552,4.9670663,8.457969,0,1683969647.0330393
0.3322145,0.5871074,1.422949,1.0942124,1.1195632,0.77763146,0.16468552,4.9670663,8.457969,0,1683969647.0381937
0.014513042,0.50789547,0.85187894,1.0942124,1.1195632,0.77763146,0.16468552,4.9670663,8.457969,0,1683969647.0433183
0.014513042,0.50789547,0.85187894,1.0942124,1.1195632,0.77763146,0.08328628,5.0911956,8.385041,0,1683969647.0484686
0.014513042,0.50789547,0.85187894,1.0942124,1.1195632,0.77763146,0.0355328,5.173442,8.334887,0,1683969647.074194
0.014513042,0.50789547,0.85187894,1.0364856,1.1351403,0.7883216,0.0355328,5.173442,8.334887,0,1683969647.0896306
0.07451654,0.5538128,0.7905949,1.0364856,1.1351403,0.7883216,0.0355328,5.173442,8.334887,0,1683969647.1050825
0.11488476,0.6050353,0.74571425,1.0364856,1.1351403,0.7883216,0.0355328,5.173442,8.334887,0,1683969647.1102219
0.11488476,0.6050353,0.74571425,0.9289733,1.1450669,0.72784597,0.0355328,5.173442,8.334887,0,1683969647.130798
0.11488476,0.6050353,0.74571425,0.9289733,1.1450669,0.72784597,-0.010728472,5.2522974,8.285491,0,1683969647.141109
0.11488476,0.6050353,0.74571425,0.79626286,1.1656836,0.6097962,-0.010728472,5.2522974,8.285491,0,1683969647.1513758
0.119397216,0.6417448,0.7277254,0.79626286,1.1656836,0.6097962,-0.010728472,5.2522974,8.285491,0,1683969647.1719809
0.119397216,0.6417448,0.7277254,0.79626286,1.1656836,0.6097962,-0.05915906,5.324231,8.239245,0,1683969647.1771312
0.119397216,0.6417448,0.7277254,0.65500027,1.1751521,0.48823404,-0.05915906,5.324231,8.239245,0,1683969647.1874275
0.09274931,0.6555871,0.6955284,0.65500027,1.1751521,0.48823404,-0.05915906,5.324231,8.239245,0,1683969647.1977384
0.09274931,0.6555871,0.6955284,0.65500027,1.1751521,0.48823404,-0.11411485,5.3866343,8.198004,0,1683969647.2131896
0.09274931,0.6555871,0.6955284,0.65500027,1.1751521,0.48823404,-0.17494899,5.4387674,8.162434,0,1683969647.2235017
0.09274931,0.6555871,0.6955284,0.48930305,1.1366675,0.38866302,-0.17494899,5.4387674,8.162434,0,1683969647.2286565
0.04664906,0.6461353,0.66430706,0.48930305,1.1366675,0.38866302,-0.17494899,5.4387674,8.162434,0,1683969647.2491026
0.009146876,0.63101244,0.6612581,0.48930305,1.1366675,0.38866302,-0.17494899,5.4387674,8.162434,0,1683969647.2542038
0.009146876,0.63101244,0.6612581,0.37720928,1.0607675,0.3567453,-0.17494899,5.4387674,8.162434,0,1683969647.2644286
0.009146876,0.63101244,0.6612581,0.37720928,1.0607675,0.3567453,-0.26874506,5.499246,8.119247,0,1683969647.2695868
0.009146876,0.63101244,0.6612581,0.37720928,1.0607675,0.3567453,-0.32652462,5.529286,8.096696,0,1683969647.290159
-0.13476396,0.6014985,0.8764536,0.37720928,1.0607675,0.3567453,-0.32652462,5.529286,8.096696,0,1683969647.3159022
