acc_x,acc_y,acc_z,gyr_x,gyr_y,gyr_z,grav_x,grav_y,grav_z,label,timestamp
-0.54216576,0.39038864,-0.5434463,2.0212004,-0.3923282,-3.3428073,-4.331387,7.8648076,-3.952211,0,1683969536.7192588
-0.8227309,0.29215118,-0.7138221,1.8359555,-0.29260445,-3.2322407,-4.588455,7.647926,-4.085511,0,1683969536.7408626
-1.0201205,0.22879384,-0.8043762,1.8359555,-0.29260445,-3.2322407,-4.588455,7.647926,-4.085511,0,1683969536.7666938
-1.0201205,0.22879384,-0.8043762,1.8359555,-0.29260445,-3.2322407,-4.941001,7.326419,-4.2598343,0,1683969536.7718844
-1.0201205,0.22879384,-0.8043762,1.6053538,-0.21105394,-2.9544497,-4.941001,7.326419,-4.2598343,0,1683969536.7770612
-1.0201205,0.22879384,-0.8043762,1.3726143,-0.1693624,-2.5230262,-4.941001,7.326419,-4.2598343,0,1683969536.792546
-1.0201205,0.22879384,-0.8043762,1.3726143,-0.1693624,-2.5230262,-5.1456885,7.1244383,-4.358944,0,1683969536.7977426
-1.1643972,0.18744996,-0.8830393,1.3726143,-0.1693624,-2.5230262,-5.1456885,7.1244383,-4.358944,0,1683969536.8029277
-1.249707,0.17720546,-0.95664114,1.3726143,-0.1693624,-2.5230262,-5.1456885,7.1244383,-4.358944,0,1683969536.818417
-1.249707,0.17720546,-0.95664114,1.2133311,-0.1731803,-2.21515,-5.1456885,7.1244383,-4.358944,0,1683969536.833934
-1.249707,0.17720546,-0.95664114,1.2133311,-0.1731803,-2.21515,-5.32136,6.940594,-4.4438076,0,1683969536.8391364
-1.3159304,0.17744938,-1.0867708,1.2133311,-0.1731803,-2.21515,-5.32136,6.940594,-4.4438076,0,1683969536.8546672
-1.3159304,0.17744938,-1.0867708,0.91889405,-0.1881465,-1.6959146,-5.32136,6.940594,-4.4438076,0,1683969536.8598535
-1.3159304,0.17744938,-1.0867708,0.91889405,-0.1881465,-1.6959146,-5.466628,6.781304,-4.5128727,0,1683969536.8650336
-1.3159304,0.17744938,-1.0867708,0.5920811,-0.32238412,-1.1701124,-5.466628,6.781304,-4.5128727,0,1683969536.8960667
-1.3159304,0.17744938,-1.0867708,0.5920811,-0.32238412,-1.1701124,-5.6345572,6.5946655,-4.5823865,0,1683969536.90121
-1.3159304,0.17744938,-1.0867708,0.5920811,-0.32238412,-1.1701124,-5.7182627,6.5095425,-4.6003714,0,1683969536.9066634
-1.3572743,0.16811956,-1.2158027,0.3052799,-0.4529566,-0.7489208,-5.7182627,6.5095425,-4.6003714,0,1683969536.906685
-1.331724,0.18476687,-1.1813494,0.3052799,-0.4529566,-0.7489208,-5.7182627,6.5095425,-4.6003714,0,1683969536.9118462
-1.331724,0.18476687,-1.1813494,0.3052799,-0.4529566,-0.7489208,-5.7815585,6.457465,-4.5946555,0,1683969536.9170284
-1.331724,0.18476687,-1.1813494,0.03176499,-0.54809886,-0.3378085,-5.7815585,6.457465,-4.5946555,0,1683969536.927333
-1.331724,0.18476687,-1.1813494,-0.2828306,-0.59040123,0.109650314,-5.7815585,6.457465,-4.5946555,0,1683969536.9531677
-1.29971,0.21690291,-1.1628118,-0.2828306,-0.59040123,0.109650314,-5.7815585,6.457465,-4.5946555,0,1683969536.9738173
-1.29971,0.21690291,-1.1628118,-0.2828306,-0.59040123,0.109650314,-5.824091,6.437387,-4.5690403,0,1683969536.9790025
-1.29971,0.21690291,-1.1628118,-0.48930305,-0.6963864,0.42485678,-5.824091,6.437387,-4.5690403,0,1683969536.984245
-1.2694643,0.23440392,-1.1646411,-0.48930305,-0.6963864,0.42485678,-5.824091,6.437387,-4.5690403,0,1683969536.9894233
-1.2694643,0.23440392,-1.1646411,-0.48930305,-0.6963864,0.42485678,-5.8473773,6.446106,-4.526808,0,1683969536.9946046
-1.2200103,0.25403923,-1.127139,-0.66355234,-0.9613492,0.7997753,-5.856941,6.504842,-4.4293766,0,1683969537.0308723
-1.1689707,0.2748331,-1.0484148,-0.66355234,-0.9613492,0.7997753,-5.856941,6.504842,-4.4293766,0,1683969537.0360804
-1.1689707,0.2748331,-1.0484148,-0.76251256,-1.1844677,1.0893254,-5.856941,6.504842,-4.4293766,0,1683969537.0412493
-1.1689707,0.2748331,-1.0484148,-0.76251256,-1.1844677,1.0893254,-5.8511896,6.5700083,-4.339892,0,1683969537.046406
-1.1689707,0.2748331,-1.0484148,-0.8358164,-1.303281,1.2980887,-5.8511896,6.5700083,-4.339892,0,1683969537.0619223
-1.1689707,0.2748331,-1.0484148,-0.8358164,-1.303281,1.2980887,-5.84441,6.6096554,-4.288527,0,1683969537.0722897
-1.1168944,0.29221216,-0.9750569,-0.8358164,-1.303281,1.2980887,-5.84441,6.6096554,-4.288527,0,1683969537.0774724
-1.1168944,0.29221216,-0.9750569,-0.8358164,-1.303281,1.2980887,-5.8028026,6.75507,-4.1149306,0,1683969537.0929966
-1.1168944,0.29221216,-0.9750569,-0.9787588,-1.3828462,1.6172657,-5.8028026,6.75507,-4.1149306,0,1683969537.0981953
-1.0256087,0.3289826,-0.9203586,-0.9787588,-1.3828462,1.6172657,-5.8028026,6.75507,-4.1149306,0,1683969537.103334
-0.764008,0.40947512,-0.8082179,-1.5570955,-1.6119207,2.2629502,-5.5700493,7.228375,-3.60018,0,1683969537.1295729
-0.69943106,0.4250248,-0.7154076,-1.5570955,-1.6119207,2.2629502,-5.5700493,7.228375,-3.60018,0,1683969537.1347332
-0.69943106,0.4250248,-0.7154076,-1.7676913,-1.6473509,2.4179573,-5.5700493,7.228375,-3.60018,0,1683969537.1450927
-0.69943106,0.4250248,-0.7154076,-1.7676913,-1.6473509,2.4179573,-5.4706984,7.39176,-3.4160576,0,1683969537.1502748
-0.66894144,0.4122192,-0.67888105,-1.7676913,-1.6473509,2.4179573,-5.4706984,7.39176,-3.4160576,0,1683969537.1709077
-0.66894144,0.4122192,-0.67888105,-1.7676913,-1.6473509,2.4179573,-5.3552966,7.5648766,-3.2139654,0,1683969537.181232
-0.66894144,0.4122192,-0.67888105,-1.9475911,-1.6372715,2.5364652,-5.3552966,7.5648766,-3.2139654,0,1683969537.1915913
-0.66894144,0.4122192,-0.67888105,-2.143526,-1.6161968,2.6621506,-5.3552966,7.5648766,-3.2139654,0,1683969537.2123218
-0.63918364,0.3907545,-0.6166213,-2.143526,-1.6161968,2.6621506,-5.3552966,7.5648766,-3.2139654,0,1683969537.2226365
-0.63918364,0.3907545,-0.6166213,-2.143526,-1.6161968,2.6621506,-5.2241435,7.7429996,-2.998399,0,1683969537.2277846
-0.60399866,0.36959475,-0.49777296,-2.143526,-1.6161968,2.6621506,-5.2241435,7.7429996,-2.998399,0,1683969537.2536328
-0.60399866,0.36959475,-0.49777296,-2.143526,-1.6161968,2.6621506,-4.9950333,8.016447,-2.649973,0,1683969537.2588153
-0.60399866,0.36959475,-0.49777296,-2.375655,-1.541213,2.8252518,-4.9950333,8.016447,-2.649973,0,1683969537.263996
-0.5594838,0.35465485,-0.39673045,-2.375655,-1.541213,2.8252518,-4.9950333,8.016447,-2.649973,0,1683969537.28978
-0.5594838,0.35465485,-0.39673045,-2.537687,-1.4535538,2.9544497,-4.9950333,8.016447,-2.649973,0,1683969537.294954
-0.5594838,0.35465485,-0.39673045,-2.537687,-1.4535538,2.9544497,-4.8181925,8.200344,-2.4032302,0,1683969537.3052726
-0.5594838,0.35465485,-0.39673045,-2.537687,-1.4535538,2.9544497,-4.6224384,8.381803,-2.1481543,0,1683969537.3207176
-0.5594838,0.35465485,-0.39673045,-2.6656632,-1.299463,3.056617,-4.6224384,8.381803,-2.1481543,0,1683969537.331084
-0.49502888,0.37368035,-0.28166276,-2.6656632,-1.299463,3.056617,-4.6224384,8.381803,-2.1481543,0,1683969537.3414469
-0.4564291,0.39233997,-0.23306239,-2.6656632,-1.299463,3.056617,-4.6224384,8.381803,-2.1481543,0,1683969537.3570654
-0.4564291,0.39233997,-0.23306239,-2.7105618,-1.2040154,3.085175,-4.6224384,8.381803,-2.1481543,0,1683969537.3622472
-0.4564291,0.39233997,-0.23306239,-2.7105618,-1.2040154,3.085175,-4.410796,8.556237,-1.8899196,0,1683969537.3673928
-0.40697494,0.39648655,-0.19745055,-2.7105618,-1.2040154,3.085175,-4.410796,8.556237,-1.8899196,0,1683969537.383022
-0.40697494,0.39648655,-0.19745055,-2.7105618,-1.2040154,3.085175,-4.186684,8.720809,-1.6295115,0,1683969537.388197
-0.40697494,0.39648655,-0.19745055,-2.7528641,-1.1464413,3.1285462,-4.186684,8.720809,-1.6295115,0,1683969537.3933787
-0.37057042,0.40734085,-0.17208321,-2.7528641,-1.1464413,3.1285462,-4.186684,8.720809,-1.6295115,0,1683969537.4192302
-0.37057042,0.40734085,-0.17208321,-2.7528641,-1.1464413,3.1285462,-3.951917,8.874054,-1.3673439,0,1683969537.4296024
-0.37057042,0.40734085,-0.17208321,-2.7585146,-1.1166617,3.2088752,-3.951917,8.874054,-1.3673439,0,1683969537.4451218
-0.34910575,0.40112096,-0.16805859,-2.7585146,-1.1166617,3.2088752,-3.951917,8.874054,-1.3673439,0,1683969537.4554582
-0.34910575,0.40112096,-0.16805859,-2.7829494,-1.0917689,3.3293684,-3.951917,8.874054,-1.3673439,0,1683969537.4606407
-0.34910575,0.40112096,-0.16805859,-2.7829494,-1.0917689,3.3293684,-3.5751357,9.083512,-0.97176576,0,1683969537.4761684
-0.34910575,0.40112096,-0.16805859,-2.8541152,-1.0781772,3.498578,-3.5751357,9.083512,-0.97176576,0,1683969537.5072188
-0.34910575,0.40112096,-0.16805859,-2.8541152,-1.0781772,3.498578,-3.3022494,9.210557,-0.7049269,0,1683969537.5123963
-0.31977475,0.38185155,-0.16927817,-2.8541152,-1.0781772,3.498578,-3.3022494,9.210557,-0.7049269,0,1683969537.5175889
-0.27086946,0.36502132,-0.17086363,-2.8541152,-1.0781772,3.498578,-3.3022494,9.210557,-0.7049269,0,1683969537.5279603
-0.27086946,0.36502132,-0.17086363,-2.8541152,-1.0781772,3.498578,-3.0070715,9.327796,-0.4311234,0,1683969537.5331511
-0.27086946,0.36502132,-0.17086363,-2.9874365,-1.069625,3.771024,-3.0070715,9.327796,-0.4311234,0,1683969537.5537415
-0.27086946,0.36502132,-0.17086363,-3.12763,-1.0648909,3.992157,-3.0070715,9.327796,-0.4311234,0,1683969537.5640888
-0.27086946,0.36502132,-0.17086363,-3.12763,-1.0648909,3.992157,-2.6868155,9.433735,-0.14768898,0,1683969537.569238
-0.20147517,0.36014298,-0.12110463,-3.12763,-1.0648909,3.992157,-2.6868155,9.433735,-0.14768898,0,1683969537.5950623
-0.117384896,0.35739893,-0.018903542,-3.12763,-1.0648909,3.992157,-2.6868155,9.433735,-0.14768898,0,1683969537.600236
-0.117384896,0.35739893,-0.018903542,-3.12763,-1.0648909,3.992157,-2.160544,9.564461,0.29874596,0,1683969537.615772
-0.117384896,0.35739893,-0.018903542,-3.327383,-0.9599747,4.2271876,-2.160544,9.564461,0.29874596,0,1683969537.6209476
-0.117384896,0.35739893,-0.018903542,-3.472769,-0.80939645,4.373337,-2.160544,9.564461,0.29874596,0,1683969537.6468136
-0.117384896,0.35739893,-0.018903542,-3.472769,-0.80939645,4.373337,-1.7835737,9.627201,0.609902,0,1683969537.6519952
-0.030550564,0.38374192,0.10061563,-3.472769,-0.80939645,4.373337,-1.7835737,9.627201,0.609902,0,1683969537.6675308
-0.030550564,0.38374192,0.10061563,-3.6176968,-0.5522222,4.529871,-1.7835737,9.627201,0.609902,0,1683969537.672714
0.025001459,0.38996178,0.16726585,-3.6176968,-0.5522222,4.529871,-1.7835737,9.627201,0.609902,0,1683969537.6830223
0.025001459,0.38996178,0.16726585,-3.6176968,-0.5522222,4.529871,-1.3911046,9.666335,0.9289314,0,1683969537.6933148
0.025001459,0.38996178,0.16726585,-3.6176968,-0.5522222,4.529871,-0.9865287,9.679359,1.2541512,0,1683969537.7140117
0.07884607,0.409658,0.20531686,-3.6176968,-0.5522222,4.529871,-0.9865287,9.679359,1.2541512,0,1683969537.7243319
0.07884607,0.409658,0.20531686,-3.6922224,-0.46410486,4.6022587,-0.9865287,9.679359,1.2541512,0,1683969537.7398615
0.21793956,0.44508693,0.2655643,-3.6922224,-0.46410486,4.6022587,-0.9865287,9.679359,1.2541512,0,1683969537.7450447
0.21793956,0.44508693,0.2655643,-3.6922224,-0.46410486,4.6022587,-0.57382077,9.664323,1.5835757,0,1683969537.755359
0.21793956,0.44508693,0.2655643,-3.72246,-0.41981715,4.6616654,-0.57382077,9.664323,1.5835757,0,1683969537.7605426
0.37654635,0.50210243,0.37581462,-3.72246,-0.41981715,4.6616654,-0.57382077,9.664323,1.5835757,0,1683969537.7966921
0.37654635,0.50210243,0.37581462,-3.6381607,-0.5371033,4.633413,-0.57382077,9.664323,1.5835757,0,1683969537.8018672
0.37654635,0.50210243,0.37581462,-3.6381607,-0.5371033,4.633413,0.050024685,9.588588,2.071864,0,1683969537.8122172
0.37654635,0.50210243,0.37581462,-3.4768922,-0.67149365,4.481155,0.050024685,9.588588,2.071864,0,1683969537.8277183
0.37654635,0.50210243,0.37581462,-3.4768922,-0.67149365,4.481155,0.46106964,9.505084,2.3826282,0,1683969537.8432379
0.5170424,0.59296143,0.48826018,-3.4768922,-0.67149365,4.481155,0.46106964,9.505084,2.3826282,0,1683969537.8484154
0.6719294,0.7204689,0.6801007,-3.4768922,-0.67149365,4.481155,0.46106964,9.505084,2.3826282,0,1683969537.8587673
0.6719294,0.7204689,0.6801007,-3.4768922,-0.67149365,4.481155,0.85562265,9.400777,2.6701002,0,1683969537.8742929
0.6719294,0.7204689,0.6801007,-3.1202996,-0.82253003,4.1118865,0.85562265,9.400777,2.6701002,0,1683969537.879464
0.6719294,0.7204689,0.6801007,-2.7444649,-0.9045387,3.7508652,0.85562265,9.400777,2.6701002,0,1683969537.8949928
0.6719294,0.7204689,0.6801007,-2.7444649,-0.9045387,3.7508652,1.2236549,9.283605,2.924637,0,1683969537.9001653
0.7813261,0.8068154,0.7734598,-2.7444649,-0.9045387,3.7508652,1.2236549,9.283605,2.924637,0,1683969537.9156575
0.7813261,0.8068154,0.7734598,-2.3813055,-0.8932377,3.3869424,1.2236549,9.283605,2.924637,0,1683969537.92598
0.8559036,0.8651115,0.7780942,-2.3813055,-0.8932377,3.3869424,1.2236549,9.283605,2.924637,0,1683969537.9311826
0.8559036,0.8651115,0.7780942,-2.3813055,-0.8932377,3.3869424,1.5609231,9.161544,3.1409817,0,1683969537.9363642
0.8559036,0.8651115,0.7780942,-2.03861,-0.93324935,2.841287,1.5609231,9.161544,3.1409817,0,1683969537.9725182
0.8559036,0.8651115,0.7780942,-2.03861,-0.93324935,2.841287,2.0034719,8.980231,3.4025948,0,1683969537.977694
1.0335358,0.9993266,0.70760226,-2.03861,-0.93324935,2.841287,2.0034719,8.980231,3.4025948,0,1683969537.993227
1.0335358,0.9993266,0.70760226,-2.03861,-0.93324935,2.841287,3.06856,8.47527,3.8716717,0,1683969538.0294492
0.9343838,1.0889659,1.0341457,-2.03861,-0.93324935,2.841287,3.06856,8.47527,3.8716717,0,1683969538.0398178
0.9343838,1.0889659,1.0341457,-0.33261612,-0.051159963,-0.031154128,3.06856,8.47527,3.8716717,0,1683969538.044996
0.9319446,1.0933565,1.0345726,-0.33261612,-0.051159963,-0.031154128,3.06856,8.47527,3.8716717,0,1683969538.060495
0.9319446,1.0933565,1.0345726,-0.36774087,0.2929099,-0.18173242,3.06856,8.47527,3.8716717,0,1683969538.0656796
0.9319446,1.0933565,1.0345726,-0.36774087,0.2929099,-0.18173242,3.0587149,8.459281,3.9141996,0,1683969538.0760345
0.9319446,1.0933565,1.0345726,-0.31703907,0.4644103,-0.36163223,3.0587149,8.459281,3.9141996,0,1683969538.1018767
0.9319446,1.0933565,1.0345726,-0.31703907,0.4644103,-0.36163223,3.0282235,8.452783,3.951766,0,1683969538.1122296
0.93224955,1.1079304,1.0495734,-0.31703907,0.4644103,-0.36163223,3.0282235,8.452783,3.951766,0,1683969538.1225479
0.93224955,1.1079304,1.0495734,-0.14905111,0.61559945,-0.64812803,3.0282235,8.452783,3.951766,0,1683969538.1432343
0.93224955,1.1079304,1.0495734,-0.14905111,0.61559945,-0.64812803,2.9772415,8.454163,3.9873898,0,1683969538.1484122
0.90602845,1.0935394,1.094454,-0.14905111,0.61559945,-0.64812803,2.9772415,8.454163,3.9873898,0,1683969538.1535492
0.90602845,1.0935394,1.094454,-0.14905111,0.61559945,-0.64812803,2.9034889,8.466978,4.014492,0,1683969538.1793842
0.8860273,1.0808557,1.0934175,-0.14905111,0.61559945,-0.64812803,2.9034889,8.466978,4.014492,0,1683969538.1896935
0.8860273,1.0808557,1.0934175,0.32406402,0.71776664,-1.1948525,2.9034889,8.466978,4.014492,0,1683969538.1948001
0.85407424,1.0531102,1.0705503,0.32406402,0.71776664,-1.1948525,2.9034889,8.466978,4.014492,0,1683969538.2103384
0.85407424,1.0531102,1.0705503,0.32406402,0.71776664,-1.1948525,2.8064656,8.493909,4.026581,0,1683969538.215501
0.78785086,0.99072856,1.0006073,0.32406402,0.71776664,-1.1948525,2.8064656,8.493909,4.026581,0,1683969538.2310405
0.78785086,0.99072856,1.0006073,0.69714993,0.6554584,-1.540144,2.8064656,8.493909,4.026581,0,1683969538.2413986
0.78785086,0.99072856,1.0006073,0.69714993,0.6554584,-1.540144,2.6865654,8.536692,4.017882,0,1683969538.2517533
0.7466899,0.9452381,0.91572416,0.69714993,0.6554584,-1.540144,2.6865654,8.536692,4.017882,0,1683969538.2775218
0.7466899,0.9452381,0.91572416,0.69714993,0.6554584,-1.540144,2.4708219,8.629928,3.956705,0,1683969538.2826936
0.7466899,0.9452381,0.91572416,0.69714993,0.6554584,-1.540144,-2.8450491,9.386517,0.18745121,0,1683969538.3032184
-0.0140252095,0.33306822,0.11348223,0.69714993,0.6554584,-1.540144,-2.8450491,9.386517,0.18745121,0,1683969538.313532
-0.0140252095,0.33306822,0.11348223,3.9562688,-2.1536055,-5.5046597,-2.8450491,9.386517,0.18745121,0,1683969538.3238914
-0.102140106,0.2833702,0.09713981,3.9562688,-2.1536055,-5.5046597,-2.8450491,9.386517,0.18745121,0,1683969538.3393457
-0.102140106,0.2833702,0.09713981,3.8284452,-2.0896173,-5.5020633,-2.8450491,9.386517,0.18745121,0,1683969538.3445256
-0.102140106,0.2833702,0.09713981,3.8284452,-2.0896173,-5.5020633,-3.3097324,9.234423,-0.08494835,0,1683969538.3548412
-0.23800169,0.21031716,0.06506477,3.8284452,-2.0896173,-5.5020633,-3.3097324,9.234423,-0.08494835,0,1683969538.3652024
-0.23800169,0.21031716,0.06506477,3.512017,-1.8041905,-5.3673673,-3.3097324,9.234423,-0.08494835,0,1683969538.3755295
-0.23800169,0.21031716,0.06506477,3.512017,-1.8041905,-5.3673673,-3.7692544,9.0509615,-0.33003208,0,1683969538.3806882
-0.23800169,0.21031716,0.06506477,3.09052,-1.3240504,-5.1109567,-3.7692544,9.0509615,-0.33003208,0,1683969538.411624
-0.36252114,0.17537609,0.013598354,3.09052,-1.3240504,-5.1109567,-3.7692544,9.0509615,-0.33003208,0,1683969538.4168096
-0.36252114,0.17537609,0.013598354,2.6786442,-0.83260936,-4.8241553,-3.7692544,9.0509615,-0.33003208,0,1683969538.4374979
-0.47850356,0.13799585,-0.06347931,2.6786442,-0.83260936,-4.8241553,-3.7692544,9.0509615,-0.33003208,0,1683969538.442685
-0.47850356,0.13799585,-0.06347931,2.6786442,-0.83260936,-4.8241553,-4.829422,8.498412,-0.83055377,0,1683969538.4530442
-0.61857265,0.07860215,-0.17311986,2.6786442,-0.83260936,-4.8241553,-4.829422,8.498412,-0.83055377,0,1683969538.4839807
-0.61857265,0.07860215,-0.17311986,2.6786442,-0.83260936,-4.8241553,-5.196274,8.261202,-0.99370104,0,1683969538.489113
-0.61857265,0.07860215,-0.17311986,2.0792327,-0.13698652,-4.3770022,-5.196274,8.261202,-0.99370104,0,1683969538.4942677
-0.8705386,0.027684543,-0.3913643,1.593442,0.42439863,-3.9493966,-5.5208373,8.028314,-1.1413531,0,1683969538.5202296
-0.8705386,0.027684543,-0.3913643,1.0242683,0.9737192,-3.3356297,-5.7993484,7.7055674,-1.3433207,0,1683969538.5253985
-0.8705386,0.027684543,-0.3913643,1.0242683,0.9737192,-3.3356297,-6.569592,7.073827,-1.742851,0,1683969538.5357466
-0.8705386,0.027684543,-0.3913643,-1.1097895,-1.3532193,2.5326474,-6.569592,7.073827,-1.742851,0,1683969538.540932
-0.8354146,0.35105708,-0.5024074,-1.1097895,-1.3532193,2.5326474,-6.569592,7.073827,-1.742851,0,1683969538.5460608
-0.8354146,0.35105708,-0.5024074,-1.1097895,-1.3532193,2.5326474,-6.4259605,7.2392516,-1.592612,0,1683969538.5718803
-0.7824237,0.34404445,-0.47496673,-1.1097895,-1.3532193,2.5326474,-6.4259605,7.2392516,-1.592612,0,1683969538.58224
-0.7824237,0.34404445,-0.47496673,-1.2939653,-1.2754866,2.6812403,-6.4259605,7.2392516,-1.592612,0,1683969538.587382
-0.7824237,0.34404445,-0.47496673,-1.2939653,-1.2754866,2.6812403,-6.265238,7.411178,-1.4343507,0,1683969538.613237
-0.7824237,0.34404445,-0.47496673,-1.4446963,-1.255328,2.818074,-6.265238,7.411178,-1.4343507,0,1683969538.6184177
-0.6744906,0.36630186,-0.4220978,-1.4446963,-1.255328,2.818074,-6.265238,7.411178,-1.4343507,0,1683969538.6235926
-0.6744906,0.36630186,-0.4220978,-1.5297593,-1.3144293,2.9240592,-6.265238,7.411178,-1.4343507,0,1683969538.6545715
-0.6744906,0.36630186,-0.4220978,-1.5297593,-1.3144293,2.9240592,-5.996764,7.6734757,-1.180136,0,1683969538.6597087
-0.5582643,0.41252404,-0.31892106,-1.5297593,-1.3144293,2.9240592,-5.996764,7.6734757,-1.180136,0,1683969538.6700103
-0.5582643,0.41252404,-0.31892106,-1.5297593,-1.3144293,2.9240592,-5.804133,7.844872,-1.0030712,0,1683969538.6855462
-0.4726495,0.44746515,-0.23470882,-1.5297593,-1.3144293,2.9240592,-5.804133,7.844872,-1.0030712,0,1683969538.6907086
-0.4726495,0.44746515,-0.23470882,-1.5271631,-1.3646729,2.9486465,-5.804133,7.844872,-1.0030712,0,1683969538.706249
-0.40008432,0.47990605,-0.16226557,-1.5271631,-1.3646729,2.9486465,-5.804133,7.844872,-1.0030712,0,1683969538.7269118
-0.40008432,0.47990605,-0.16226557,-1.5271631,-1.3646729,2.9486465,-5.6044054,8.009235,-0.8239581,0,1683969538.7320817
-0.40008432,0.47990605,-0.16226557,-1.4738652,-1.4172074,2.9064968,-5.6044054,8.009235,-0.8239581,0,1683969538.737257
-0.40008432,0.47990605,-0.16226557,-1.425454,-1.4636332,2.8570168,-5.6044054,8.009235,-0.8239581,0,1683969538.7527957
-0.40008432,0.47990605,-0.16226557,-1.425454,-1.4636332,2.8570168,-5.400924,8.163877,-0.64597,0,1683969538.7579756
-0.36807024,0.48978466,-0.13836174,-1.425454,-1.4636332,2.8570168,-5.400924,8.163877,-0.64597,0,1683969538.778693
-0.36807024,0.48978466,-0.13836174,-1.3854424,-1.5089899,2.792876,-5.400924,8.163877,-0.64597,0,1683969538.7993407
-0.36807024,0.48978466,-0.13836174,-1.3854424,-1.5089899,2.792876,-5.0917926,8.37636,-0.38258803,0,1683969538.8096697
-0.36807024,0.48978466,-0.13836174,-2.0677788,1.8945986,1.8235855,-5.0917926,8.37636,-0.38258803,0,1683969538.8355405
0.86858726,1.1634825,0.84029293,-2.0677788,1.8945986,1.8235855,-5.0917926,8.37636,-0.38258803,0,1683969538.8406825
0.86858726,1.1634825,0.84029293,-2.0677788,1.8945986,1.8235855,0.76600987,8.957792,3.9252133,0,1683969538.8458488
0.86858726,1.1634825,0.84029293,-1.7253889,1.4141531,1.3336716,0.76600987,8.957792,3.9252133,0,1683969538.8665736
0.98121583,1.2308645,0.90230876,-1.7253889,1.4141531,1.3336716,0.76600987,8.957792,3.9252133,0,1683969538.8717477
0.98121583,1.2308645,0.90230876,-1.7253889,1.4141531,1.3336716,0.84365046,8.872325,4.0995393,0,1683969538.8769248
1.0745139,1.3246504,1.0503052,-1.7253889,1.4141531,1.3336716,0.84365046,8.872325,4.0995393,0,1683969538.9079247
1.0745139,1.3246504,1.0503052,-1.2869403,0.894154,0.6458373,0.84365046,8.872325,4.0995393,0,1683969538.9182854
1.0745139,1.3246504,1.0503052,-1.2869403,0.894154,0.6458373,0.9152578,8.764732,4.310208,0,1683969538.92345
1.0745139,1.3246504,1.0503052,-0.7189884,0.54092115,-0.10934488,0.9152578,8.764732,4.310208,0,1683969538.9389775
1.03939,1.299588,1.2229983,-0.7189884,0.54092115,-0.10934488,0.9152578,8.764732,4.310208,0,1683969538.944148
1.03939,1.299588,1.2229983,-0.7189884,0.54092115,-0.10934488,0.92307293,8.714754,4.4087563,0,1683969538.9596593
0.933896,1.2125098,1.2947707,-0.7189884,0.54092115,-0.10934488,0.92307293,8.714754,4.4087563,0,1683969538.9751623
0.933896,1.2125098,1.2947707,-0.7189884,0.54092115,-0.10934488,0.8924733,8.687589,4.4682684,0,1683969538.9905856
0.933896,1.2125098,1.2947707,-0.23136522,0.44791695,-0.65393126,0.8924733,8.687589,4.4682684,0,1683969538.9957666
0.933896,1.2125098,1.2947707,0.21670444,0.43753225,-1.0661125,0.8924733,8.687589,4.4682684,0,1683969539.0112567
0.933896,1.2125098,1.2947707,0.21670444,0.43753225,-1.0661125,0.82324034,8.683646,4.4891715,0,1683969539.0164382
0.79803437,1.1065279,1.2739158,0.21670444,0.43753225,-1.0661125,0.82324034,8.683646,4.4891715,0,1683969539.021614
0.6494281,0.9732885,1.2008018,0.21670444,0.43753225,-1.0661125,0.82324034,8.683646,4.4891715,0,1683969539.0474417
0.6494281,0.9732885,1.2008018,0.6403395,0.5131268,-1.387275,0.82324034,8.683646,4.4891715,0,1683969539.0526354
0.6494281,0.9732885,1.2008018,0.6403395,0.5131268,-1.387275,0.7225728,8.699667,4.4754667,0,1683969539.0629728
0.6494281,0.9732885,1.2008018,0.6403395,0.5131268,-1.387275,0.5983066,8.72991,4.4347267,0,1683969539.0784807
-0.08104131,0.57710683,0.3123963,0.6403395,0.5131268,-1.387275,0.5983066,8.72991,4.4347267,0,1683969539.099154
-0.08104131,0.57710683,0.3123963,0.6403395,0.5131268,-1.387275,-3.6309726,9.031997,1.2145714,0,1683969539.1249387
-0.08104131,0.57710683,0.3123963,3.4914002,0.10522154,-3.994448,-3.6309726,9.031997,1.2145714,0,1683969539.1301079
-0.08104131,0.57710683,0.3123963,3.5934148,0.26251933,-4.1496077,-3.6309726,9.031997,1.2145714,0,1683969539.1455595
-0.08104131,0.57710683,0.3123963,3.5934148,0.26251933,-4.1496077,-4.123884,8.866646,0.78250134,0,1683969539.1507318
-0.18915738,0.44392833,0.24727054,3.5934148,0.26251933,-4.1496077,-4.123884,8.866646,0.78250134,0,1683969539.155871
-0.27763817,0.3869738,0.2125124,3.5934148,0.26251933,-4.1496077,-4.123884,8.866646,0.78250134,0,1683969539.1713135
-0.27763817,0.3869738,0.2125124,3.5556939,0.5161811,-4.202295,-4.123884,8.866646,0.78250134,0,1683969539.1867893
-0.27763817,0.3869738,0.2125124,3.5556939,0.5161811,-4.202295,-4.459336,8.724285,0.48710757,0,1683969539.197074
-0.27763817,0.3869738,0.2125124,3.5556939,0.5161811,-4.202295,-4.792593,8.557524,0.18964802,0,1683969539.2281308
-0.37977824,0.3093473,0.12159246,3.5556939,0.5161811,-4.202295,-4.792593,8.557524,0.18964802,0,1683969539.2333596
-0.37977824,0.3093473,0.12159246,3.4584136,0.7780896,-4.1858015,-4.792593,8.557524,0.18964802,0,1683969539.2385378
-0.37977824,0.3093473,0.12159246,3.4584136,0.7780896,-4.1858015,-5.117996,8.3684,-0.11007793,0,1683969539.2436836
-0.37977824,0.3093473,0.12159246,3.34632,0.98990715,-4.10196,-5.117996,8.3684,-0.11007793,0,1683969539.2488186
-0.48978466,0.23781876,-0.015427729,3.34632,0.98990715,-4.10196,-5.117996,8.3684,-0.11007793,0,1683969539.2643657
-0.48978466,0.23781876,-0.015427729,3.34632,0.98990715,-4.10196,-5.427906,8.16125,-0.4098255,0,1683969539.279902
-0.48978466,0.23781876,-0.015427729,3.2478178,1.0842859,-3.9639046,-5.427906,8.16125,-0.4098255,0,1683969539.2902713
-0.5945469,0.16104598,-0.14025208,3.2478178,1.0842859,-3.9639046,-5.427906,8.16125,-0.4098255,0,1683969539.295415
-0.7393724,0.09653002,-0.32251883,3.2478178,1.0842859,-3.9639046,-5.427906,8.16125,-0.4098255,0,1683969539.3160048
-0.7393724,0.09653002,-0.32251883,3.0611985,1.0732902,-3.5976908,-5.427906,8.16125,-0.4098255,0,1683969539.3263283
-0.7393724,0.09653002,-0.32251883,3.0611985,1.0732902,-3.5976908,-5.7118154,7.9446707,-0.7024752,0,1683969539.33149
-0.7393724,0.09653002,-0.32251883,3.0611985,1.0732902,-3.5976908,-6.0760617,7.621314,-1.1104816,0,1683969539.3521836
-0.86486757,0.10031073,-0.49563867,3.0611985,1.0732902,-3.5976908,-6.0760617,7.621314,-1.1104816,0,1683969539.3624969
-0.86486757,0.10031073,-0.49563867,2.8626673,0.9089675,-3.167489,-6.0760617,7.621314,-1.1104816,0,1683969539.3676314
-0.86486757,0.10031073,-0.49563867,-0.96852684,-0.93126404,1.5468636,-6.0760617,7.621314,-1.1104816,0,1683969539.372769
-0.86486757,0.10031073,-0.49563867,-0.96852684,-0.93126404,1.5468636,-7.3515425,6.058163,-2.3429952,0,1683969539.383149
-1.2322061,0.17659567,-0.7740086,-0.96852684,-0.93126404,1.5468636,-7.3515425,6.058163,-2.3429952,0,1683969539.3883276
-1.2322061,0.17659567,-0.7740086,-1.1262828,-1.024421,1.8904753,-7.3515425,6.058163,-2.3429952,0,1683969539.424385
-1.2322061,0.17659567,-0.7740086,-1.1262828,-1.024421,1.8904753,-7.2473536,6.2454944,-2.1692743,0,1683969539.4295652
-1.1287243,0.2037314,-0.7168101,-1.1262828,-1.024421,1.8904753,-7.2473536,6.2454944,-2.1692743,0,1683969539.439928
-1.1287243,0.2037314,-0.7168101,-1.1262828,-1.024421,1.8904753,-7.157127,6.39227,-2.0372927,0,1683969539.4605086
-1.1287243,0.2037314,-0.7168101,-1.2389874,-1.1398746,2.1209242,-7.157127,6.39227,-2.0372927,0,1683969539.470822
-1.0415242,0.22672056,-0.7018092,-1.2389874,-1.1398746,2.1209242,-7.157127,6.39227,-2.0372927,0,1683969539.4760005
-1.0415242,0.22672056,-0.7018092,-1.3855951,-1.3119859,2.3515258,-7.157127,6.39227,-2.0372927,0,1683969539.486367
-0.93109095,0.25867364,-0.65528214,-1.3855951,-1.3119859,2.3515258,-7.157127,6.39227,-2.0372927,0,1683969539.5070088
-0.93109095,0.25867364,-0.65528214,-1.3855951,-1.3119859,2.3515258,-7.0522013,6.5520883,-1.8901588,0,1683969539.5121436
-0.8509033,0.27794304,-0.61948735,-1.3855951,-1.3119859,2.3515258,-7.0522013,6.5520883,-1.8901588,0,1683969539.5276628
-0.8509033,0.27794304,-0.61948735,-1.4912748,-1.4362969,2.484389,-7.0522013,6.5520883,-1.8901588,0,1683969539.5380235
-0.8509033,0.27794304,-0.61948735,-1.4912748,-1.4362969,2.484389,-6.933979,6.721059,-1.7272623,0,1683969539.5483897
-0.7637641,0.29928577,-0.5362508,-1.4912748,-1.4362969,2.484389,-6.933979,6.721059,-1.7272623,0,1683969539.563932
-0.7637641,0.29928577,-0.5362508,-1.6187929,-1.5914567,2.607631,-6.933979,6.721059,-1.7272623,0,1683969539.5793943
-0.7637641,0.29928577,-0.5362508,-1.6187929,-1.5914567,2.607631,-6.7345805,6.9832463,-1.4545733,0,1683969539.584587
-0.69766265,0.3148964,-0.44246486,-1.6187929,-1.5914567,2.607631,-6.7345805,6.9832463,-1.4545733,0,1683969539.6000445
-0.69766265,0.3148964,-0.44246486,-1.6187929,-1.5914567,2.607631,-6.5878267,7.1596246,-1.2555686,0,1683969539.610319
-0.69766265,0.3148964,-0.44246486,-1.6998852,-1.6775887,2.6893342,-6.5878267,7.1596246,-1.2555686,0,1683969539.6205928
-0.620707,0.33886123,-0.31325,-1.6998852,-1.6775887,2.6893342,-6.5878267,7.1596246,-1.2555686,0,1683969539.6257765
-0.620707,0.33886123,-0.31325,-1.7724255,-1.7122552,2.761111,-6.5878267,7.1596246,-1.2555686,0,1683969539.6309583
0.5778386,1.0206692,0.88889337,-1.7724255,-1.7122552,2.761111,-6.5878267,7.1596246,-1.2555686,0,1683969539.6620135
0.5778386,1.0206692,0.88889337,-1.7724255,-1.7122552,2.761111,-0.038981635,9.1597185,3.5120015,0,1683969539.6672244
0.5778386,1.0206692,0.88889337,-1.0951287,-0.1516473,2.4255931,-0.038981635,9.1597185,3.5120015,0,1683969539.6724005
0.5778386,1.0206692,0.88889337,-1.0951287,-0.1516473,2.4255931,0.17166811,9.121503,3.6062236,0,1683969539.6879377
0.5778386,1.0206692,0.88889337,-0.9931142,0.02397646,2.2618814,0.17166811,9.121503,3.6062236,0,1683969539.6930737
0.72516423,1.1054914,0.8338291,-0.9931142,0.02397646,2.2618814,0.17166811,9.121503,3.6062236,0,1683969539.698258
0.72516423,1.1054914,0.8338291,-0.9931142,0.02397646,2.2618814,0.45794958,9.061825,3.7295759,0,1683969539.7342935
0.87700236,1.2434872,0.86584324,-0.9931142,0.02397646,2.2618814,0.45794958,9.061825,3.7295759,0,1683969539.7394679
0.87700236,1.2434872,0.86584324,-0.6994407,-0.10873401,1.9420934,0.45794958,9.061825,3.7295759,0,1683969539.7446437
0.87700236,1.2434872,0.86584324,-0.6994407,-0.10873401,1.9420934,0.6252624,9.02833,3.7860847,0,1683969539.775688
1.0287796,1.3664821,0.907553,-0.6994407,-0.10873401,1.9420934,0.6252624,9.02833,3.7860847,0,1683969539.7808745
1.0287796,1.3664821,0.907553,-0.38423425,-0.25396723,1.5603025,0.6252624,9.02833,3.7860847,0,1683969539.7860672
1.0759774,1.4203877,0.9173706,-0.38423425,-0.25396723,1.5603025,0.6252624,9.02833,3.7860847,0,1683969539.796396
1.0759774,1.4203877,0.9173706,-0.07009678,-0.38820487,1.1296426,0.6252624,9.02833,3.7860847,0,1683969539.806744
1.0759774,1.4203877,0.9173706,-0.07009678,-0.38820487,1.1296426,0.76565754,9.005192,3.8152874,0,1683969539.8222513
1.0748798,1.4262418,0.9342618,-0.07009678,-0.38820487,1.1296426,0.76565754,9.005192,3.8152874,0,1683969539.848083
1.0748798,1.4262418,0.9342618,-0.07009678,-0.38820487,1.1296426,0.91713375,8.992873,3.8109343,0,1683969539.8532643
1.0748798,1.4262418,0.9342618,0.23548855,-0.4063781,0.61178154,0.91713375,8.992873,3.8109343,0,1683969539.8636115
1.0748798,1.4262418,0.9342618,0.23548855,-0.4063781,0.61178154,0.9761547,8.996907,3.786674,0,1683969539.8791344
1.0748798,1.4262418,0.9342618,0.3465133,-0.27916542,0.26419923,0.9761547,8.996907,3.786674,0,1683969539.88439
1.0349995,1.3878249,0.91816336,0.3465133,-0.27916542,0.26419923,0.9761547,8.996907,3.786674,0,1683969539.8895688
1.00701,1.3498958,0.89005196,0.3465133,-0.27916542,0.26419923,0.9761547,8.996907,3.786674,0,1683969539.9153285
1.00701,1.3498958,0.89005196,0.36254853,-0.053297993,-0.0795652,0.9761547,8.996907,3.786674,0,1683969539.9205074
1.00701,1.3498958,0.89005196,0.36254853,-0.053297993,-0.0795652,1.0036179,9.006079,3.7575834,0,1683969539.925695
1.00701,1.3498958,0.89005196,2.0103576,1.6420058,-2.3632848,1.0036179,9.006079,3.7575834,0,1683969539.93087
1.00701,1.3498958,0.89005196,2.0103576,1.6420058,-2.3632848,-1.0726137,9.370215,2.6990192,0,1683969539.9412248
0.24964872,0.7122977,0.49606553,2.0103576,1.6420058,-2.3632848,-1.0726137,9.370215,2.6990192,0,1683969539.95156
0.1832424,0.68985736,0.500578,2.0103576,1.6420058,-2.3632848,-1.0726137,9.370215,2.6990192,0,1683969539.9670577
0.1832424,0.68985736,0.500578,2.0103576,1.6420058,-2.3632848,-1.4256274,9.398998,2.4212706,0,1683969539.992897
0.1832424,0.68985736,0.500578,1.9973767,1.866346,-2.4401011,-1.4256274,9.398998,2.4212706,0,1683969539.9980676
0.12366576,0.64644015,0.4543558,1.9973767,1.866346,-2.4401011,-1.4256274,9.398998,2.4212706,0,1683969540.02391
0.12366576,0.64644015,0.4543558,1.991268,2.1913264,-2.5149322,-1.4256274,9.398998,2.4212706,0,1683969540.029091
0.12366576,0.64644015,0.4543558,1.991268,2.1913264,-2.5149322,-1.6722943,9.405905,2.229019,0,1683969540.034271
0.0714066,0.620463,0.40764573,1.991268,2.1913264,-2.5149322,-1.6722943,9.405905,2.229019,0,1683969540.0549235
0.0714066,0.620463,0.40764573,2.0344868,2.414903,-2.569452,-1.6722943,9.405905,2.229019,0,1683969540.0600958
0.0714066,0.620463,0.40764573,2.0344868,2.414903,-2.569452,-1.9257636,9.402919,2.0279725,0,1683969540.065263
0.04329521,0.5540567,0.2783699,2.0344868,2.414903,-2.569452,-1.9257636,9.402919,2.0279725,0,1683969540.091103
0.04329521,0.5540567,0.2783699,2.0344868,2.414903,-2.569452,-2.3125274,9.380831,1.699516,0,1683969540.0962737
0.04329521,0.5540567,0.2783699,2.1675026,2.5776987,-2.6145031,-2.3125274,9.380831,1.699516,0,1683969540.1066213
0.044758707,0.52216464,0.17043677,2.1675026,2.5776987,-2.6145031,-2.3125274,9.380831,1.699516,0,1683969540.1272352
0.044758707,0.52216464,0.17043677,2.3000603,2.5749497,-2.6552784,-2.3125274,9.380831,1.699516,0,1683969540.1324105
0.044758707,0.52216464,0.17043677,2.3000603,2.5749497,-2.6552784,-2.5684988,9.354964,1.457256,0,1683969540.137598
0.04451479,0.5041757,0.032014064,2.3000603,2.5749497,-2.6552784,-2.5684988,9.354964,1.457256,0,1683969540.1531556
0.04451479,0.5041757,0.032014064,2.3000603,2.5749497,-2.6552784,-2.821036,9.319049,1.1971707,0,1683969540.1634674
0.04451479,0.5041757,0.032014064,2.4524713,2.4260514,-2.7452285,-2.821036,9.319049,1.1971707,0,1683969540.1686301
0.0073175007,0.46063665,-0.06006448,2.4524713,2.4260514,-2.7452285,-2.821036,9.319049,1.1971707,0,1683969540.1944296
0.0073175007,0.46063665,-0.06006448,2.5190556,2.251802,-2.8318186,-2.821036,9.319049,1.1971707,0,1683969540.199605
0.0073175007,0.46063665,-0.06006448,-0.72051555,-0.2576324,0.68371093,-2.821036,9.319049,1.1971707,0,1683969540.2202475
-1.3278214,0.3769732,-1.0471952,-0.72051555,-0.2576324,0.68371093,-2.821036,9.319049,1.1971707,0,1683969540.2254176
-1.3278214,0.3769732,-1.0471952,-0.72051555,-0.2576324,0.68371093,-6.791798,6.1181283,-3.5603487,0,1683969540.2305906
-1.2396455,0.40368208,-0.971703,-0.72051555,-0.2576324,0.68371093,-6.791798,6.1181283,-3.5603487,0,1683969540.2512355
-1.2396455,0.40368208,-0.971703,-0.9308059,-0.4279111,0.90056807,-6.791798,6.1181283,-3.5603487,0,1683969540.256421
-1.2396455,0.40368208,-0.971703,-0.9308059,-0.4279111,0.90056807,-6.7475357,6.21598,-3.4739718,0,1683969540.2719274
-1.2396455,0.40368208,-0.971703,-1.1238394,-0.5685628,1.0793989,-6.7475357,6.21598,-3.4739718,0,1683969540.2822623
-1.2396455,0.40368208,-0.971703,-1.1238394,-0.5685628,1.0793989,-6.7105083,6.29961,-3.3941364,0,1683969540.2977383
-1.1652509,0.4027674,-0.88169783,-1.1238394,-0.5685628,1.0793989,-6.7105083,6.29961,-3.3941364,0,1683969540.3029153
-1.1652509,0.4027674,-0.88169783,-1.1238394,-0.5685628,1.0793989,-6.6679516,6.3951445,-3.2979817,0,1683969540.3184106
-1.1652509,0.4027674,-0.88169783,-1.2392929,-0.68432176,1.2110404,-6.6679516,6.3951445,-3.2979817,0,1683969540.3339267
-1.1113453,0.40234053,-0.79126567,-1.2392929,-0.68432176,1.2110404,-6.6679516,6.3951445,-3.2979817,0,1683969540.3442807
-1.0444511,0.40538952,-0.6741857,-1.2392929,-0.68432176,1.2110404,-6.6679516,6.3951445,-3.2979817,0,1683969540.364981
-1.0444511,0.40538952,-0.6741857,-1.3158038,-0.7826711,1.3513867,-6.6679516,6.3951445,-3.2979817,0,1683969540.3701487
-1.0444511,0.40538952,-0.6741857,-1.3158038,-0.7826711,1.3513867,-6.593183,6.555461,-3.129216,0,1683969540.3856244
-1.0444511,0.40538952,-0.6741857,-1.3333662,-0.8559749,1.4566082,-6.593183,6.555461,-3.129216,0,1683969540.4011416
-0.99280185,0.40295035,-0.6085111,-1.3333662,-0.8559749,1.4566082,-6.593183,6.555461,-3.129216,0,1683969540.4063034
-0.99280185,0.40295035,-0.6085111,-1.3333662,-0.8559749,1.4566082,-6.5355344,6.6702447,-3.0051181,0,1683969540.4114308
-0.99280185,0.40295035,-0.6085111,-1.3213016,-0.9757045,1.5694655,-6.5355344,6.6702447,-3.0051181,0,1683969540.4320707
-0.9317007,0.39648655,-0.5587521,-1.3213016,-0.9757045,1.5694655,-6.5355344,6.6702447,-3.0051181,0,1683969540.4475605
-0.9317007,0.39648655,-0.5587521,-1.3213016,-0.9757045,1.5694655,-6.471673,6.788868,-2.8748608,0,1683969540.4527302
-0.89364964,0.3840468,-0.5493003,-1.3213016,-0.9757045,1.5694655,-6.471673,6.788868,-2.8748608,0,1683969540.4785485
-0.89364964,0.3840468,-0.5493003,-1.2993103,-1.1016954,1.6592628,-6.471673,6.788868,-2.8748608,0,1683969540.4837334
-0.89364964,0.3840468,-0.5493003,-1.2993103,-1.1016954,1.6592628,-6.4023447,6.909721,-2.7389545,0,1683969540.4889116
0.40356013,0.5427146,0.57680196,-1.2993103,-1.1016954,1.6592628,-6.4023447,6.909721,-2.7389545,0,1683969540.5043962
0.40356013,0.5427146,0.57680196,-2.968805,0.33765575,4.7256536,-6.4023447,6.909721,-2.7389545,0,1683969540.509549
0.40356013,0.5427146,0.57680196,-2.968805,0.33765575,4.7256536,0.23404446,9.421339,2.7239196,0,1683969540.5198996
0.5769239,0.61832875,0.7326037,-2.968805,0.33765575,4.7256536,0.23404446,9.421339,2.7239196,0,1683969540.5457332
0.5769239,0.61832875,0.7326037,-3.0433307,0.47708577,4.7624583,0.23404446,9.421339,2.7239196,0,1683969540.5509112
0.5769239,0.61832875,0.7326037,-3.0433307,0.47708577,4.7624583,0.6363883,9.32221,2.987897,0,1683969540.5560853
0.7438239,0.72376174,0.95115304,-3.0433307,0.47708577,4.7624583,0.6363883,9.32221,2.987897,0,1683969540.5715594
0.7438239,0.72376174,0.95115304,-3.1047225,0.7991645,4.6848783,0.6363883,9.32221,2.987897,0,1683969540.5767362
0.7438239,0.72376174,0.95115304,-3.1047225,0.7991645,4.6848783,1.2208428,9.123951,3.3910468,0,1683969540.587076
0.84279305,0.79199743,1.126834,-3.1047225,0.7991645,4.6848783,1.2208428,9.123951,3.3910468,0,1683969540.602612
0.84279305,0.79199743,1.126834,-3.147636,1.2255484,4.5373545,1.2208428,9.123951,3.3910468,0,1683969540.6232185
0.84279305,0.79199743,1.126834,-3.147636,1.2255484,4.5373545,1.5795612,8.9607115,3.6669815,0,1683969540.6335702
0.84279305,0.79199743,1.126834,-3.147636,1.2255484,4.5373545,1.8981107,8.776444,3.9506054,0,1683969540.6439104
0.84279305,0.79199743,1.126834,-3.19116,1.8810068,4.2864413,1.8981107,8.776444,3.9506054,0,1683969540.6490924
0.9427989,0.8493178,1.2367185,-3.19116,1.8810068,4.2864413,1.8981107,8.776444,3.9506054,0,1683969540.6697416
1.0412803,0.92609066,1.2428774,-3.19116,1.8810068,4.2864413,1.8981107,8.776444,3.9506054,0,1683969540.6852856
1.0412803,0.92609066,1.2428774,-3.18948,2.2479842,3.968639,1.8981107,8.776444,3.9506054,0,1683969540.6904109
1.0412803,0.92609066,1.2428774,-3.18948,2.2479842,3.968639,2.1693869,8.57408,4.24441,0,1683969540.695576
1.0412803,0.92609066,1.2428774,-3.0257683,2.291661,3.5277467,2.1693869,8.57408,4.24441,0,1683969540.7162163
1.1253705,1.0072539,1.267391,-3.0257683,2.291661,3.5277467,2.1693869,8.57408,4.24441,0,1683969540.7265732
1.1253705,1.0072539,1.267391,-3.0257683,2.291661,3.5277467,2.388001,8.36218,4.5395503,0,1683969540.7369218
1.1253705,1.0072539,1.267391,-2.6403122,2.0103576,3.0262265,2.388001,8.36218,4.5395503,0,1683969540.7627225
1.1253705,1.0072539,1.267391,-2.6403122,2.0103576,3.0262265,2.5597386,8.152779,4.8183055,0,1683969540.7730517
0.08000467,0.36916786,0.020001167,-2.6403122,2.0103576,3.0262265,2.5597386,8.152779,4.8183055,0,1683969540.7833579
0.08000467,0.36916786,0.020001167,4.436714,0.40301836,-4.1137195,2.5597386,8.152779,4.8183055,0,1683969540.7936645
0.08000467,0.36916786,0.020001167,4.436714,0.40301836,-4.1137195,-1.6112025,9.6731415,0.26552734,0,1683969540.803943
0.08000467,0.36916786,0.020001167,4.607146,0.2182316,-4.294841,-1.6112025,9.6731415,0.26552734,0,1683969540.829792
0.08000467,0.36916786,0.020001167,4.607146,0.2182316,-4.294841,-2.1482193,9.566143,-0.3318944,0,1683969540.8349395
0.019452354,0.34319076,-0.031160356,4.607146,0.2182316,-4.294841,-2.1482193,9.566143,-0.3318944,0,1683969540.8451822
0.002134271,0.32392135,-0.11207971,4.607146,0.2182316,-4.294841,-2.1482193,9.566143,-0.3318944,0,1683969540.8503625
0.002134271,0.32392135,-0.11207971,4.7812424,-0.00076358154,-4.4635925,-2.1482193,9.566143,-0.3318944,0,1683969540.8555477
0.002134271,0.32392135,-0.11207971,4.7812424,-0.00076358154,-4.4635925,-2.5187864,9.452094,-0.74144566,0,1683969540.8710692
0.002134271,0.32392135,-0.11207971,4.7812424,-0.00076358154,-4.4635925,-2.9017608,9.299214,-1.1578137,0,1683969540.8968985
0.002134271,0.32392135,-0.11207971,4.969389,-0.30207285,-4.639216,-2.9017608,9.299214,-1.1578137,0,1683969540.9020805
-0.045856334,0.27721128,-0.14610608,4.969389,-0.30207285,-4.639216,-2.9017608,9.299214,-1.1578137,0,1683969540.9072285
-0.045856334,0.27721128,-0.14610608,4.969389,-0.30207285,-4.639216,-3.2983863,9.103642,-1.5749506,0,1683969540.9433954
-0.14592315,0.19934091,-0.19104773,4.969389,-0.30207285,-4.639216,-3.2983863,9.103642,-1.5749506,0,1683969540.94857
-0.14592315,0.19934091,-0.19104773,5.1537175,-0.63255095,-4.7708573,-3.2983863,9.103642,-1.5749506,0,1683969540.9537454
-0.2455631,0.13982524,-0.23068418,5.1537175,-0.63255095,-4.7708573,-3.2983863,9.103642,-1.5749506,0,1683969540.9744112
-0.2455631,0.13982524,-0.23068418,5.1537175,-0.63255095,-4.7708573,-3.7034535,8.864642,-1.9846135,0,1683969540.9795816
-0.2455631,0.13982524,-0.23068418,5.1769304,-0.8190176,-4.7881145,-3.7034535,8.864642,-1.9846135,0,1683969540.9899337
-0.36874104,0.08128523,-0.26367393,5.1769304,-0.8190176,-4.7881145,-3.7034535,8.864642,-1.9846135,0,1683969541.005482
-0.36874104,0.08128523,-0.26367393,5.0367365,-0.8407033,-4.7143526,-3.7034535,8.864642,-1.9846135,0,1683969541.0158303
-0.36874104,0.08128523,-0.26367393,5.0367365,-0.8407033,-4.7143526,-4.106789,8.5870905,-2.3732476,0,1683969541.026191
-0.36874104,0.08128523,-0.26367393,4.836831,-0.74113226,-4.6025643,-4.106789,8.5870905,-2.3732476,0,1683969541.0313287
-0.4601488,0.050429773,-0.3023957,4.836831,-0.74113226,-4.6025643,-4.106789,8.5870905,-2.3732476,0,1683969541.052021
-0.4601488,0.050429773,-0.3023957,0.07880162,1.6756034,-0.9410379,-4.106789,8.5870905,-2.3732476,0,1683969541.0623517
-0.4601488,0.050429773,-0.3023957,0.025045475,1.3141239,-0.6944011,-4.106789,8.5870905,-2.3732476,0,1683969541.0778606
-1.3161743,0.21678093,-1.293673,0.025045475,1.3141239,-0.6944011,-4.106789,8.5870905,-2.3732476,0,1683969541.0830235
-1.3161743,0.21678093,-1.293673,0.025045475,1.3141239,-0.6944011,-6.174982,5.750768,-5.0034404,0,1683969541.0881932
-1.3161743,0.21678093,-1.293673,0.025045475,1.3141239,-0.6944011,-6.1575813,5.7067647,-5.074754,0,1683969541.1191733
-1.3184305,0.2514781,-1.3223332,0.025045475,1.3141239,-0.6944011,-6.1575813,5.7067647,-5.074754,0,1683969541.124352
-1.3184305,0.2514781,-1.3223332,0.04932737,0.86086184,-0.5006041,-6.1575813,5.7067647,-5.074754,0,1683969541.1347122
-1.3227601,0.2819067,-1.335017,0.04932737,0.86086184,-0.5006041,-6.1575813,5.7067647,-5.074754,0,1683969541.1605296
-1.3227601,0.2819067,-1.335017,0.04932737,0.86086184,-0.5006041,-6.1513376,5.670638,-5.122597,0,1683969541.16572
-1.3227601,0.2819067,-1.335017,0.10980303,0.41126502,-0.3747658,-6.1513376,5.670638,-5.122597,0,1683969541.1709027
-1.3227601,0.2819067,-1.335017,0.10980303,0.41126502,-0.3747658,-6.158929,5.638176,-5.14924,0,1683969541.1969783
-1.3608111,0.27501604,-1.3381268,0.10980303,0.41126502,-0.3747658,-6.158929,5.638176,-5.14924,0,1683969541.2021205
-1.3608111,0.27501604,-1.3381268,0.16432275,-0.08506299,-0.2501493,-6.158929,5.638176,-5.14924,0,1683969541.2072284
-1.402399,0.24788031,-1.3208698,0.16432275,-0.08506299,-0.2501493,-6.158929,5.638176,-5.14924,0,1683969541.2227294
-1.402399,0.24788031,-1.3208698,0.13561209,-0.47601673,-0.04718934,-6.158929,5.638176,-5.14924,0,1683969541.227864
-1.402399,0.24788031,-1.3208698,0.13561209,-0.47601673,-0.04718934,-6.179202,5.6100655,-5.1556554,0,1683969541.2382257
-1.402399,0.24788031,-1.3208698,0.13561209,-0.47601673,-0.04718934,-6.2201743,5.588867,-5.129345,0,1683969541.2588196
-1.402399,0.24788031,-1.3208698,0.016187929,-0.6994407,0.19715676,-6.2201743,5.588867,-5.129345,0,1683969541.2640016
-1.42551,0.22854991,-1.3049542,0.016187929,-0.6994407,0.19715676,-6.2201743,5.588867,-5.129345,0,1683969541.2743468
-1.42551,0.22854991,-1.3049542,0.016187929,-0.6994407,0.19715676,-6.243112,5.6005125,-5.0886064,0,1683969541.284686
-1.4144118,0.19238928,-1.2801356,0.016187929,-0.6994407,0.19715676,-6.243112,5.6005125,-5.0886064,0,1683969541.3001604
-1.4144118,0.19238928,-1.2801356,-0.28008172,-0.8414669,0.58291817,-6.243112,5.6005125,-5.0886064,0,1683969541.3156877
-1.3777633,0.18397415,-1.2270838,-0.28008172,-0.8414669,0.58291817,-6.243112,5.6005125,-5.0886064,0,1683969541.3363898
-1.3777633,0.18397415,-1.2270838,-3.0552425,-0.8330675,3.8049269,-6.243112,5.6005125,-5.0886064,0,1683969541.3467064
-0.061284065,0.3070301,0.05469831,-3.0552425,-0.8330675,3.8049269,-6.243112,5.6005125,-5.0886064,0,1683969541.3673012
-0.061284065,0.3070301,0.05469831,-3.1473305,-0.7093673,3.8806741,-2.295724,9.529522,-0.39240667,0,1683969541.372516
-0.022989146,0.30654228,0.1411058,-3.1473305,-0.7093673,3.8806741,-2.295724,9.529522,-0.39240667,0,1683969541.3878808
-0.022989146,0.30654228,0.1411058,-3.2233832,-0.56001073,3.9464948,-2.295724,9.529522,-0.39240667,0,1683969541.3930087
0.008293167,0.30922535,0.19165753,-3.2233832,-0.56001073,3.9464948,-2.295724,9.529522,-0.39240667,0,1683969541.4032373
0.008293167,0.30922535,0.19165753,-3.2233832,-0.56001073,3.9464948,-1.9499755,9.613814,-0.09101133,0,1683969541.4237437
0.008293167,0.30922535,0.19165753,-3.303712,-0.35033122,4.034154,-1.9499755,9.613814,-0.09101133,0,1683969541.428863
0.008293167,0.30922535,0.19165753,-3.3454034,-0.21655174,4.1039453,-1.9499755,9.613814,-0.09101133,0,1683969541.4494221
0.05286894,0.3211163,0.2344649,-3.3454034,-0.21655174,4.1039453,-1.9499755,9.613814,-0.09101133,0,1683969541.4546092
0.05286894,0.3211163,0.2344649,-3.3454034,-0.21655174,4.1039453,-1.4106969,9.70102,0.36914352,0,1683969541.459786
0.100127794,0.3420931,0.24098967,-3.3454034,-0.21655174,4.1039453,-1.4106969,9.70102,0.36914352,0,1683969541.490921
0.100127794,0.3420931,0.24098967,-3.3454034,-0.21655174,4.1039453,-1.0399752,9.731094,0.6785004,0,1683969541.5012906
0.100127794,0.3420931,0.24098967,-3.3658676,-0.15027285,4.148691,-1.0399752,9.731094,0.6785004,0,1683969541.5064647
0.20641449,0.3799612,0.19982874,-3.3658676,-0.15027285,4.148691,-1.0399752,9.731094,0.6785004,0,1683969541.5167894
0.20641449,0.3799612,0.19982874,-3.3658676,-0.15027285,4.148691,-0.6634783,9.737737,0.9861014,0,1683969541.5271635
0.20641449,0.3799612,0.19982874,-3.322038,-0.2764165,4.131282,-0.6634783,9.737737,0.9861014,0,1683969541.5323367
0.33014122,0.4549046,0.2148906,-3.322038,-0.2764165,4.131282,-0.6634783,9.737737,0.9861014,0,1683969541.5529757
0.33014122,0.4549046,0.2148906,-3.16474,-0.6452264,4.0265183,-0.6634783,9.737737,0.9861014,0,1683969541.5581427
0.33014122,0.4549046,0.2148906,-3.16474,-0.6452264,4.0265183,-0.28493074,9.721179,1.2859244,0,1683969541.57363
0.33014122,0.4549046,0.2148906,-2.8467848,-1.1369729,3.8476875,-0.28493074,9.721179,1.2859244,0,1683969541.5891423
0.2040363,0.39776713,0.2961758,-2.8467848,-1.1369729,3.8476875,-0.28493074,9.721179,1.2859244,0,1683969541.5994442
0.2040363,0.39776713,0.2961758,-2.8467848,-1.1369729,3.8476875,0.15677321,9.685669,1.5489924,0,1683969541.6046066
0.2040363,0.39776713,0.2961758,3.3997705,1.1982121,-3.4171803,0.15677321,9.685669,1.5489924,0,1683969541.6097825
0.12720254,0.3401418,0.21934207,3.3997705,1.1982121,-3.4171803,0.15677321,9.685669,1.5489924,0,1683969541.6510842
0.12720254,0.3401418,0.21934207,3.5327864,1.1314751,-3.4611626,0.15677321,9.685669,1.5489924,0,1683969541.65624
0.12720254,0.3401418,0.21934207,3.5327864,1.1314751,-3.4611626,-0.15360723,9.728316,1.2539477,0,1683969541.6614413
0.053966567,0.30660325,0.11153089,3.5327864,1.1314751,-3.4611626,-0.15360723,9.728316,1.2539477,0,1683969541.6769388
0.053966567,0.30660325,0.11153089,3.5327864,1.1314751,-3.4611626,-0.46573162,9.753414,0.943474,0,1683969541.6872218
0.053966567,0.30660325,0.11153089,3.631441,1.0511464,-3.4773505,-0.46573162,9.753414,0.943474,0,1683969541.6923943
0.053966567,0.30660325,0.11153089,3.631441,1.0511464,-3.4773505,-0.776987,9.759564,0.6191272,0,1683969541.7285395
0.053966567,0.30660325,0.11153089,3.6714528,0.93599826,-3.485139,-0.776987,9.759564,0.6191272,0,1683969541.7337089
0.037624147,0.29794422,0.021403689,3.6714528,0.93599826,-3.485139,-0.776987,9.759564,0.6191272,0,1683969541.7388852
0.037624147,0.29794422,0.021403689,3.7120755,0.7495316,-3.5278995,-0.776987,9.759564,0.6191272,0,1683969541.754363
0.014817937,0.28940713,-0.046527103,3.7120755,0.7495316,-3.5278995,-0.776987,9.759564,0.6191272,0,1683969541.764672
0.014817937,0.28940713,-0.046527103,3.7120755,0.7495316,-3.5278995,-1.2395676,9.730691,0.11518957,0,1683969541.7749667
-0.030672522,0.26678386,-0.09226148,3.7120755,0.7495316,-3.5278995,-1.2395676,9.730691,0.11518957,0,1683969541.7853382
-0.030672522,0.26678386,-0.09226148,3.7215438,0.61086524,-3.5503488,-1.2395676,9.730691,0.11518957,0,1683969541.8008657
-0.030672522,0.26678386,-0.09226148,3.7215438,0.61086524,-3.5503488,-1.5488218,9.684314,-0.22661236,0,1683969541.8060458
-0.030672522,0.26678386,-0.09226148,3.7215438,0.61086524,-3.5503488,-1.85839,9.615509,-0.5696264,0,1683969541.8215256
-0.06061329,0.24507529,-0.17952266,3.7215438,0.61086524,-3.5503488,-1.85839,9.615509,-0.5696264,0,1683969541.8318515
-0.06061329,0.24507529,-0.17952266,3.673591,0.45448375,-3.5584428,-1.85839,9.615509,-0.5696264,0,1683969541.8370216
-0.06061329,0.24507529,-0.17952266,3.673591,0.45448375,-3.5584428,-2.1669412,9.524497,-0.9079861,0,1683969541.8679895
-0.09921311,0.23580644,-0.17872995,3.673591,0.45448375,-3.5584428,-2.1669412,9.524497,-0.9079861,0,1683969541.8731625
-0.09921311,0.23580644,-0.17872995,-0.6751588,0.0021380284,0.4925101,-2.1669412,9.524497,-0.9079861,0,1683969541.8886647
-0.09921311,0.23580644,-0.17872995,-0.96684694,-0.2724459,0.84467393,-2.1669412,9.524497,-0.9079861,0,1683969541.8990192
-1.2766598,0.40185273,-1.3830075,-0.96684694,-0.2724459,0.84467393,-2.1669412,9.524497,-0.9079861,0,1683969541.9145186
-1.2766598,0.40185273,-1.3830075,-0.96684694,-0.2724459,0.84467393,-5.3908587,6.372631,-5.15406,0,1683969541.9196734
-1.2766598,0.40185273,-1.3830075,-0.96684694,-0.2724459,0.84467393,-5.3578396,6.452637,-5.088534,0,1683969541.9300296
-1.2766598,0.40185273,-1.3830075,-1.163851,-0.44730607,1.0884092,-5.3578396,6.452637,-5.088534,0,1683969541.940383
-1.1853131,0.40837747,-1.275989,-1.163851,-0.44730607,1.0884092,-5.3578396,6.452637,-5.088534,0,1683969541.9559216
-1.1853131,0.40837747,-1.275989,-1.163851,-0.44730607,1.0884092,-5.2953024,6.6086583,-4.9519176,0,1683969541.9765956
-1.1853131,0.40837747,-1.275989,-1.3594806,-0.6577492,1.3530666,-5.2953024,6.6086583,-4.9519176,0,1683969541.9817405
-1.0819534,0.42130506,-1.144152,-1.3594806,-0.6577492,1.3530666,-5.2953024,6.6086583,-4.9519176,0,1683969541.9869192
-1.0819534,0.42130506,-1.144152,-1.3594806,-0.6577492,1.3530666,-5.245165,6.731167,-4.838981,0,1683969542.0230465
-0.9768863,0.42874455,-1.0438414,-1.3594806,-0.6577492,1.3530666,-5.245165,6.731167,-4.838981,0,1683969542.0282254
-0.9768863,0.42874455,-1.0438414,-1.490053,-0.84940815,1.5825992,-5.245165,6.731167,-4.838981,0,1683969542.0333793
-0.9768863,0.42874455,-1.0438414,-1.490053,-0.84940815,1.5825992,-5.18814,6.8644533,-4.7115426,0,1683969542.0385563
-0.8977963,0.42630538,-0.9847526,-1.490053,-0.84940815,1.5825992,-5.18814,6.8644533,-4.7115426,0,1683969542.0643945
-0.8977963,0.42630538,-0.9847526,-1.5774068,-1.016327,1.7377589,-5.18814,6.8644533,-4.7115426,0,1683969542.0695128
-0.81773067,0.4228905,-0.9213342,-1.5774068,-1.016327,1.7377589,-5.18814,6.8644533,-4.7115426,0,1683969542.0798633
-0.81773067,0.4228905,-0.9213342,-1.6829338,-1.2177598,1.9101756,-5.18814,6.8644533,-4.7115426,0,1683969542.0902271
-0.81773067,0.4228905,-0.9213342,-1.6829338,-1.2177598,1.9101756,-5.1250124,7.0061827,-4.569876,0,1683969542.105673
-0.7213226,0.41386563,-0.83120704,-1.6829338,-1.2177598,1.9101756,-5.1250124,7.0061827,-4.569876,0,1683969542.1211565
-0.7213226,0.41386563,-0.83120704,-1.6829338,-1.2177598,1.9101756,-5.019099,7.230737,-4.3314238,0,1683969542.1314743
-0.7213226,0.41386563,-0.83120704,-1.7650951,-1.3640621,2.0286834,-5.019099,7.230737,-4.3314238,0,1683969542.1366446
-0.7213226,0.41386563,-0.83120704,-1.7650951,-1.3640621,2.0286834,-4.939963,7.3865433,-4.1559434,0,1683969542.1418257
-0.7213226,0.41386563,-0.83120704,-1.8622227,-1.4932601,2.1642957,-4.939963,7.3865433,-4.1559434,0,1683969542.1469958
-0.7213226,0.41386563,-0.83120704,-3.1334333,-0.38698313,4.063323,-4.939963,7.3865433,-4.1559434,0,1683969542.1521716
0.09043211,0.36983865,0.17116854,-3.1334333,-0.38698313,4.063323,-4.939963,7.3865433,-4.1559434,0,1683969542.1625066
0.09043211,0.36983865,0.17116854,-3.1334333,-0.38698313,4.063323,-1.1500999,9.742252,0.04390616,0,1683969542.1832013
0.14025208,0.4045358,0.22172025,-3.1334333,-0.38698313,4.063323,-1.1500999,9.742252,0.04390616,0,1683969542.1987183
0.14025208,0.4045358,0.22172025,-3.1334333,-0.38698313,4.063323,-0.7811743,9.773105,0.3351244,0,1683969542.2039013
0.14025208,0.4045358,0.22172025,-3.2082644,-0.19960022,4.096157,-0.7811743,9.773105,0.3351244,0,1683969542.2090907
0.14025208,0.4045358,0.22172025,-3.2731688,-0.0061086523,4.110665,-0.7811743,9.773105,0.3351244,0,1683969542.2349102
0.16610725,0.4290494,0.27550387,-3.2731688,-0.0061086523,4.110665,-0.7811743,9.773105,0.3351244,0,1683969542.2400773
0.16610725,0.4290494,0.27550387,-3.2731688,-0.0061086523,4.110665,-0.40838388,9.781116,0.63175076,0,1683969542.2504153
0.16610725,0.4290494,0.27550387,-3.3151658,0.23304509,4.1263947,-0.40838388,9.781116,0.63175076,0,1683969542.2710707
0.22464725,0.47832057,0.3289826,-3.3151658,0.23304509,4.1263947,-0.40838388,9.781116,0.63175076,0,1683969542.2814178
0.22464725,0.47832057,0.3289826,-3.3151658,0.23304509,4.1263947,0.15034668,9.7487,1.0846053,0,1683969542.2865896
0.22464725,0.47832057,0.3289826,-3.3151658,0.23304509,4.1263947,0.51919097,9.697321,1.3887161,0,1683969542.2917187
0.22464725,0.47832057,0.3289826,-3.3492215,0.4034765,4.123035,0.51919097,9.697321,1.3887161,0,1683969542.2968833
0.25660032,0.52490866,0.34941062,-3.3492215,0.4034765,4.123035,0.51919097,9.697321,1.3887161,0,1683969542.3175595
0.25660032,0.52490866,0.34941062,-3.4176383,0.59437186,4.110665,0.51919097,9.697321,1.3887161,0,1683969542.3227265
0.31014004,0.55466646,0.36563107,-3.4176383,0.59437186,4.110665,0.51919097,9.697321,1.3887161,0,1683969542.3382227
0.31014004,0.55466646,0.36563107,-3.4176383,0.59437186,4.110665,0.8822848,9.6219635,1.6957312,0,1683969542.3485062
0.31014004,0.55466646,0.36563107,-3.478114,0.698219,4.0903535,0.8822848,9.6219635,1.6957312,0,1683969542.3639677
0.38276625,0.5732652,0.37715617,-3.478114,0.698219,4.0903535,0.8822848,9.6219635,1.6957312,0,1683969542.3794484
0.38276625,0.5732652,0.37715617,-3.478114,0.698219,4.0903535,1.2374259,9.522504,2.0066926,0,1683969542.389754
0.38276625,0.5732652,0.37715617,-3.5107954,0.6988298,4.0327797,1.2374259,9.522504,2.0066926,0,1683969542.4000947
0.38276625,0.5732652,0.37715617,-3.5107954,0.6988298,4.0327797,1.5838554,9.328357,2.4787261,0,1683969542.410429
0.5116762,0.6260731,0.42228076,-3.5107954,0.6988298,4.0327797,1.5838554,9.328357,2.4787261,0,1683969542.4155748
0.5394827,0.7095536,0.582534,-3.5107954,0.6988298,4.0327797,1.5838554,9.328357,2.4787261,0,1683969542.4310617
0.5394827,0.7095536,0.582534,2.5152376,1.4819591,-2.866027,1.5838554,9.328357,2.4787261,0,1683969542.446583
0.5394827,0.7095536,0.582534,2.5152376,1.4819591,-2.866027,1.8374738,9.318673,2.4540064,0,1683969542.456911
0.47990605,0.6395495,0.5392388,2.5152376,1.4819591,-2.866027,1.8374738,9.318673,2.4540064,0,1683969542.467215
0.47990605,0.6395495,0.5392388,2.5152376,1.4819591,-2.866027,1.5690116,9.413776,2.2704945,0,1683969542.4723792
0.47990605,0.6395495,0.5392388,2.6047294,1.6209309,-2.9759827,1.5690116,9.413776,2.2704945,0,1683969542.487914
0.47990605,0.6395495,0.5392388,2.6047294,1.6209309,-2.9759827,1.1461747,9.540694,1.97423,0,1683969542.4982462
0.47990605,0.6395495,0.5392388,2.7087293,1.762499,-3.0723467,1.1461747,9.540694,1.97423,0,1683969542.5033839
0.39666948,0.55869114,0.4663077,2.7087293,1.762499,-3.0723467,1.1461747,9.540694,1.97423,0,1683969542.5085595
0.33264136,0.48795533,0.37416816,2.7087293,1.762499,-3.0723467,1.1461747,9.540694,1.97423,0,1683969542.5499103
0.33264136,0.48795533,0.37416816,2.7087293,1.762499,-3.0723467,0.85636765,9.612443,1.7617346,0,1683969542.5550833
0.33264136,0.48795533,0.37416816,2.784629,1.8304577,-3.1149547,0.85636765,9.612443,1.7617346,0,1683969542.5602536
0.33264136,0.48795533,0.37416816,2.87687,1.7956384,-3.1143436,0.85636765,9.612443,1.7617346,0,1683969542.5860124
0.26916206,0.43270817,0.2736745,2.87687,1.7956384,-3.1143436,0.85636765,9.612443,1.7617346,0,1683969542.591191
0.26916206,0.43270817,0.2736745,2.87687,1.7956384,-3.1143436,0.56559587,9.672461,1.5361484,0,1683969542.5963495
0.24275808,0.4198416,0.22269592,2.87687,1.7956384,-3.1143436,0.56559587,9.672461,1.5361484,0,1683969542.6170292
0.24275808,0.4198416,0.22269592,2.9717066,1.6821702,-3.107166,0.56559587,9.672461,1.5361484,0,1683969542.6221883
0.24275808,0.4198416,0.22269592,2.9717066,1.6821702,-3.107166,0.27861047,9.719954,1.2965307,0,1683969542.6324763
0.24275808,0.4198416,0.22269592,3.150843,1.4957036,-3.140611,0.27861047,9.719954,1.2965307,0,1683969542.6634483
0.20598765,0.41234115,0.18623038,3.150843,1.4957036,-3.140611,0.27861047,9.719954,1.2965307,0,1683969542.6686325
0.20598765,0.41234115,0.18623038,3.150843,1.4957036,-3.140611,-0.003949356,9.754535,1.041716,0,1683969542.6737895
0.20598765,0.41234115,0.18623038,3.2717943,1.3785702,-3.1795535,-0.003949356,9.754535,1.041716,0,1683969542.684149
0.18720604,0.4024625,0.155131,3.2717943,1.3785702,-3.1795535,-0.003949356,9.754535,1.041716,0,1683969542.699653
-1.4881356,0.12884897,-1.2697083,3.2717943,1.3785702,-3.1795535,-0.003949356,9.754535,1.041716,0,1683969542.715196
-1.4881356,0.12884897,-1.2697083,3.2717943,1.3785702,-3.1795535,-6.1462345,5.6371956,-5.165459,0,1683969542.7203724
-1.4881356,0.12884897,-1.2697083,-0.7115053,0.7629707,-0.13103059,-6.1462345,5.6371956,-5.165459,0,1683969542.7255683
-1.428681,0.1887915,-1.2070826,-0.7115053,0.7629707,-0.13103059,-6.1462345,5.6371956,-5.165459,0,1683969542.7565296
-1.428681,0.1887915,-1.2070826,-0.75869465,0.48258355,0.14935656,-6.1462345,5.6371956,-5.165459,0,1683969542.7617102
-1.428681,0.1887915,-1.2070826,-0.75869465,0.48258355,0.14935656,-6.1112957,5.662551,-5.1791596,0,1683969542.766898
-1.428681,0.1887915,-1.2070826,-0.6966918,-0.076052725,0.6232353,-6.1112957,5.662551,-5.1791596,0,1683969542.7977335
-1.428681,0.1887915,-1.2070826,-0.6966918,-0.076052725,0.6232353,-6.063004,5.7495933,-5.13987,0,1683969542.8080618
-1.3428223,0.24458744,-1.100674,-0.6966918,-0.076052725,0.6232353,-6.063004,5.7495933,-5.13987,0,1683969542.8132377
-1.305686,0.2432459,-1.0970762,-0.6966918,-0.076052725,0.6232353,-6.063004,5.7495933,-5.13987,0,1683969542.828751
-1.305686,0.2432459,-1.0970762,-0.72341716,-0.2947425,0.9242391,-6.063004,5.7495933,-5.13987,0,1683969542.8390846
-1.305686,0.2432459,-1.0970762,-0.72341716,-0.2947425,0.9242391,-6.038621,5.8083787,-5.1023474,0,1683969542.8545527
-1.305686,0.2432459,-1.0970762,-0.72341716,-0.2947425,0.9242391,-5.9913864,5.9235635,-5.025018,0,1683969542.8700337
-1.2444018,0.2423312,-1.1257365,-0.72341716,-0.2947425,0.9242391,-5.9913864,5.9235635,-5.025018,0,1683969542.875213
-1.2444018,0.2423312,-1.1257365,-0.8349001,-0.45906523,1.2012665,-5.9913864,5.9235635,-5.025018,0,1683969542.880373
-1.1553113,0.26062497,-1.100613,-0.8349001,-0.45906523,1.2012665,-5.9913864,5.9235635,-5.025018,0,1683969542.911229
-1.1553113,0.26062497,-1.100613,-0.8349001,-0.45906523,1.2012665,-5.948529,6.0254874,-4.9542537,0,1683969542.9164145
-1.1553113,0.26062497,-1.100613,-1.0771081,-0.6252206,1.5654949,-5.948529,6.0254874,-4.9542537,0,1683969542.921595
-1.1553113,0.26062497,-1.100613,-1.0771081,-0.6252206,1.5654949,-5.8930936,6.1509337,-4.865551,0,1683969542.952474
-1.0674403,0.27946752,-1.042012,-1.0771081,-0.6252206,1.5654949,-5.8930936,6.1509337,-4.865551,0,1683969542.9576333
-1.0674403,0.27946752,-1.042012,-1.3238977,-0.68615437,1.8425223,-5.8930936,6.1509337,-4.865551,0,1683969542.9628174
-0.97084934,0.3123963,-0.9868259,-1.3238977,-0.68615437,1.8425223,-5.8930936,6.1509337,-4.865551,0,1683969542.9679828
-0.97084934,0.3123963,-0.9868259,-1.6632334,-0.68768156,2.1383338,-5.8930936,6.1509337,-4.865551,0,1683969542.9783025
-0.27977243,0.3945352,-0.1671439,-1.6632334,-0.68768156,2.1383338,-5.8930936,6.1509337,-4.865551,0,1683969542.9834533
-0.27977243,0.3945352,-0.1671439,-2.6163359,-1.0807734,3.026532,-5.8930936,6.1509337,-4.865551,0,1683969542.9937894
-0.27977243,0.3945352,-0.1671439,-2.6163359,-1.0807734,3.026532,-3.6775293,8.849179,-2.0985594,0,1683969542.9989684
-0.27977243,0.3945352,-0.1671439,-2.6163359,-1.0807734,3.026532,-3.3404834,9.059709,-1.7317553,0,1683969543.0351434
-0.26452765,0.36410663,-0.17226616,-2.6163359,-1.0807734,3.026532,-3.3404834,9.059709,-1.7317553,0,1683969543.045486
-0.26452765,0.36410663,-0.17226616,-2.6936102,-0.9558514,3.097545,-3.3404834,9.059709,-1.7317553,0,1683969543.0507638
-0.26452765,0.36410663,-0.17226616,-2.7957776,-0.9007208,3.263853,-3.3404834,9.059709,-1.7317553,0,1683969543.0662727
-0.26452765,0.36410663,-0.17226616,-2.7957776,-0.9007208,3.263853,-3.0993996,9.188499,-1.4836936,0,1683969543.071499
-0.23275748,0.3448372,-0.17299789,-2.7957776,-0.9007208,3.263853,-3.0993996,9.188499,-1.4836936,0,1683969543.087051
-0.23275748,0.3448372,-0.17299789,-2.8852692,-0.9424124,3.4599407,-3.0993996,9.188499,-1.4836936,0,1683969543.1025844
-0.19586508,0.3474593,-0.1451914,-2.8852692,-0.9424124,3.4599407,-3.0993996,9.188499,-1.4836936,0,1683969543.1077516
-0.19586508,0.3474593,-0.1451914,-2.8852692,-0.9424124,3.4599407,-2.8405411,9.308863,-1.2298473,0,1683969543.11802
-0.1419595,0.3644115,-0.05921077,-2.8852692,-0.9424124,3.4599407,-2.8405411,9.308863,-1.2298473,0,1683969543.1490066
-0.1419595,0.3644115,-0.05921077,-2.8852692,-0.9424124,3.4599407,-2.4149916,9.471649,-0.8317513,0,1683969543.154172
-0.1419595,0.3644115,-0.05921077,-2.9498682,-0.980286,3.6048684,-2.4149916,9.471649,-0.8317513,0,1683969543.1593058
-0.1419595,0.3644115,-0.05921077,-2.9498682,-0.980286,3.6048684,-2.1074922,9.5649605,-0.55330276,0,1683969543.1748016
-0.09738373,0.37166804,0.036892395,-2.9498682,-0.980286,3.6048684,-2.1074922,9.5649605,-0.55330276,0,1683969543.179978
-0.09738373,0.37166804,0.036892395,-3.0060678,-0.9656252,3.7239873,-2.1074922,9.5649605,-0.55330276,0,1683969543.1954722
-0.09738373,0.37166804,0.036892395,-3.0060678,-0.9656252,3.7239873,-1.783452,9.642848,-0.2662746,0,1683969543.2213585
-0.09738373,0.37166804,0.036892395,-3.0469959,-0.8205447,3.8304305,-1.783452,9.642848,-0.2662746,0,1683969543.226542
-0.057320416,0.3770952,0.14366692,-3.0469959,-0.8205447,3.8304305,-1.783452,9.642848,-0.2662746,0,1683969543.2317088
-0.057320416,0.3770952,0.14366692,-3.0534098,-0.64476824,3.9052615,-1.783452,9.642848,-0.2662746,0,1683969543.2420177
-0.029391957,0.37563166,0.24794129,-3.0534098,-0.64476824,3.9052615,-1.783452,9.642848,-0.2662746,0,1683969543.2575276
-0.029391957,0.37563166,0.24794129,-3.0534098,-0.64476824,3.9052615,3.954545,7.1731153,5.3985276,0,1683969543.2730267
1.5346017,1.1323222,1.4117897,-3.0534098,-0.64476824,3.9052615,3.954545,7.1731153,5.3985276,0,1683969543.278195
1.5346017,1.1323222,1.4117897,0.23075435,-0.43233988,-0.95814216,3.954545,7.1731153,5.3985276,0,1683969543.2936454
1.3651406,1.0806118,1.539785,0.23075435,-0.43233988,-0.95814216,3.954545,7.1731153,5.3985276,0,1683969543.2988288
1.3651406,1.0806118,1.539785,0.23075435,-0.43233988,-0.95814216,3.9455042,7.150037,5.4356318,0,1683969543.304
1.3651406,1.0806118,1.539785,0.23075435,-0.43233988,-0.95814216,3.9061081,7.1950927,5.404542,0,1683969543.3246448
1.1870815,0.96572715,1.4833792,0.23075435,-0.43233988,-0.95814216,3.9061081,7.1950927,5.404542,0,1683969543.3298004
1.1870815,0.96572715,1.4833792,1.12781,-0.567952,-1.6404786,3.9061081,7.1950927,5.404542,0,1683969543.3349638
1.1870815,0.96572715,1.4833792,1.8241963,-0.52855116,-2.0416644,3.834845,7.293608,5.3229084,0,1683969543.3507013
0.8476104,0.7871801,1.2475119,1.8241963,-0.52855116,-2.0416644,3.834845,7.293608,5.3229084,0,1683969543.350721
0.8476104,0.7871801,1.2475119,1.8241963,-0.52855116,-2.0416644,3.7395387,7.426027,5.2063518,0,1683969543.361009
0.8476104,0.7871801,1.2475119,1.8241963,-0.52855116,-2.0416644,3.5673294,7.6494856,4.999564,0,1683969543.381617
0.7358356,0.7262009,1.0843315,1.8241963,-0.52855116,-2.0416644,3.5673294,7.6494856,4.999564,0,1683969543.397093
0.7358356,0.7262009,1.0843315,1.9536998,-0.3669773,-2.1088595,3.5673294,7.6494856,4.999564,0,1683969543.402253
0.73461604,0.71735895,0.93999386,1.9536998,-0.3669773,-2.1088595,3.5673294,7.6494856,4.999564,0,1683969543.4125195
0.73461604,0.71735895,0.93999386,1.9536998,-0.3669773,-2.1088595,3.4368804,7.798124,4.859345,0,1683969543.4177008
0.73461604,0.71735895,0.93999386,1.887879,-0.17363845,-2.1406245,3.4368804,7.798124,4.859345,0,1683969543.4280412
0.73461604,0.71735895,0.93999386,1.887879,-0.17363845,-2.1406245,3.2959592,7.940421,4.7246685,0,1683969543.4435246
0.7944976,0.7618737,0.8942595,1.887879,-0.17363845,-2.1406245,3.2959592,7.940421,4.7246685,0,1683969543.4538224
0.7944976,0.7618737,0.8942595,1.8403842,-0.10323623,-2.2278256,3.2959592,7.940421,4.7246685,0,1683969543.4641488
0.7944976,0.7618737,0.8942595,1.8944459,-0.03863723,-2.4510968,3.2959592,7.940421,4.7246685,0,1683969543.4796257
0.7944976,0.7618737,0.8942595,0.19394971,0.5674938,-1.0558805,3.2959592,7.940421,4.7246685,0,1683969543.4847994
-1.4343519,0.17220518,-0.9998144,0.19394971,0.5674938,-1.0558805,3.2959592,7.940421,4.7246685,0,1683969543.4950798
-1.4343519,0.17220518,-0.9998144,0.19394971,0.5674938,-1.0558805,-6.806375,5.872751,-3.9268494,0,1683969543.5002222
-1.4343519,0.17220518,-0.9998144,0.19394971,0.5674938,-1.0558805,-6.8463483,5.792588,-3.976119,0,1683969543.5259233
-1.4486821,0.17659567,-0.98103285,0.19394971,0.5674938,-1.0558805,-6.8463483,5.792588,-3.976119,0,1683969543.5414166
-1.4486821,0.17659567,-0.98103285,-0.033750303,0.4812091,-0.7163922,-6.8463483,5.792588,-3.976119,0,1683969543.5465791
-1.4486821,0.17659567,-0.98103285,-0.19593503,0.35216382,-0.40561453,-6.8463483,5.792588,-3.976119,0,1683969543.572387
-1.4421573,0.18251066,-0.9495066,-0.19593503,0.35216382,-0.40561453,-6.8463483,5.792588,-3.976119,0,1683969543.5827243
-1.4421573,0.18251066,-0.9495066,-0.19593503,0.35216382,-0.40561453,-6.871033,5.741236,-4.0078998,0,1683969543.587896
-1.4203267,0.19714566,-0.9353595,-0.19593503,0.35216382,-0.40561453,-6.871033,5.741236,-4.0078998,0,1683969543.5930586
-1.4203267,0.19714566,-0.9353595,-0.19593503,0.35216382,-0.40561453,-6.8840137,5.7150316,-4.0230436,0,1683969543.5982459
-1.4203267,0.19714566,-0.9353595,-0.29779682,0.1881465,-0.116217114,-6.8840137,5.7150316,-4.0230436,0,1683969543.618881
-1.4203267,0.19714566,-0.9353595,-0.37614027,-0.070249505,0.21395555,-6.8840137,5.7150316,-4.0230436,0,1683969543.6343782
-1.4203267,0.19714566,-0.9353595,-0.37614027,-0.070249505,0.21395555,-6.887279,5.7156105,-4.0166287,0,1683969543.6395445
-1.3784341,0.21617115,-0.92840785,-0.37614027,-0.070249505,0.21395555,-6.887279,5.7156105,-4.0166287,0,1683969543.6550398
-1.3784341,0.21617115,-0.92840785,-0.41080686,-0.2452624,0.4036292,-6.887279,5.7156105,-4.0166287,0,1683969543.6808755
-1.3784341,0.21617115,-0.92840785,-0.41080686,-0.2452624,0.4036292,-6.8852954,5.7251916,-4.006374,0,1683969543.6860816
-1.3486762,0.2273913,-0.92731017,-0.41080686,-0.2452624,0.4036292,-6.8852954,5.7251916,-4.006374,0,1683969543.6911976
-1.2870263,0.24318492,-0.8887104,-0.41080686,-0.2452624,0.4036292,-6.8852954,5.7251916,-4.006374,0,1683969543.71179
-1.2870263,0.24318492,-0.8887104,-0.48991394,-0.5320636,0.7021896,-6.8852954,5.7251916,-4.006374,0,1683969543.7169526
-1.2870263,0.24318492,-0.8887104,-0.48991394,-0.5320636,0.7021896,-6.872207,5.7801156,-3.949582,0,1683969543.7220774
-1.2299498,0.2537953,-0.82693845,-0.48991394,-0.5320636,0.7021896,-6.872207,5.7801156,-3.949582,0,1683969543.7375555
-1.2299498,0.2537953,-0.82693845,-0.6261369,-0.70005155,1.006095,-6.872207,5.7801156,-3.949582,0,1683969543.758209
-1.2299498,0.2537953,-0.82693845,-2.928488,-0.48838675,3.4831536,-6.872207,5.7801156,-3.949582,0,1683969543.7840066
-1.2299498,0.2537953,-0.82693845,-2.928488,-0.48838675,3.4831536,-4.7772765,8.429072,-1.5376874,0,1683969543.789171
-0.5080174,0.324897,-0.13098325,-2.928488,-0.48838675,3.4831536,-4.7772765,8.429072,-1.5376874,0,1683969543.7943454
-0.4314276,0.3289826,-0.12134854,-2.928488,-0.48838675,3.4831536,-4.7772765,8.429072,-1.5376874,0,1683969543.804649
-0.4314276,0.3289826,-0.12134854,-2.8745792,-0.54367006,3.675118,-4.7772765,8.429072,-1.5376874,0,1683969543.8200512
-0.4314276,0.3289826,-0.12134854,-2.8745792,-0.54367006,3.675118,-4.5199504,8.610103,-1.2931668,0,1683969543.8252156
-0.34227607,0.3617894,-0.10006681,-2.8745792,-0.54367006,3.675118,-4.5199504,8.610103,-1.2931668,0,1683969543.8407183
-0.34227607,0.3617894,-0.10006681,-2.8745792,-0.54367006,3.675118,-4.2427497,8.782906,-1.0467908,0,1683969543.8458774
-0.34227607,0.3617894,-0.10006681,-2.876717,-0.5676465,3.8119519,-4.2427497,8.782906,-1.0467908,0,1683969543.856206
-0.2654423,0.39593774,-0.072138354,-2.876717,-0.5676465,3.8119519,-4.2427497,8.782906,-1.0467908,0,1683969543.8819325
-0.2654423,0.39593774,-0.072138354,-2.876717,-0.5676465,3.8119519,-3.9460716,8.945966,-0.7964627,0,1683969543.8922954
-0.2654423,0.39593774,-0.072138354,-2.9206994,-0.5137377,3.9319868,-3.9460716,8.945966,-0.7964627,0,1683969543.9026196
-0.2654423,0.39593774,-0.072138354,-3.0457742,-0.4147775,4.006665,-3.9460716,8.945966,-0.7964627,0,1683969543.9232042
-0.2654423,0.39593774,-0.072138354,-3.0457742,-0.4147775,4.006665,-3.4678533,9.167527,-0.4081041,0,1683969543.9335377
-0.18684018,0.42154896,-0.021403689,-3.0457742,-0.4147775,4.006665,-3.4678533,9.167527,-0.4081041,0,1683969543.9387085
-0.18684018,0.42154896,-0.021403689,-3.2426255,-0.18509217,4.083787,-3.4678533,9.167527,-0.4081041,0,1683969543.959214
-0.143423,0.42722008,0.042258564,-3.2426255,-0.18509217,4.083787,-3.4678533,9.167527,-0.4081041,0,1683969543.964382
-0.143423,0.42722008,0.042258564,-3.2426255,-0.18509217,4.083787,-3.1318989,9.295625,-0.13667516,0,1683969543.9747262
-0.11665315,0.42276856,0.108298995,-3.2426255,-0.18509217,4.083787,-3.1318989,9.295625,-0.13667516,0,1683969543.9798896
-0.11665315,0.42276856,0.108298995,-3.2426255,-0.18509217,4.083787,-2.7834456,9.405648,0.14949635,0,1683969544.0005143
-0.11665315,0.42276856,0.108298995,-3.3874004,0.016493361,4.128227,-2.7834456,9.405648,0.14949635,0,1683969544.010845
-0.11665315,0.42276856,0.108298995,-3.6558757,0.35964692,4.1946588,-2.7834456,9.405648,0.14949635,0,1683969544.0160255
-0.11665315,0.42276856,0.108298995,-3.6558757,0.35964692,4.1946588,-2.4272134,9.494304,0.45049348,0,1683969544.031509
-0.11665315,0.42276856,0.108298995,-3.6558757,0.35964692,4.1946588,3.4846525,6.5763335,6.39102,0,1683969544.0573332
0.90054035,0.8077301,1.5049049,-3.6558757,0.35964692,4.1946588,3.4846525,6.5763335,6.39102,0,1683969544.0625215
0.90054035,0.8077301,1.5049049,0.67271537,0.06154467,-0.48716503,3.4846525,6.5763335,6.39102,0,1683969544.0779772
0.90054035,0.8077301,1.5049049,0.89476484,0.20769419,-0.6293439,3.4846525,6.5763335,6.39102,0,1683969544.0934846
0.8387685,0.79803437,1.4198389,0.89476484,0.20769419,-0.6293439,3.4846525,6.5763335,6.39102,0,1683969544.0986686
0.8387685,0.79803437,1.4198389,0.89476484,0.20769419,-0.6293439,3.4537323,6.6265807,6.3558054,0,1683969544.103837
0.8015102,0.7898022,1.3271506,0.89476484,0.20769419,-0.6293439,3.4537323,6.6265807,6.3558054,0,1683969544.1244721
0.8015102,0.7898022,1.3271506,1.029308,0.40103304,-0.74281216,3.4537323,6.6265807,6.3558054,0,1683969544.1451073
0.8015102,0.7898022,1.3271506,1.029308,0.40103304,-0.74281216,3.4052382,6.693245,6.3119664,0,1683969544.1502755
0.8015102,0.7898022,1.3271506,1.029308,0.40103304,-0.74281216,3.298756,6.8119493,6.2411265,0,1683969544.170906
0.8015102,0.7898022,1.3271506,1.1104003,0.6059783,-0.9104946,3.298756,6.8119493,6.2411265,0,1683969544.1760788
0.76961803,0.80041254,1.2257423,1.1104003,0.6059783,-0.9104946,3.298756,6.8119493,6.2411265,0,1683969544.1812518
0.76961803,0.80041254,1.2257423,1.1523973,0.70402217,-1.0340421,3.298756,6.8119493,6.2411265,0,1683969544.2071369
0.76961803,0.80041254,1.2257423,1.1523973,0.70402217,-1.0340421,3.25437,6.855009,6.217237,0,1683969544.2123177
0.7607151,0.79876614,1.1830568,1.1523973,0.70402217,-1.0340421,3.25437,6.855009,6.217237,0,1683969544.2226775
0.7406529,0.7820578,1.1350663,1.1523973,0.70402217,-1.0340421,3.25437,6.855009,6.217237,0,1683969544.2278557
0.7406529,0.7820578,1.1350663,1.2738068,0.78022766,-1.2519683,3.25437,6.855009,6.217237,0,1683969544.2382238
0.7406529,0.7820578,1.1350663,1.2738068,0.78022766,-1.2519683,3.152737,6.9462323,6.1681623,0,1683969544.248526
0.7406529,0.7820578,1.1350663,1.2738068,0.78022766,-1.2519683,2.9732535,7.1003976,6.081137,0,1683969544.27957
0.7406529,0.7820578,1.1350663,1.5134187,0.7516697,-1.4773777,2.9732535,7.1003976,6.081137,0,1683969544.2899065
0.6938819,0.77224016,1.1226875,1.5134187,0.7516697,-1.4773777,2.9732535,7.1003976,6.081137,0,1683969544.29508
0.6938819,0.77224016,1.1226875,1.5134187,0.7516697,-1.4773777,2.8393917,7.2193894,6.0045295,0,1683969544.3106437
0.6938819,0.77224016,1.1226875,1.7628044,0.70616025,-1.6685784,2.8393917,7.2193894,6.0045295,0,1683969544.3209953
0.07549221,0.3996575,0.3670946,4.609131,0.13469578,-3.0928106,-0.48650387,9.535677,2.251729,0,1683969544.3314364
0.033843435,0.39941353,0.33008024,4.609131,0.13469578,-3.0928106,-0.48650387,9.535677,2.251729,0,1683969544.3365974
-0.000121958336,0.38057098,0.25294158,4.609131,0.13469578,-3.0928106,-0.48650387,9.535677,2.251729,0,1683969544.357297
-0.000121958336,0.38057098,0.25294158,4.711298,0.15851954,-3.1680999,-0.48650387,9.535677,2.251729,0,1683969544.362468
-0.000121958336,0.38057098,0.25294158,4.711298,0.15851954,-3.1680999,-0.7560234,9.602228,1.8605789,0,1683969544.3676546
-0.000121958336,0.38057098,0.25294158,4.8533244,0.040317107,-3.2227724,-0.7560234,9.602228,1.8605789,0,1683969544.3883243
-0.050063897,0.34788615,0.10646963,4.8533244,0.040317107,-3.2227724,-0.7560234,9.602228,1.8605789,0,1683969544.398692
-0.050063897,0.34788615,0.10646963,4.8533244,0.040317107,-3.2227724,-1.1757977,9.659199,1.2463967,0,1683969544.4090135
-0.050063897,0.34788615,0.10646963,4.8533244,0.040317107,-3.2227724,-1.461071,9.666185,0.8162281,0,1683969544.429696
-0.050063897,0.34788615,0.10646963,4.9551864,-0.18478674,-3.2308662,-1.461071,9.666185,0.8162281,0,1683969544.450352
-0.09866429,0.32684833,-0.03420931,4.9551864,-0.18478674,-3.2308662,-1.461071,9.666185,0.8162281,0,1683969544.4555266
-0.09866429,0.32684833,-0.03420931,5.0196323,-0.515723,-3.2203288,-1.461071,9.666185,0.8162281,0,1683969544.4658933
-0.09866429,0.32684833,-0.03420931,5.0196323,-0.515723,-3.2203288,-1.7486032,9.645644,0.3742569,0,1683969544.4813857
-0.16336319,0.30050534,-0.17055872,5.0196323,-0.515723,-3.2203288,-1.7486032,9.645644,0.3742569,0,1683969544.4917328
-0.16336319,0.30050534,-0.17055872,5.032919,-0.95371336,-3.193756,-1.7486032,9.645644,0.3742569,0,1683969544.4968674
-0.19324298,0.30581054,-0.27245492,5.032919,-0.95371336,-3.193756,-1.7486032,9.645644,0.3742569,0,1683969544.517538
-0.19324298,0.30581054,-0.27245492,5.032919,-0.95371336,-3.193756,-2.0356429,9.59623,-0.06848902,0,1683969544.522719
-0.19324298,0.30581054,-0.27245492,5.032919,-0.95371336,-3.193756,-2.3214543,9.518356,-0.49786237,0,1683969544.548554
-0.19324298,0.30581054,-0.27245492,5.0049715,-1.4877623,-3.148705,-2.3214543,9.518356,-0.49786237,0,1683969544.5588799
-0.19324298,0.30581054,-0.27245492,5.0049715,-1.4877623,-3.148705,-5.731087,6.724141,-4.2634106,0,1683969544.56921
-0.19324298,0.30581054,-0.27245492,-1.8634444,-0.047647487,1.4094188,-5.731087,6.724141,-4.2634106,0,1683969544.5847104
-0.98078895,0.38715672,-0.9231636,-1.8634444,-0.047647487,1.4094188,-5.731087,6.724141,-4.2634106,0,1683969544.589881
-0.98078895,0.38715672,-0.9231636,-2.1962132,-0.036957346,1.6441438,-5.731087,6.724141,-4.2634106,0,1683969544.6002254
-0.89865,0.39575478,-0.88151485,-2.1962132,-0.036957346,1.6441438,-5.731087,6.724141,-4.2634106,0,1683969544.6208467
-0.89865,0.39575478,-0.88151485,-2.1962132,-0.036957346,1.6441438,-5.603311,6.9368067,-4.088977,0,1683969544.6260242
-0.89865,0.39575478,-0.88151485,-2.400395,-0.110413894,1.7959439,-5.603311,6.9368067,-4.088977,0,1683969544.646683
-0.8238286,0.40197468,-0.8346219,-2.400395,-0.110413894,1.7959439,-5.603311,6.9368067,-4.088977,0,1683969544.6518624
-0.8238286,0.40197468,-0.8346219,-2.400395,-0.110413894,1.7959439,-5.5017986,7.0971155,-3.949339,0,1683969544.662198
-0.8238286,0.40197468,-0.8346219,-2.400395,-0.110413894,1.7959439,-5.3911695,7.2668095,-3.7901027,0,1683969544.688055
-0.7648617,0.41301188,-0.7689473,-2.400395,-0.110413894,1.7959439,-5.3911695,7.2668095,-3.7901027,0,1683969544.6931872
-0.7648617,0.41301188,-0.7689473,-2.5503623,-0.20799962,1.9199494,-5.3911695,7.2668095,-3.7901027,0,1683969544.6983087
-0.7648617,0.41301188,-0.7689473,-2.644741,-0.29810223,1.9906571,-5.3911695,7.2668095,-3.7901027,0,1683969544.713708
-0.7648617,0.41301188,-0.7689473,-2.644741,-0.29810223,1.9906571,-5.3331375,7.353591,-3.7038412,0,1683969544.7188134
-0.72217625,0.41234115,-0.73528683,-2.644741,-0.29810223,1.9906571,-5.3331375,7.353591,-3.7038412,0,1683969544.7239425
-0.66723406,0.40599927,-0.6521722,-2.644741,-0.29810223,1.9906571,-5.3331375,7.353591,-3.7038412,0,1683969544.7291238
-0.66723406,0.40599927,-0.6521722,-2.644741,-0.29810223,1.9906571,-5.15107,7.616432,-3.4194403,0,1683969544.7444968
-0.66723406,0.40599927,-0.6521722,-2.7721064,-0.43508878,2.0856466,-5.15107,7.616432,-3.4194403,0,1683969544.7496333
-0.66723406,0.40599927,-0.6521722,-2.9217684,-0.49357912,2.1534526,-5.15107,7.616432,-3.4194403,0,1683969544.7649577
-0.6171092,0.39392543,-0.57003325,-2.9217684,-0.49357912,2.1534526,-5.15107,7.616432,-3.4194403,0,1683969544.7802796
-0.6171092,0.39392543,-0.57003325,-2.9217684,-0.49357912,2.1534526,-5.022603,7.7914515,-3.209804,0,1683969544.78538
-0.6171092,0.39392543,-0.57003325,-2.9217684,-0.49357912,2.1534526,-4.818554,8.049086,-2.8687756,0,1683969544.8160274
-0.58094853,0.36380172,-0.5082614,-2.9217684,-0.49357912,2.1534526,-4.818554,8.049086,-2.8687756,0,1683969544.821135
-0.58094853,0.36380172,-0.5082614,-2.9217684,-0.49357912,2.1534526,1.8988734,7.355175,6.2073975,0,1683969544.8314035
-0.58094853,0.36380172,-0.5082614,-4.227493,0.21074851,2.4927883,1.8988734,7.355175,6.2073975,0,1683969544.8365264
-0.58094853,0.36380172,-0.5082614,-3.5544722,-0.03268129,1.7084373,1.8988734,7.355175,6.2073975,0,1683969544.8621073
1.0382923,0.8051689,1.6088134,-3.5544722,-0.03268129,1.7084373,1.8988734,7.355175,6.2073975,0,1683969544.8672194
1.0382923,0.8051689,1.6088134,-3.5544722,-0.03268129,1.7084373,2.1214437,6.929076,6.6123743,0,1683969544.8723354
1.0281088,0.78400916,1.7729694,-3.5544722,-0.03268129,1.7084373,2.1214437,6.929076,6.6123743,0,1683969544.897865
1.0281088,0.78400916,1.7729694,-3.5544722,-0.03268129,1.7084373,2.1780114,6.804093,6.722849,0,1683969544.9029672
1.0281088,0.78400916,1.7729694,-2.837927,-0.1853976,1.0801625,2.1780114,6.804093,6.722849,0,1683969544.9131937
0.9704225,0.7488242,1.8448638,-2.837927,-0.1853976,1.0801625,2.1780114,6.804093,6.722849,0,1683969544.9183276
0.9704225,0.7488242,1.8448638,-1.8280143,-0.33750305,0.3924809,2.1780114,6.804093,6.722849,0,1683969544.9336576
0.9704225,0.7488242,1.8448638,-1.8280143,-0.33750305,0.3924809,2.2992976,6.5048895,6.9739347,0,1683969544.9438777
0.91462654,0.70327276,1.8669382,-1.8280143,-0.33750305,0.3924809,2.2992976,6.5048895,6.9739347,0,1683969544.9693437
0.91462654,0.70327276,1.8669382,-1.8280143,-0.33750305,0.3924809,2.3481317,6.378504,7.0736895,0,1683969544.9744496
0.91462654,0.70327276,1.8669382,-1.0089967,-0.48258355,-0.03283401,2.3481317,6.378504,7.0736895,0,1683969544.9795609
0.8535864,0.6507087,1.8251065,-1.0089967,-0.48258355,-0.03283401,2.3481317,6.378504,7.0736895,0,1683969544.9999876
0.8535864,0.6507087,1.8251065,-1.0089967,-0.48258355,-0.03283401,2.3944726,6.30047,7.1278815,0,1683969545.0102189
0.8535864,0.6507087,1.8251065,-0.043066,-0.6545421,-0.42180246,2.3944726,6.30047,7.1278815,0,1683969545.0204196
0.8535864,0.6507087,1.8251065,0.4552473,-0.73853606,-0.6088799,2.3944726,6.30047,7.1278815,0,1683969545.0306883
0.80943745,0.6363786,1.7900435,0.4552473,-0.73853606,-0.6088799,2.3944726,6.30047,7.1278815,0,1683969545.0358133
0.80943745,0.6363786,1.7900435,0.4552473,-0.73853606,-0.6088799,2.4054756,6.3022127,7.122634,0,1683969545.0460317
0.73638445,0.61509687,1.7165027,0.4552473,-0.73853606,-0.6088799,2.4054756,6.3022127,7.122634,0,1683969545.0613563
0.73638445,0.61509687,1.7165027,1.1065824,-0.7478518,-0.8333729,2.4054756,6.3022127,7.122634,0,1683969545.0716062
0.73638445,0.61509687,1.7165027,2.7430904,0.47036624,-1.4825699,2.4054756,6.3022127,7.122634,0,1683969545.0869868
0.4158779,0.6020473,1.2328769,2.7430904,0.47036624,-1.4825699,2.4054756,6.3022127,7.122634,0,1683969545.1074069
0.4158779,0.6020473,1.2328769,3.0611985,0.590554,-1.5239561,2.4054756,6.3022127,7.122634,0,1683969545.1125262
0.39849886,0.5925346,1.156287,3.0611985,0.590554,-1.5239561,2.4054756,6.3022127,7.122634,0,1683969545.1381483
0.39849886,0.5925346,1.156287,3.225063,0.68386364,-1.5381587,2.4054756,6.3022127,7.122634,0,1683969545.1432502
0.39849886,0.5925346,1.156287,3.225063,0.68386364,-1.5381587,1.7307502,7.6708035,5.865098,0,1683969545.1483676
0.3738023,0.60832816,1.01573,3.225063,0.68386364,-1.5381587,1.7307502,7.6708035,5.865098,0,1683969545.1636975
0.3738023,0.60832816,1.01573,3.4377968,0.7982482,-1.5679383,1.7307502,7.6708035,5.865098,0,1683969545.1688018
0.3738023,0.60832816,1.01573,3.4377968,0.7982482,-1.5679383,1.5897855,7.856705,5.6551633,0,1683969545.1739228
0.3694118,0.63479316,0.86547726,3.4377968,0.7982482,-1.5679383,1.5897855,7.856705,5.6551633,0,1683969545.1995795
0.3694118,0.63479316,0.86547726,3.602425,0.84589565,-1.6490307,1.5897855,7.856705,5.6551633,0,1683969545.2047036
0.3694118,0.63479316,0.86547726,3.602425,0.84589565,-1.6490307,1.3650692,8.137047,5.306712,0,1683969545.214928
0.37746105,0.6406471,0.7541904,3.602425,0.84589565,-1.6490307,1.3650692,8.137047,5.306712,0,1683969545.2353954
0.37746105,0.6406471,0.7541904,3.602425,0.84589565,-1.6490307,1.2068077,8.321221,5.0534143,0,1683969545.2405665
0.37746105,0.6406471,0.7541904,3.6937494,0.86345804,-1.7486018,1.2068077,8.321221,5.0534143,0,1683969545.2456875
0.37764397,0.6398544,0.6771737,3.6937494,0.86345804,-1.7486018,1.2068077,8.321221,5.0534143,0,1683969545.2661521
0.37764397,0.6398544,0.6771737,3.7513235,0.8425359,-1.8750509,1.2068077,8.321221,5.0534143,0,1683969545.2712574
0.37764397,0.6398544,0.6771737,3.7513235,0.8425359,-1.8750509,1.040662,8.49998,4.7857594,0,1683969545.2814875
0.33349505,0.6086331,0.649916,3.7513235,0.8425359,-1.8750509,1.040662,8.49998,4.7857594,0,1683969545.301934
0.33349505,0.6086331,0.649916,3.7513235,0.8425359,-1.8750509,0.86521924,8.670882,4.505919,0,1683969545.3121486
0.33349505,0.6086331,0.649916,3.833332,0.8400924,-2.019826,0.86521924,8.670882,4.505919,0,1683969545.3172712
0.28885832,0.5542397,0.62893915,3.833332,0.8400924,-2.019826,0.86521924,8.670882,4.505919,0,1683969545.3223758
0.28885832,0.5542397,0.62893915,3.833332,0.8400924,-2.019826,0.5838212,8.908594,4.0659842,0,1683969545.3377151
-1.2237909,0.35959417,-1.2164735,3.833332,0.8400924,-2.019826,0.5838212,8.908594,4.0659842,0,1683969545.3581593
-1.2237909,0.35959417,-1.2164735,3.833332,0.8400924,-2.019826,-5.245108,6.601903,-5.0139613,0,1683969545.3683825
-1.2237909,0.35959417,-1.2164735,-0.7173085,0.07849618,0.00992656,-5.245108,6.601903,-5.0139613,0,1683969545.378605
-1.19135,0.3603259,-1.1853131,-0.7173085,0.07849618,0.00992656,-5.245108,6.601903,-5.0139613,0,1683969545.3939316
-1.19135,0.3603259,-1.1853131,-0.99128157,-0.024281893,0.33460143,-5.245108,6.601903,-5.0139613,0,1683969545.3990498
-1.19135,0.3603259,-1.1853131,-0.99128157,-0.024281893,0.33460143,-5.2429447,6.6328664,-4.975216,0,1683969545.4041595
-1.1681778,0.33873928,-1.1502501,-0.99128157,-0.024281893,0.33460143,-5.2429447,6.6328664,-4.975216,0,1683969545.424608
-1.1681778,0.33873928,-1.1502501,-0.99128157,-0.024281893,0.33460143,-5.228541,6.685892,-4.919082,0,1683969545.4297261
-1.1681778,0.33873928,-1.1502501,-1.2628112,-0.06566802,0.6236934,-5.228541,6.685892,-4.919082,0,1683969545.4450386
-1.1362858,0.3196528,-1.1073817,-1.6310102,0.003970624,0.9494373,-5.228541,6.685892,-4.919082,0,1683969545.4502058
-1.1362858,0.3196528,-1.1073817,-1.6310102,0.003970624,0.9494373,-5.197415,6.7645392,-4.843966,0,1683969545.4757364
-1.1362858,0.3196528,-1.1073817,-1.6310102,0.003970624,0.9494373,-5.1422687,6.873545,-4.748426,0,1683969545.4961383
-1.0911003,0.30873755,-1.0780507,-1.6310102,0.003970624,0.9494373,-5.1422687,6.873545,-4.748426,0,1683969545.5063426
-1.0911003,0.30873755,-1.0780507,-1.9792033,0.14095716,1.1931726,-5.1422687,6.873545,-4.748426,0,1683969545.5114553
-1.0911003,0.30873755,-1.0780507,-2.6332874,0.44043383,1.5613716,-5.1422687,6.873545,-4.748426,0,1683969545.5165663
-1.0911003,0.30873755,-1.0780507,-2.6332874,0.44043383,1.5613716,-5.0582924,7.015396,-4.629692,0,1683969545.5318763
-0.9957288,0.29733443,-0.980606,-2.6332874,0.44043383,1.5613716,-5.0582924,7.015396,-4.629692,0,1683969545.5471601
-0.8877348,0.31593305,-0.8822466,-2.6332874,0.44043383,1.5613716,-5.0582924,7.015396,-4.629692,0,1683969545.5624752
-0.8877348,0.31593305,-0.8822466,-3.264922,0.7425067,1.8747455,-5.0582924,7.015396,-4.629692,0,1683969545.5777984
-0.8877348,0.31593305,-0.8822466,-3.264922,0.7425067,1.8747455,-4.876228,7.2849317,-4.4032106,0,1683969545.5828962
-0.8877348,0.31593305,-0.8822466,-3.264922,0.7425067,1.8747455,-4.720876,7.494436,-4.216972,0,1683969545.603332
-0.8877348,0.31593305,-0.8822466,-3.842037,1.0115929,2.126269,-4.720876,7.494436,-4.216972,0,1683969545.608436
-0.058296088,0.18196183,0.46716142,-3.842037,1.0115929,2.126269,-4.720876,7.494436,-4.216972,0,1683969545.6288574
-0.058296088,0.18196183,0.46716142,-5.1799846,2.0624337,4.141208,-4.720876,7.494436,-4.216972,0,1683969545.6339636
-0.058296088,0.18196183,0.46716142,-5.1799846,2.0624337,4.141208,-0.8206425,9.700999,1.205527,0,1683969545.6390684
-0.058296088,0.18196183,0.46716142,-5.1799846,2.0624337,4.141208,-0.4819345,9.654711,1.6704466,0,1683969545.6544285
-0.058296088,0.18196183,0.46716142,-5.1445546,2.1933117,4.2287145,-0.4819345,9.654711,1.6704466,0,1683969545.6595209
-0.027379647,0.2034265,0.6149749,-5.1445546,2.1933117,4.2287145,-0.4819345,9.654711,1.6704466,0,1683969545.6748643
0.07604102,0.21824445,0.73803085,-5.1445546,2.1933117,4.2287145,-0.4819345,9.654711,1.6704466,0,1683969545.6850855
0.07604102,0.21824445,0.73803085,-5.074152,2.4885123,4.2557454,-0.4819345,9.654711,1.6704466,0,1683969545.6953478
0.07604102,0.21824445,0.73803085,-5.074152,2.4885123,4.2557454,-0.14972286,9.573916,2.1339643,0,1683969545.7004683
0.16903426,0.25294158,0.75882477,-5.074152,2.4885123,4.2557454,-0.14972286,9.573916,2.1339643,0,1683969545.7362099
0.16903426,0.25294158,0.75882477,-5.074152,2.4885123,4.2557454,0.16795686,9.459248,2.594326,0,1683969545.741315
0.16903426,0.25294158,0.75882477,-5.006346,2.6729937,4.216192,0.16795686,9.459248,2.594326,0,1683969545.7464154
0.16903426,0.25294158,0.75882477,-5.006346,2.6729937,4.216192,0.46411303,9.312793,3.048377,0,1683969545.7668204
0.21531744,0.31623796,0.81846243,-5.006346,2.6729937,4.216192,0.46411303,9.312793,3.048377,0,1683969545.7770987
0.21531744,0.31623796,0.81846243,-4.9060116,2.8220446,4.1245623,0.46411303,9.312793,3.048377,0,1683969545.782269
0.20830485,0.3353854,0.89395463,-4.9060116,2.8220446,4.1245623,0.46411303,9.312793,3.048377,0,1683969545.7925677
0.20830485,0.3353854,0.89395463,-4.9060116,2.8220446,4.1245623,0.7322012,9.137731,3.4931173,0,1683969545.8080213
0.20830485,0.3353854,0.89395463,-4.8386636,2.9388726,4.0425534,0.7322012,9.137731,3.4931173,0,1683969545.8183646
0.20830485,0.3353854,0.89395463,-4.69679,3.0729575,3.8316522,0.7322012,9.137731,3.4931173,0,1683969545.8286853
0.23031832,0.32501897,0.94542104,-4.69679,3.0729575,3.8316522,0.7322012,9.137731,3.4931173,0,1683969545.8389826
0.23031832,0.32501897,0.94542104,-4.69679,3.0729575,3.8316522,1.0718644,8.826909,4.144019,0,1683969545.8493094
0.2608079,0.30904242,0.92139524,-4.69679,3.0729575,3.8316522,1.0718644,8.826909,4.144019,0,1683969545.8596628
0.2608079,0.30904242,0.92139524,-4.69679,3.0729575,3.8316522,1.2529129,8.594391,4.5610046,0,1683969545.8699372
0.10604277,0.7108951,0.957251,-4.69679,3.0729575,3.8316522,1.2529129,8.594391,4.5610046,0,1683969545.8956997
0.10604277,0.7108951,0.957251,0.8032878,0.6065892,0.75777835,1.2529129,8.594391,4.5610046,0,1683969545.9060185
0.10604277,0.7108951,0.957251,0.8032878,0.6065892,0.75777835,-0.21263517,4.3196187,8.805214,0,1683969545.911195
0.098054506,0.6834545,0.9853624,0.8032878,0.6065892,0.75777835,-0.21263517,4.3196187,8.805214,0,1683969545.921514
0.098054506,0.6834545,0.9853624,0.8009971,0.6052147,0.41615194,-0.21263517,4.3196187,8.805214,0,1683969545.9318497
0.098054506,0.6834545,0.9853624,0.8009971,0.6052147,0.41615194,-0.23044842,4.388946,8.770414,0,1683969545.9370217
0.098054506,0.6834545,0.9853624,0.8009971,0.6052147,0.41615194,-0.26011252,4.4561176,8.735643,0,1683969545.9731367
0.03725827,0.5714358,0.97560567,0.8009971,0.6052147,0.41615194,-0.26011252,4.4561176,8.735643,0,1683969545.9834619
0.03725827,0.5714358,0.97560567,0.79779,0.5908594,0.20647246,-0.26011252,4.4561176,8.735643,0,1683969545.9886365
-0.032197,0.4818574,1.0079247,0.79779,0.5908594,0.20647246,-0.26011252,4.4561176,8.735643,0,1683969546.009302
-0.032197,0.4818574,1.0079247,0.7863363,0.64476824,0.21838433,-0.26011252,4.4561176,8.735643,0,1683969546.0144708
-0.032197,0.4818574,1.0079247,0.7863363,0.64476824,0.21838433,-0.29775456,4.5203934,8.70135,0,1683969546.0196376
-0.032197,0.4818574,1.0079247,0.77411896,0.7273878,0.31673363,-0.29775456,4.5203934,8.70135,0,1683969546.0351408
-0.069577225,0.45673394,1.039207,0.77411896,0.7273878,0.31673363,-0.29775456,4.5203934,8.70135,0,1683969546.0454733
-0.069577225,0.45673394,1.039207,0.77411896,0.7273878,0.31673363,-0.3395629,4.5819893,8.667536,0,1683969546.0609696
-0.069577225,0.45673394,1.039207,0.77411896,0.7273878,0.31673363,-0.40903395,4.67157,8.616568,0,1683969546.0712192
-0.069577225,0.45673394,1.039207,0.7519751,0.915687,0.4961753,-0.40903395,4.67157,8.616568,0,1683969546.0866828
-0.05408852,0.47521064,1.0571959,0.7519751,0.915687,0.4961753,-0.40903395,4.67157,8.616568,0,1683969546.0918472
-0.05408852,0.47521064,1.0571959,0.7467828,1.0277808,0.6102544,-0.40903395,4.67157,8.616568,0,1683969546.1124353
0.0071955416,0.49338245,0.9625562,0.7467828,1.0277808,0.6102544,-0.40903395,4.67157,8.616568,0,1683969546.122763
0.0071955416,0.49338245,0.9625562,0.7467828,1.0277808,0.6102544,-0.46064836,4.73089,8.581526,0,1683969546.127928
0.0071955416,0.49338245,0.9625562,0.7467828,1.0277808,0.6102544,-0.51201,4.7914786,8.544921,0,1683969546.1433556
0.0071955416,0.49338245,0.9625562,0.7480045,0.98990715,0.6507242,-0.51201,4.7914786,8.544921,0,1683969546.1588075
0.0071955416,0.49338245,0.9625562,0.18478674,0.68218374,0.021991149,-0.51201,4.7914786,8.544921,0,1683969546.163931
-0.08293167,0.4751497,0.94273794,0.18478674,0.68218374,0.021991149,-0.51201,4.7914786,8.544921,0,1683969546.1793723
-0.08293167,0.4751497,0.94273794,0.18478674,0.68218374,0.021991149,-1.1172837,5.323173,8.164043,0,1683969546.1897032
-0.08293167,0.4751497,0.94273794,0.26511553,0.6953174,0.076052725,-1.1172837,5.323173,8.164043,0,1683969546.2103555
-0.08293167,0.4751497,0.94273794,0.26511553,0.6953174,0.076052725,-1.141939,5.3293304,8.156611,0,1683969546.2155178
-0.10598179,0.4604537,0.67680776,0.26511553,0.6953174,0.076052725,-1.141939,5.3293304,8.156611,0,1683969546.2206771
-0.20598765,0.57472867,0.5311286,0.26511553,0.6953174,0.076052725,-1.141939,5.3293304,8.156611,0,1683969546.2412236
-0.20598765,0.57472867,0.5311286,0.26511553,0.6953174,0.076052725,-1.1975961,5.3723025,8.120359,0,1683969546.2463799
-0.20598765,0.57472867,0.5311286,0.47662762,0.11636983,0.100792766,-1.1975961,5.3723025,8.120359,0,1683969546.251546
