acc_x,acc_y,acc_z,gyr_x,gyr_y,gyr_z,grav_x,grav_y,grav_z,label,timestamp
-0.42801276,0.29532212,0.6190605,0.14034629,-0.57833666,-2.2950208,-3.626317,6.4197006,6.4709654,0,1683969476.5955102
-0.57271636,0.22684251,0.6537577,0.16890424,-0.68539083,-2.1027508,-3.8727422,6.2325187,6.511043,0,1683969476.6306968
-0.63125634,0.22300081,0.70089453,0.21242839,-0.7680103,-1.9752327,-3.9541528,6.161423,6.5297513,0,1683969476.6358817
-0.6513185,0.23336728,0.7607761,0.21242839,-0.7680103,-1.9752327,-3.9541528,6.161423,6.5297513,0,1683969476.6410043
-0.6513185,0.23336728,0.7607761,0.33429602,-0.84864455,-1.817935,-3.9541528,6.161423,6.5297513,0,1683969476.6511877
-0.6513185,0.23336728,0.7607761,0.33429602,-0.84864455,-1.817935,-4.0221214,6.097092,6.548597,0,1683969476.656314
-0.6513185,0.23336728,0.7607761,0.33429602,-0.84864455,-1.817935,-4.078063,6.042591,6.564497,0,1683969476.671702
-0.6513185,0.23336728,0.7607761,0.45112398,-0.8730792,-1.713477,-4.078063,6.042591,6.564497,0,1683969476.6973302
-0.6623557,0.2537953,0.7916316,0.45112398,-0.8730792,-1.713477,-4.078063,6.042591,6.564497,0,1683969476.702457
-0.6623557,0.2537953,0.7916316,0.5129741,-0.84421575,-1.6523905,-4.078063,6.042591,6.564497,0,1683969476.7075796
-0.67613703,0.27123535,0.80559576,0.5129741,-0.84421575,-1.6523905,-4.078063,6.042591,6.564497,0,1683969476.7280984
-0.67613703,0.27123535,0.80559576,0.5129741,-0.84421575,-1.6523905,-4.1260448,5.9980383,6.5753636,0,1683969476.733228
-0.67613703,0.27123535,0.80559576,0.50442195,-0.7115053,-1.5957327,-4.1260448,5.9980383,6.5753636,0,1683969476.743461
-0.71559054,0.28026026,0.78791183,0.50442195,-0.7115053,-1.5957327,-4.1260448,5.9980383,6.5753636,0,1683969476.7485878
-0.71559054,0.28026026,0.78791183,0.50442195,-0.7115053,-1.5957327,-4.172748,5.9594235,6.581001,0,1683969476.7588232
-0.71559054,0.28026026,0.78791183,0.3399465,-0.54305923,-1.5254833,-4.172748,5.9594235,6.581001,0,1683969476.7690847
-0.80010766,0.26239336,0.7390675,0.3399465,-0.54305923,-1.5254833,-4.172748,5.9594235,6.581001,0,1683969476.7844284
-0.80010766,0.26239336,0.7390675,0.3399465,-0.54305923,-1.5254833,-4.252409,5.8985276,6.5848684,0,1683969476.7895246
-0.87810004,0.2365382,0.7308963,0.3399465,-0.54305923,-1.5254833,-4.252409,5.8985276,6.5848684,0,1683969476.8100526
-0.87810004,0.2365382,0.7308963,0.3399465,-0.54305923,-1.5254833,-4.3111696,5.8485174,6.5912647,0,1683969476.8151991
-0.87810004,0.2365382,0.7308963,0.12889257,-0.4251622,-1.408808,-4.3111696,5.8485174,6.5912647,0,1683969476.8203297
-0.87810004,0.2365382,0.7308963,-0.12935072,-0.31474832,-1.2241739,-4.3111696,5.8485174,6.5912647,0,1683969476.8459828
-0.9269444,0.23324533,0.7868142,-0.12935072,-0.31474832,-1.2241739,-4.3111696,5.8485174,6.5912647,0,1683969476.8562489
-0.9269444,0.23324533,0.7868142,-0.12935072,-0.31474832,-1.2241739,-4.3691416,5.7896748,6.6050262,0,1683969476.861381
-0.9392012,0.22861089,0.85456204,-0.12935072,-0.31474832,-1.2241739,-4.3691416,5.7896748,6.6050262,0,1683969476.8870285
-0.9392012,0.22861089,0.85456204,-0.12935072,-0.31474832,-1.2241739,-4.4232926,5.7242126,6.6260085,0,1683969476.8973002
-0.9392012,0.22861089,0.85456204,-0.26099217,-0.22907446,-1.0630583,-4.4232926,5.7242126,6.6260085,0,1683969476.9024289
-0.9392012,0.22861089,0.85456204,-0.26099217,-0.22907446,-1.0630583,-4.495353,5.623957,6.663258,0,1683969476.9075577
-0.9392012,0.22861089,0.85456204,-0.31948254,-0.13790283,-0.8686504,-4.495353,5.623957,6.663258,0,1683969476.917811
-0.9477383,0.21446373,0.9407256,-0.31948254,-0.13790283,-0.8686504,-4.495353,5.623957,6.663258,0,1683969476.9280765
-0.9695687,0.17348573,0.9891431,-0.31948254,-0.13790283,-0.8686504,-4.495353,5.623957,6.663258,0,1683969476.9537265
-0.9695687,0.17348573,0.9891431,-0.27305678,-0.10629055,-0.70509124,-4.495353,5.623957,6.663258,0,1683969476.9588614
-0.980606,0.22019579,1.0698185,0.034972034,-0.09605856,-0.29840767,-4.5683846,5.5124474,6.7066307,0,1683969476.9640925
-0.980606,0.22019579,1.0698185,0.034972034,-0.09605856,-0.29840767,-4.5879064,5.4818335,6.718388,0,1683969476.9897227
-0.980606,0.22019579,1.0698185,0.034972034,-0.09605856,-0.29840767,-4.602271,5.4668007,6.720811,0,1683969477.005106
-0.9808499,0.22854991,1.092076,0.034972034,-0.09605856,-0.29840767,-4.602271,5.4668007,6.720811,0,1683969477.0102403
-0.9808499,0.22854991,1.092076,0.23808473,-0.0154243475,-0.16340645,-4.602271,5.4668007,6.720811,0,1683969477.0153291
-0.9808499,0.22854991,1.092076,0.33124167,0.09483683,-0.08903361,-4.602271,5.4668007,6.720811,0,1683969477.0460634
-0.9919481,0.18830366,1.0896977,0.33124167,0.09483683,-0.08903361,-4.602271,5.4668007,6.720811,0,1683969477.0511672
-0.9919481,0.18830366,1.0896977,0.33124167,0.09483683,-0.08903361,-4.615933,5.46333,6.7142615,0,1683969477.0563014
-0.9919481,0.18830366,1.0896977,0.4485278,0.2612976,0.1414153,-4.615933,5.46333,6.7142615,0,1683969477.0819473
-1.0181692,0.13427612,1.0223768,0.4485278,0.2612976,0.1414153,-4.615933,5.46333,6.7142615,0,1683969477.0922115
-1.0181692,0.13427612,1.0223768,0.4485278,0.2612976,0.1414153,-4.641836,5.4797363,6.68296,0,1683969477.0973406
-1.0181692,0.13427612,1.0223768,0.50411654,0.410196,0.45081854,-4.641836,5.4797363,6.68296,0,1683969477.1178062
-1.0181692,0.13427612,1.0223768,0.50411654,0.410196,0.45081854,-4.656876,5.5073166,6.6497426,0,1683969477.1229317
-0.99219203,0.13598356,0.95273846,0.50411654,0.410196,0.45081854,-4.656876,5.5073166,6.6497426,0,1683969477.133156
-0.99219203,0.13598356,0.95273846,0.5129741,0.49831334,0.66889745,-4.656876,5.5073166,6.6497426,0,1683969477.1434252
-0.99219203,0.13598356,0.95273846,0.5129741,0.49831334,0.66889745,-4.6663313,5.5475554,6.6095457,0,1683969477.1485527
-0.94542104,0.17799819,0.90352833,0.5129741,0.49831334,0.66889745,-4.6663313,5.5475554,6.6095457,0,1683969477.1536832
-0.90505284,0.23117203,0.85468405,0.5129741,0.49831334,0.66889745,-4.6663313,5.5475554,6.6095457,0,1683969477.1895616
-0.90505284,0.23117203,0.85468405,0.5128214,0.54428095,0.80771655,-4.6663313,5.5475554,6.6095457,0,1683969477.1946967
-0.90505284,0.23117203,0.85468405,0.5128214,0.54428095,0.80771655,-4.6696267,5.597765,6.564734,0,1683969477.2049165
-0.90505284,0.23117203,0.85468405,0.5206099,0.52763486,0.9140071,-4.6696267,5.597765,6.564734,0,1683969477.2100506
-0.90505284,0.23117203,0.85468405,0.5206099,0.52763486,0.9140071,-4.667858,5.654137,6.51751,0,1683969477.2203002
-0.8851736,0.24745347,0.8116937,0.5206099,0.52763486,0.9140071,-4.667858,5.654137,6.51751,0,1683969477.2356892
-0.8851736,0.24745347,0.8116937,0.5206099,0.52763486,0.9140071,-4.654197,5.7463293,6.4462605,0,1683969477.2459545
-0.8851736,0.24745347,0.8116937,0.538325,0.4999932,1.0117456,-4.654197,5.7463293,6.4462605,0,1683969477.2664378
-0.87834394,0.21507353,0.8156574,0.538325,0.4999932,1.0117456,-4.654197,5.7463293,6.4462605,0,1683969477.2715728
-0.87834394,0.21507353,0.8156574,0.538325,0.4999932,1.0117456,-4.636415,5.8132677,6.398882,0,1683969477.281839
-0.8757219,0.14513041,0.86718476,0.538325,0.4999932,1.0117456,-4.636415,5.8132677,6.398882,0,1683969477.3023567
-0.8757219,0.14513041,0.86718476,0.5520695,0.59666264,1.2237158,-4.636415,5.8132677,6.398882,0,1683969477.3126156
-0.8757219,0.14513041,0.86718476,0.5520695,0.59666264,1.2237158,-4.6133084,5.887321,6.3476725,0,1683969477.3228745
-0.86681885,0.116592176,0.85767204,0.5520695,0.59666264,1.2237158,-4.6133084,5.887321,6.3476725,0,1683969477.3331409
-0.86681885,0.116592176,0.85767204,0.5652031,0.7279987,1.4842498,-4.6133084,5.887321,6.3476725,0,1683969477.3382754
-0.86681885,0.116592176,0.85767204,0.61590487,0.796721,1.6975945,-4.6133084,5.887321,6.3476725,0,1683969477.3690486
-0.86681885,0.116592176,0.85767204,0.61590487,0.796721,1.6975945,-4.5821056,5.9726,6.2903466,0,1683969477.3792765
-0.8364513,0.12580003,0.8480983,0.61590487,0.796721,1.6975945,-4.5821056,5.9726,6.2903466,0,1683969477.3844066
-0.8364513,0.12580003,0.8480983,0.61590487,0.796721,1.6975945,-4.5383215,6.0733013,6.225332,0,1683969477.3946288
-0.8364513,0.12580003,0.8480983,0.7554876,0.8516989,1.9909625,-4.5383215,6.0733013,6.225332,0,1683969477.4151793
-0.73455507,0.18488884,0.7952903,0.7554876,0.8516989,1.9909625,-4.5383215,6.0733013,6.225332,0,1683969477.4203043
-0.73455507,0.18488884,0.7952903,0.90133166,0.8338311,2.1540635,-4.5383215,6.0733013,6.225332,0,1683969477.4254417
-0.626439,0.2619665,0.76230055,0.90133166,0.8338311,2.1540635,-4.5383215,6.0733013,6.225332,0,1683969477.445951
-0.626439,0.2619665,0.76230055,0.90133166,0.8338311,2.1540635,-4.447561,6.251118,6.113824,0,1683969477.4510832
-0.626439,0.2619665,0.76230055,1.0157162,0.8388707,2.2414174,-4.447561,6.251118,6.113824,0,1683969477.471596
-0.5560691,0.30660325,0.7446776,1.0157162,0.8388707,2.2414174,-4.447561,6.251118,6.113824,0,1683969477.4767263
-0.5560691,0.30660325,0.7446776,1.0157162,0.8388707,2.2414174,-4.3731046,6.3821826,6.0315704,0,1683969477.4818575
-0.5560691,0.30660325,0.7446776,1.0157162,0.8388707,2.2414174,-4.2917085,6.5182934,5.943837,0,1683969477.5075002
-0.5560691,0.30660325,0.7446776,1.065349,0.8762862,2.3012822,-4.2917085,6.5182934,5.943837,0,1683969477.5177636
-0.526982,0.31770146,0.7109561,1.065349,0.8762862,2.3012822,-4.2917085,6.5182934,5.943837,0,1683969477.528021
-0.48752844,0.32050648,0.6646729,1.065349,0.8762862,2.3012822,-4.2917085,6.5182934,5.943837,0,1683969477.5433888
-0.48752844,0.32050648,0.6646729,1.1064297,0.91247994,2.3538165,-4.2917085,6.5182934,5.943837,0,1683969477.553635
-0.48752844,0.32050648,0.6646729,1.1064297,0.91247994,2.3538165,-4.2048655,6.6571918,5.8512406,0,1683969477.5587687
-0.45899022,0.3313608,0.5839365,1.1064297,0.91247994,2.3538165,-4.2048655,6.6571918,5.8512406,0,1683969477.5792422
-0.45899022,0.3313608,0.5839365,1.0856602,1.0228939,2.4092526,-4.2048655,6.6571918,5.8512406,0,1683969477.5843616
-0.45899022,0.3313608,0.5839365,1.0856602,1.0228939,2.4092526,-4.113516,6.797658,5.753864,0,1683969477.5894892
-0.45899022,0.3313608,0.5839365,1.0856602,1.0228939,2.4092526,-3.9747539,7.003069,5.6030765,0,1683969477.6048756
-0.45899022,0.3313608,0.5839365,0.9521862,1.1571314,2.4578164,-3.9747539,7.003069,5.6030765,0,1683969477.6151388
-0.4680151,0.31020102,0.5025903,0.9521862,1.1571314,2.4578164,-3.9747539,7.003069,5.6030765,0,1683969477.6202707
-0.4680151,0.31020102,0.5025903,0.79809546,1.25319,2.513863,-3.9747539,7.003069,5.6030765,0,1683969477.6458952
-0.4680151,0.31020102,0.5025903,0.79809546,1.25319,2.513863,-3.92908,7.067867,5.5537114,0,1683969477.6510332
-0.4806378,0.28379703,0.43959883,0.79809546,1.25319,2.513863,-3.92908,7.067867,5.5537114,0,1683969477.6663823
-0.4806378,0.28379703,0.43959883,0.44516805,1.36788,2.7320948,-3.92908,7.067867,5.5537114,0,1683969477.6868906
-0.52521354,0.22233005,0.35526463,0.44516805,1.36788,2.7320948,-3.92908,7.067867,5.5537114,0,1683969477.6920235
-0.52521354,0.22233005,0.35526463,0.44516805,1.36788,2.7320948,-3.7912536,7.2446566,5.4200974,0,1683969477.6971548
-0.5153959,0.21123183,0.35050824,0.44516805,1.36788,2.7320948,-3.7912536,7.2446566,5.4200974,0,1683969477.7278912
-0.5153959,0.21123183,0.35050824,0.44516805,1.36788,2.7320948,-3.6870353,7.3517666,5.3472805,0,1683969477.73814
-0.5153959,0.21123183,0.35050824,0.30787608,1.3393221,2.9168816,-3.6870353,7.3517666,5.3472805,0,1683969477.743235
-0.39209604,0.2455631,0.37532678,0.30787608,1.3393221,2.9168816,-3.6870353,7.3517666,5.3472805,0,1683969477.753454
-0.39209604,0.2455631,0.37532678,0.20570888,1.2133311,3.226743,-3.6870353,7.3517666,5.3472805,0,1683969477.763711
-0.39209604,0.2455631,0.37532678,0.20570888,1.2133311,3.226743,-3.5594583,7.456145,5.288881,0,1683969477.7790885
-0.22196417,0.37185097,0.37990022,0.20570888,1.2133311,3.226743,-3.5594583,7.456145,5.288881,0,1683969477.794476
-0.22196417,0.37185097,0.37990022,0.20570888,1.2133311,3.226743,-3.3138447,7.617519,5.2180405,0,1683969477.7996016
-0.22196417,0.37185097,0.37990022,0.2593123,1.0033462,3.418402,-3.3138447,7.617519,5.2180405,0,1683969477.8047338
-0.109884456,0.46411243,0.39526698,0.2593123,1.0033462,3.418402,-3.3138447,7.617519,5.2180405,0,1683969477.8355136
-0.109884456,0.46411243,0.39526698,0.40775254,0.7528914,3.438713,-3.3138447,7.617519,5.2180405,0,1683969477.8457751
-0.109884456,0.46411243,0.39526698,0.40775254,0.7528914,3.438713,-3.1162298,7.730692,5.1731653,0,1683969477.8509102
-0.109884456,0.46411243,0.39526698,0.6559166,0.49434268,3.3754885,-3.1162298,7.730692,5.1731653,0,1683969477.8663087
-0.109884456,0.46411243,0.39526698,0.6559166,0.49434268,3.3754885,-2.9009604,7.8458714,5.124729,0,1683969477.8816998
-0.060491335,0.49685827,0.43130565,0.6559166,0.49434268,3.3754885,-2.9009604,7.8458714,5.124729,0,1683969477.8868265
-0.032745812,0.5037489,0.43972078,0.6559166,0.49434268,3.3754885,-2.9009604,7.8458714,5.124729,0,1683969477.891966
-0.032745812,0.5037489,0.43972078,0.6559166,0.49434268,3.3754885,-2.67652,7.9612827,5.068561,0,1683969477.9124603
-0.032745812,0.5037489,0.43972078,0.82604253,0.44012842,3.2876768,-2.67652,7.9612827,5.068561,0,1683969477.9175913
-0.032745812,0.5037489,0.43972078,-0.35918877,0.674548,2.521041,-2.67652,7.9612827,5.068561,0,1683969477.943197
0.33081198,0.8075471,0.41532913,-0.35918877,0.674548,2.521041,-2.67652,7.9612827,5.068561,0,1683969477.9483304
0.33081198,0.8075471,0.41532913,-0.35918877,0.674548,2.521041,0.0257526,8.515561,4.870388,0,1683969477.9534597
0.38422972,0.86242837,0.4349034,-0.35918877,0.674548,2.521041,0.0257526,8.515561,4.870388,0,1683969477.96372
0.38422972,0.86242837,0.4349034,-0.4831944,0.7086037,2.3762658,0.0257526,8.515561,4.870388,0,1683969477.968853
0.38422972,0.86242837,0.4349034,-0.4831944,0.7086037,2.3762658,0.112430856,8.50687,4.8843265,0,1683969477.973985
0.38422972,0.86242837,0.4349034,-0.4831944,0.7086037,2.3762658,0.35067976,8.467168,4.9416804,0,1683969478.0098565
0.46606377,1.0003633,0.4921019,-0.4831944,0.7086037,2.3762658,0.35067976,8.467168,4.9416804,0,1683969478.020105
0.46606377,1.0003633,0.4921019,-0.6469063,0.7602218,2.1067214,0.35067976,8.467168,4.9416804,0,1683969478.030361
0.46606377,1.0003633,0.4921019,-0.6469063,0.7602218,2.1067214,0.48562065,8.430136,4.993306,0,1683969478.0457404
0.46606377,1.0003633,0.4921019,-0.73823065,0.77824235,1.870622,0.48562065,8.430136,4.993306,0,1683969478.050831
0.4803939,1.0266452,0.5246038,-0.73823065,0.77824235,1.870622,0.48562065,8.430136,4.993306,0,1683969478.0662205
0.4803939,1.0266452,0.5246038,-0.788627,0.8188649,1.7053831,0.48562065,8.430136,4.993306,0,1683969478.0713131
0.4803939,1.0266452,0.5246038,-0.788627,0.8188649,1.7053831,0.6004316,8.387124,5.052896,0,1683969478.0867028
0.4764912,0.9915823,0.58661956,-0.788627,0.8188649,1.7053831,0.6004316,8.387124,5.052896,0,1683969478.0918367
0.4764912,0.9915823,0.58661956,-0.788627,0.8188649,1.7053831,0.7473847,8.315842,5.150175,0,1683969478.1071868
0.4764912,0.9915823,0.58661956,-0.7797695,0.8384125,1.6420058,0.7473847,8.315842,5.150175,0,1683969478.127709
0.48447952,0.9786547,0.6254633,-0.7797695,0.8384125,1.6420058,0.7473847,8.315842,5.150175,0,1683969478.1379163
0.48447952,0.9786547,0.6254633,-0.64461553,0.79519385,1.6404786,0.7473847,8.315842,5.150175,0,1683969478.1635556
0.48447952,0.9786547,0.6254633,-0.64461553,0.79519385,1.6404786,0.84071213,8.267905,5.212588,0,1683969478.1686835
0.54850763,1.0109736,0.6678439,-0.64461553,0.79519385,1.6404786,0.84071213,8.267905,5.212588,0,1683969478.1738112
0.6236949,1.0634158,0.66089225,-0.64461553,0.79519385,1.6404786,0.84071213,8.267905,5.212588,0,1683969478.1840312
0.6236949,1.0634158,0.66089225,-0.48243082,0.7460192,1.6221527,0.84071213,8.267905,5.212588,0,1683969478.1891646
0.6236949,1.0634158,0.66089225,-0.48243082,0.7460192,1.6221527,0.93470114,8.224066,5.2656612,0,1683969478.1994216
0.20982932,0.7290669,0.36014298,-0.48243082,0.7460192,1.6221527,0.93470114,8.224066,5.2656612,0,1683969478.2096467
0.20982932,0.7290669,0.36014298,-0.10415252,-0.79183406,-2.3819163,0.93470114,8.224066,5.2656612,0,1683969478.2250342
0.20982932,0.7290669,0.36014298,-0.10415252,-0.79183406,-2.3819163,0.10545541,8.559993,4.7907743,0,1683969478.2301574
0.15842387,0.676259,0.37886357,-0.10415252,-0.79183406,-2.3819163,0.10545541,8.559993,4.7907743,0,1683969478.2403789
0.15842387,0.676259,0.37886357,-0.10415252,-0.79183406,-2.3819163,-0.04018733,8.554311,4.8019037,0,1683969478.2506394
0.15842387,0.676259,0.37886357,-0.23930646,-0.7486154,-2.3597724,-0.04018733,8.554311,4.8019037,0,1683969478.2557693
0.15842387,0.676259,0.37886357,-0.33673948,-0.72326446,-2.3043363,-0.04018733,8.554311,4.8019037,0,1683969478.2968063
0.124885336,0.6671731,0.4241711,-0.33673948,-0.72326446,-2.3043363,-0.04018733,8.554311,4.8019037,0,1683969478.301937
0.124885336,0.6671731,0.4241711,-0.33673948,-0.72326446,-2.3043363,-0.18478459,8.539724,4.824425,0,1683969478.3070648
0.124885336,0.6671731,0.4241711,-0.34040466,-0.73914695,-2.2811236,-0.18478459,8.539724,4.824425,0,1683969478.322413
0.10957957,0.6575384,0.4425258,-0.34040466,-0.73914695,-2.2811236,-0.18478459,8.539724,4.824425,0,1683969478.3326793
0.10957957,0.6575384,0.4425258,-0.34040466,-0.73914695,-2.2811236,-0.32701635,8.51885,4.853696,0,1683969478.3378024
0.10957957,0.6575384,0.4425258,-0.27382034,-0.84299403,-2.2594378,-0.32701635,8.51885,4.853696,0,1683969478.348063
0.10957957,0.6575384,0.4425258,-0.27382034,-0.84299403,-2.2594378,-0.46438268,8.495432,4.8834515,0,1683969478.3582864
0.108055085,0.658514,0.447831,-0.27382034,-0.84299403,-2.2594378,-0.46438268,8.495432,4.8834515,0,1683969478.3788035
0.108055085,0.658514,0.447831,-0.15134187,-1.0065532,-2.2908974,-0.46438268,8.495432,4.8834515,0,1683969478.3839476
0.12171442,0.6832106,0.44978234,-0.15134187,-1.0065532,-2.2908974,-0.46438268,8.495432,4.8834515,0,1683969478.394211
0.12171442,0.6832106,0.44978234,-0.15134187,-1.0065532,-2.2908974,-0.59546965,8.472117,4.909659,0,1683969478.4095666
0.11945819,0.6918696,0.42606148,-0.15134187,-1.0065532,-2.2908974,-0.59546965,8.472117,4.909659,0,1683969478.4351847
0.11945819,0.6918696,0.42606148,-0.06307184,-1.1363621,-2.3580925,-0.59546965,8.472117,4.909659,0,1683969478.4403174
0.11945819,0.6918696,0.42606148,-0.06307184,-1.1363621,-2.3580925,-0.78375703,8.440452,4.9376745,0,1683969478.4454498
0.11945819,0.6918696,0.42606148,-0.0346666,-1.2702943,-2.4512496,-0.78375703,8.440452,4.9376745,0,1683969478.4608402
0.11549455,0.69741875,0.37032646,-0.0346666,-1.2702943,-2.4512496,-0.78375703,8.440452,4.9376745,0,1683969478.471114
-0.44179407,0.37172902,0.6173531,-0.0346666,-1.2702943,-2.4512496,-0.78375703,8.440452,4.9376745,0,1683969478.4813752
-0.44179407,0.37172902,0.6173531,-0.6988298,-1.2105823,-2.172237,-0.78375703,8.440452,4.9376745,0,1683969478.4916403
-0.44179407,0.37172902,0.6173531,-0.6988298,-1.2105823,-2.172237,-2.8568456,7.2831182,5.918678,0,1683969478.507029
-0.44179407,0.37172902,0.6173531,-0.7101309,-1.1559098,-2.0176878,-2.8568456,7.2831182,5.918678,0,1683969478.512161
-0.46252698,0.3635578,0.6448547,-0.7101309,-1.1559098,-2.0176878,-2.8568456,7.2831182,5.918678,0,1683969478.5172968
-0.46252698,0.3635578,0.6448547,-0.7101309,-1.1559098,-2.0176878,-2.940072,7.1821012,6.0007925,0,1683969478.5224254
-0.48179638,0.38057098,0.673271,-0.7101309,-1.1559098,-2.0176878,-2.940072,7.1821012,6.0007925,0,1683969478.553146
-0.48179638,0.38057098,0.673271,-0.7101309,-1.1559098,-2.0176878,-3.046058,7.0333595,6.1228666,0,1683969478.5582852
-0.48179638,0.38057098,0.673271,-0.698219,-1.1343768,-1.8457294,-3.046058,7.0333595,6.1228666,0,1683969478.5736327
-0.4806378,0.4024625,0.70418745,-0.698219,-1.1343768,-1.8457294,-3.046058,7.0333595,6.1228666,0,1683969478.5890188
-0.4806378,0.4024625,0.70418745,-0.644921,-1.1592696,-1.7440202,-3.046058,7.0333595,6.1228666,0,1683969478.5991988
-0.4806378,0.4024625,0.70418745,-0.644921,-1.1592696,-1.7440202,-3.1029637,6.938353,6.2021756,0,1683969478.6042538
-0.48569906,0.42478088,0.71961516,-0.644921,-1.1592696,-1.7440202,-3.1029637,6.938353,6.2021756,0,1683969478.6196446
-0.48569906,0.42478088,0.71961516,-0.54702985,-1.2356277,-1.6759088,-3.1029637,6.938353,6.2021756,0,1683969478.6299872
-0.48569906,0.42478088,0.71961516,-0.54702985,-1.2356277,-1.6759088,-3.1273928,6.892677,6.2407155,0,1683969478.6351218
-0.48569906,0.42478088,0.71961516,-0.42653665,-1.3610078,-1.6355917,-3.1273928,6.892677,6.2407155,0,1683969478.6556454
-0.48569906,0.42478088,0.71961516,-0.42653665,-1.3610078,-1.6355917,-3.1835992,6.766288,6.349659,0,1683969478.6710396
-0.48685768,0.45051408,0.73504287,-0.42653665,-1.3610078,-1.6355917,-3.1835992,6.766288,6.349659,0,1683969478.6812592
-0.5008829,0.48204032,0.7707157,-0.42653665,-1.3610078,-1.6355917,-3.1835992,6.766288,6.349659,0,1683969478.6966388
-0.5008829,0.48204032,0.7707157,-0.42653665,-1.3610078,-1.6355917,-3.2059302,6.691748,6.417057,0,1683969478.7171545
-0.5008829,0.48204032,0.7707157,-0.2649628,-1.5438092,-1.6314683,-3.2059302,6.691748,6.417057,0,1683969478.7222881
-0.5008829,0.48204032,0.7707157,-0.1797471,-1.641395,-1.6340646,-3.2059302,6.691748,6.417057,0,1683969478.7325456
-0.54423904,0.47728392,0.8111449,-0.1797471,-1.641395,-1.6340646,-3.2059302,6.691748,6.417057,0,1683969478.7428114
-0.54423904,0.47728392,0.8111449,-0.1797471,-1.641395,-1.6340646,-3.2185152,6.623932,6.480802,0,1683969478.747949
-0.5397876,0.44033056,0.7566295,-0.1797471,-1.641395,-1.6340646,-3.2185152,6.623932,6.480802,0,1683969478.7530808
-0.5397876,0.44033056,0.7566295,0.86406887,0.6177375,1.5925257,-3.2185152,6.623932,6.480802,0,1683969478.7633107
-0.5397876,0.44033056,0.7566295,0.86406887,0.6177375,1.5925257,-3.30317,6.6026316,6.4599104,0,1683969478.768439
-0.5397876,0.44033056,0.7566295,0.8929323,0.625526,1.6487253,-3.30317,6.6026316,6.4599104,0,1683969478.8043048
-0.4905774,0.4564291,0.76791066,0.8929323,0.625526,1.6487253,-3.30317,6.6026316,6.4599104,0,1683969478.8094363
-0.4905774,0.4564291,0.76791066,0.8929323,0.625526,1.6487253,-3.2478573,6.695101,6.3924303,0,1683969478.8196702
-0.4905774,0.4564291,0.76791066,0.8929323,0.625526,1.6487253,-3.1870232,6.7897882,6.3227983,0,1683969478.8299296
-0.4630758,0.44648945,0.804925,0.8929323,0.625526,1.6487253,-3.1870232,6.7897882,6.3227983,0,1683969478.8401918
-0.4630758,0.44648945,0.804925,0.9816604,0.6609562,1.7150042,-3.1870232,6.7897882,6.3227983,0,1683969478.8453245
-0.4630758,0.44648945,0.804925,0.9816604,0.6609562,1.7150042,-3.0885246,6.9387736,6.208909,0,1683969478.8760977
-0.4630758,0.44648945,0.804925,1.0922271,0.72097373,1.7933476,-3.0885246,6.9387736,6.208909,0,1683969478.8862898
-0.43819633,0.41179234,0.81431586,1.0922271,0.72097373,1.7933476,-3.0885246,6.9387736,6.208909,0,1683969478.8913836
-0.42520773,0.3986208,0.7868142,1.0922271,0.72097373,1.7933476,-3.0885246,6.9387736,6.208909,0,1683969478.901583
-0.42520773,0.3986208,0.7868142,1.0922271,0.72097373,1.7933476,-3.0538301,6.9916487,6.1666107,0,1683969478.9067023
-0.42520773,0.3986208,0.7868142,1.1746938,0.7820602,1.8606955,-3.0538301,6.9916487,6.1666107,0,1683969478.9118388
-0.40154782,0.40319425,0.7036996,1.1746938,0.7820602,1.8606955,-3.0538301,6.9916487,6.1666107,0,1683969478.9323134
-0.40154782,0.40319425,0.7036996,1.1746938,0.7820602,1.8606955,-2.9445672,7.158888,6.026273,0,1683969478.9425728
-0.40154782,0.40319425,0.7036996,1.2429581,0.88621277,1.9850066,-2.9445672,7.158888,6.026273,0,1683969478.9528298
-0.36276507,0.42807376,0.61765796,1.2429581,0.88621277,1.9850066,-2.9445672,7.158888,6.026273,0,1683969478.9886553
-0.36276507,0.42807376,0.61765796,1.2429581,0.88621277,1.9850066,-2.8660052,7.273332,5.926277,0,1683969478.993742
-0.36276507,0.42807376,0.61765796,1.17897,0.99296147,2.0951152,-2.8660052,7.273332,5.926277,0,1683969478.9988573
-0.36276507,0.42807376,0.61765796,1.0516045,1.0598512,2.195297,-2.8660052,7.273332,5.926277,0,1683969479.0142555
-0.36276507,0.42807376,0.61765796,1.0516045,1.0598512,2.195297,-2.7832577,7.384743,5.8271055,0,1683969479.029602
0.32965338,0.769923,0.21348806,1.0516045,1.0598512,2.195297,-2.7832577,7.384743,5.8271055,0,1683969479.0346928
0.32965338,0.769923,0.21348806,-0.4981606,1.0677924,1.9792033,-2.7832577,7.384743,5.8271055,0,1683969479.050119
0.32965338,0.769923,0.21348806,-0.4981606,1.0677924,1.9792033,1.0250173,8.665498,4.482702,0,1683969479.0654273
0.32965338,0.769923,0.21348806,-0.63438356,1.0166324,2.039679,1.0250173,8.665498,4.482702,0,1683969479.0808182
0.374656,0.78864354,0.25775895,-0.63438356,1.0166324,2.039679,1.0250173,8.665498,4.482702,0,1683969479.0859165
0.374656,0.78864354,0.25775895,-0.63438356,1.0166324,2.039679,1.0853173,8.646115,4.505871,0,1683969479.101227
0.5050295,0.8841979,0.357094,-0.63438356,1.0166324,2.039679,1.0853173,8.646115,4.505871,0,1683969479.1063588
0.5050295,0.8841979,0.357094,-0.63438356,1.0166324,2.039679,1.280764,8.573699,4.592107,0,1683969479.1217408
0.5050295,0.8841979,0.357094,-0.6591236,0.7883216,2.0905335,1.280764,8.573699,4.592107,0,1683969479.1268802
0.57180166,0.9480431,0.4110606,-0.6591236,0.7883216,2.0905335,1.280764,8.573699,4.592107,0,1683969479.1422038
0.57180166,0.9480431,0.4110606,-0.6591236,0.7883216,2.0905335,1.3503346,8.5477295,4.620501,0,1683969479.1523807
0.57180166,0.9480431,0.4110606,-0.5671884,0.6243043,2.038152,1.3503346,8.5477295,4.620501,0,1683969479.162564
0.57180166,0.9480431,0.4110606,-0.35216382,0.39187005,1.8380935,1.3503346,8.5477295,4.620501,0,1683969479.18817
0.6433912,1.0201205,0.480028,-0.35216382,0.39187005,1.8380935,1.3503346,8.5477295,4.620501,0,1683969479.2035067
0.6433912,1.0201205,0.480028,-0.35216382,0.39187005,1.8380935,1.5592972,8.475858,4.6866336,0,1683969479.2085984
0.6433912,1.0201205,0.480028,-0.21120666,0.30482176,1.5879441,1.5592972,8.475858,4.6866336,0,1683969479.2188582
0.6433912,1.0201205,0.480028,-0.21120666,0.30482176,1.5879441,1.6885341,8.4363165,4.7131257,0,1683969479.2342052
0.62381685,1.0437804,0.4764912,-0.21120666,0.30482176,1.5879441,1.6885341,8.4363165,4.7131257,0,1683969479.2444289
0.6021083,1.0310358,0.44825786,-0.21120666,0.30482176,1.5879441,1.6885341,8.4363165,4.7131257,0,1683969479.2495584
0.6021083,1.0310358,0.44825786,-0.20021108,0.25534168,1.4686728,1.6885341,8.4363165,4.7131257,0,1683969479.2649531
0.6021083,1.0310358,0.44825786,-0.20021108,0.25534168,1.4686728,1.8043406,8.40186,4.7317247,0,1683969479.2802515
0.6021083,1.0310358,0.44825786,-0.20021108,0.25534168,1.4686728,1.9689295,8.350858,4.756322,0,1683969479.3007655
0.6021083,1.0310358,0.44825786,-0.18753563,0.18295415,1.4654657,1.9689295,8.350858,4.756322,0,1683969479.3058996
0.6021083,1.0310358,0.44825786,-0.18753563,0.18295415,1.4654657,2.1298833,8.496359,4.4171944,0,1683969479.3315465
0.7410189,1.1393347,0.34325173,-0.18753563,0.18295415,1.4654657,2.1298833,8.496359,4.4171944,0,1683969479.3366382
0.7410189,1.1393347,0.34325173,0.15134187,-0.40011674,-1.6504052,2.1298833,8.496359,4.4171944,0,1683969479.3417683
0.7410189,1.1393347,0.34325173,0.15134187,-0.40011674,-1.6504052,2.0779781,8.515339,4.4053507,0,1683969479.3621495
0.7410189,1.1393347,0.34325173,0.100792766,-0.4279111,-1.7444785,2.0779781,8.515339,4.4053507,0,1683969479.3672438
0.7099805,1.1164676,0.32764107,0.100792766,-0.4279111,-1.7444785,2.0779781,8.515339,4.4053507,0,1683969479.3774924
0.6543065,1.0616473,0.33953202,0.100792766,-0.4279111,-1.7444785,2.0779781,8.515339,4.4053507,0,1683969479.3826303
0.6543065,1.0616473,0.33953202,0.100792766,-0.4279111,-1.7444785,1.9107474,8.569647,4.375648,0,1683969479.4082816
0.6543065,1.0616473,0.33953202,0.06490443,-0.57986385,-1.8964312,1.9107474,8.569647,4.375648,0,1683969479.4134116
0.6543065,1.0616473,0.33953202,0.06490443,-0.57986385,-1.8964312,1.793974,8.604979,4.3557,0,1683969479.4287932
0.60790133,0.9960337,0.40868238,0.06490443,-0.57986385,-1.8964312,1.793974,8.604979,4.3557,0,1683969479.4339232
0.60790133,0.9960337,0.40868238,0.12583824,-0.7884743,-2.0109684,1.793974,8.604979,4.3557,0,1683969479.4441826
0.60790133,0.9960337,0.40868238,0.2501493,-0.97326106,-2.1033618,1.793974,8.604979,4.3557,0,1683969479.4647026
0.60790133,0.9960337,0.40868238,0.2501493,-0.97326106,-2.1033618,1.6761825,8.64137,4.330503,0,1683969479.4698353
0.57680196,0.94334775,0.45368502,0.2501493,-0.97326106,-2.1033618,1.6761825,8.64137,4.330503,0,1683969479.4852245
0.57680196,0.94334775,0.45368502,0.2501493,-0.97326106,-2.1033618,1.4977021,8.7005005,4.277181,0,1683969479.4954858
0.57680196,0.94334775,0.45368502,0.36682457,-1.1139128,-2.181247,1.4977021,8.7005005,4.277181,0,1683969479.500609
0.5479588,0.9210903,0.46228305,0.36682457,-1.1139128,-2.181247,1.4977021,8.7005005,4.277181,0,1683969479.510834
0.5479588,0.9210903,0.46228305,0.48991394,-1.2863295,-2.2773056,1.4977021,8.7005005,4.277181,0,1683969479.5415385
0.5479588,0.9210903,0.46228305,0.48991394,-1.2863295,-2.2773056,1.376206,8.743603,4.229843,0,1683969479.546683
0.51692045,0.8962108,0.4423429,0.48991394,-1.2863295,-2.2773056,1.376206,8.743603,4.229843,0,1683969479.5518162
0.51692045,0.8962108,0.4423429,0.5635232,-1.426065,-2.3593142,1.376206,8.743603,4.229843,0,1683969479.562041
0.49472398,0.87767315,0.41514617,0.5635232,-1.426065,-2.3593142,1.376206,8.743603,4.229843,0,1683969479.5722907
0.49472398,0.87767315,0.41514617,0.5635232,-1.426065,-2.3593142,1.2526453,8.788748,4.1743164,0,1683969479.5774221
0.49472398,0.87767315,0.41514617,0.5635232,-1.426065,-2.3593142,-2.9830706,7.754053,5.2165174,0,1683969479.5876455
0.49472398,0.87767315,0.41514617,-1.0899363,-1.0354166,-2.7608054,-2.9830706,7.754053,5.2165174,0,1683969479.5927773
-0.31879908,0.307335,0.52381104,-1.0899363,-1.0354166,-2.7608054,-2.9830706,7.754053,5.2165174,0,1683969479.6132672
-0.31879908,0.307335,0.52381104,-1.0899363,-1.0354166,-2.7608054,-3.1293404,7.619616,5.3277383,0,1683969479.6235034
-0.37855867,0.28550446,0.54869056,-1.0899363,-1.0354166,-2.7608054,-3.1293404,7.619616,5.3277383,0,1683969479.6337292
-0.37855867,0.28550446,0.54869056,-1.0366384,-1.0555751,-2.6555839,-3.1293404,7.619616,5.3277383,0,1683969479.6439872
-0.44423324,0.27965048,0.57735074,-1.0366384,-1.0555751,-2.6555839,-3.1293404,7.619616,5.3277383,0,1683969479.6592968
-0.44423324,0.27965048,0.57735074,-1.0366384,-1.0555751,-2.6555839,-3.2641487,7.485712,5.435583,0,1683969479.6643887
-0.44423324,0.27965048,0.57735074,-0.97402465,-1.0703887,-2.512336,-3.2641487,7.485712,5.435583,0,1683969479.669555
-0.47557652,0.28343117,0.5878392,-0.97402465,-1.0703887,-2.512336,-3.2641487,7.485712,5.435583,0,1683969479.7003207
-0.47557652,0.28343117,0.5878392,-0.9437868,-1.1152872,-2.4303274,-3.2641487,7.485712,5.435583,0,1683969479.7054136
-0.47557652,0.28343117,0.5878392,-0.9437868,-1.1152872,-2.4303274,-3.386367,7.353654,5.540073,0,1683969479.7105544
-0.550215,0.28343117,0.6368055,-0.9437868,-1.1152872,-2.4303274,-3.386367,7.353654,5.540073,0,1683969479.7361946
-0.550215,0.28343117,0.6368055,-0.9437868,-1.1152872,-2.4303274,-3.4954903,7.2232647,5.642882,0,1683969479.7464578
-0.550215,0.28343117,0.6368055,-0.88789266,-1.1672108,-2.3150265,-3.4954903,7.2232647,5.642882,0,1683969479.7566767
-0.59930325,0.2800773,0.66607547,-0.88789266,-1.1672108,-2.3150265,-3.4954903,7.2232647,5.642882,0,1683969479.7771535
-0.59930325,0.2800773,0.66607547,-0.88789266,-1.1672108,-2.3150265,-3.5935318,7.0946374,5.7435846,0,1683969479.7822905
-0.59930325,0.2800773,0.66607547,-0.84314674,-1.2056953,-2.2267566,-3.5935318,7.0946374,5.7435846,0,1683969479.787415
-0.66497785,0.29019985,0.696626,-0.84314674,-1.2056953,-2.2267566,-3.5935318,7.0946374,5.7435846,0,1683969479.7976782
-0.66497785,0.29019985,0.696626,-0.77747875,-1.2783883,-2.0943515,-3.5935318,7.0946374,5.7435846,0,1683969479.8130717
-0.66497785,0.29019985,0.696626,-0.77747875,-1.2783883,-2.0943515,-3.7185416,6.907355,5.8904176,0,1683969479.8232946
-0.7063217,0.29794422,0.73028654,-0.77747875,-1.2783883,-2.0943515,-3.7185416,6.907355,5.8904176,0,1683969479.838684
-0.7063217,0.29794422,0.73028654,-0.77747875,-1.2783883,-2.0943515,-3.7846053,6.7879558,5.9863625,0,1683969479.843821
-0.7063217,0.29794422,0.73028654,-0.7341073,-1.342529,-1.9631681,-3.7846053,6.7879558,5.9863625,0,1683969479.8540797
-0.7063217,0.29794422,0.73028654,1.0749701,1.1572843,1.6412421,-3.7846053,6.7879558,5.9863625,0,1683969479.874582
-0.5378972,0.42075628,0.82346267,1.0749701,1.1572843,1.6412421,-3.7846053,6.7879558,5.9863625,0,1683969479.8848307
-0.5378972,0.42075628,0.82346267,1.0749701,1.1572843,1.6412421,-3.8769076,6.4949923,6.2466617,0,1683969479.8950937
-0.5336897,0.38002217,0.8017541,1.0749701,1.1572843,1.6412421,-3.8769076,6.4949923,6.2466617,0,1683969479.9002237
-0.5336897,0.38002217,0.8017541,1.0749701,1.1572843,1.6412421,-3.832622,6.662297,6.0959764,0,1683969479.9104881
-0.5336897,0.38002217,0.8017541,1.1220068,1.2180653,1.6972891,-3.832622,6.662297,6.0959764,0,1683969479.915614
-0.5336897,0.38002217,0.8017541,1.1220068,1.2180653,1.6972891,-3.8004255,6.775853,5.99005,0,1683969479.941265
-0.5572886,0.3333731,0.7702888,1.1220068,1.2180653,1.6972891,-3.8004255,6.775853,5.99005,0,1683969479.9515202
-0.5572886,0.3333731,0.7702888,1.1468995,1.2835805,1.7617353,-3.8004255,6.775853,5.99005,0,1683969479.956651
-0.5672282,0.2961758,0.6841253,1.1468995,1.2835805,1.7617353,-3.8004255,6.775853,5.99005,0,1683969479.9822972
-0.5672282,0.2961758,0.6841253,1.1468995,1.2835805,1.7617353,-3.7652004,6.8920345,5.8787107,0,1683969479.9976785
-0.5672282,0.2961758,0.6841253,1.1409435,1.4095715,1.9636264,-3.7652004,6.8920345,5.8787107,0,1683969480.0028286
-0.50539535,0.307335,0.64326924,1.1409435,1.4095715,1.9636264,-3.7652004,6.8920345,5.8787107,0,1683969480.0130928
-0.50539535,0.307335,0.64326924,1.0870347,1.4801265,2.2203424,-3.7652004,6.8920345,5.8787107,0,1683969480.0335755
-0.50539535,0.307335,0.64326924,1.0870347,1.4801265,2.2203424,-3.7214296,7.0113344,5.764395,0,1683969480.0387151
-0.39057156,0.38209546,0.6258292,1.0870347,1.4801265,2.2203424,-3.7214296,7.0113344,5.764395,0,1683969480.0489168
-0.39057156,0.38209546,0.6258292,1.0870347,1.4801265,2.2203424,-3.6274474,7.1968207,5.593167,0,1683969480.0539942
-0.39057156,0.38209546,0.6258292,1.0793989,1.5273159,2.366492,-3.6274474,7.1968207,5.593167,0,1683969480.0641534
-0.39057156,0.38209546,0.6258292,1.1082623,1.5670221,2.417652,-3.6274474,7.1968207,5.593167,0,1683969480.0946286
-0.39057156,0.38209546,0.6258292,1.1082623,1.5670221,2.417652,-3.548661,7.3243694,5.476927,0,1683969480.0997062
-0.27507702,0.4721617,0.5763751,1.1082623,1.5670221,2.417652,-3.548661,7.3243694,5.476927,0,1683969480.1047845
-0.23220867,0.5252746,0.5193596,1.1082623,1.5670221,2.417652,-3.548661,7.3243694,5.476927,0,1683969480.1251047
-0.23220867,0.5252746,0.5193596,1.1082623,1.5670221,2.417652,-3.4632106,7.452899,5.3569193,0,1683969480.1352723
0.44337955,0.80602264,0.32739717,1.1082623,1.5670221,2.417652,-3.4632106,7.452899,5.3569193,0,1683969480.1555777
0.44337955,0.80602264,0.32739717,1.1082623,1.5670221,2.417652,0.7746728,8.9486475,3.9443266,0,1683969480.1657376
0.44337955,0.80602264,0.32739717,-0.5381723,0.8703303,2.3958135,0.7746728,8.9486475,3.9443266,0,1683969480.1708155
0.6543065,1.0466465,0.4548436,-0.5381723,0.8703303,2.3958135,0.7746728,8.9486475,3.9443266,0,1683969480.1809683
0.6543065,1.0466465,0.4548436,-0.5381723,0.8703303,2.3958135,1.1180838,8.872196,4.0336275,0,1683969480.20128
0.6543065,1.0466465,0.4548436,-0.29031372,0.6284276,2.2056818,1.1180838,8.872196,4.0336275,0,1683969480.2114334
0.6543065,1.0466465,0.4548436,-0.13897185,0.6218608,1.821142,1.1180838,8.872196,4.0336275,0,1683969480.2266634
0.69565034,1.1493354,0.4499653,-0.13897185,0.6218608,1.821142,1.1180838,8.872196,4.0336275,0,1683969480.2317483
0.69565034,1.1493354,0.4499653,-0.13897185,0.6218608,1.821142,1.275573,8.839793,4.057966,0,1683969480.2368226
0.69565034,1.1493354,0.4499653,-0.29626966,0.8155051,1.4214834,1.275573,8.839793,4.057966,0,1683969480.2674623
0.6422326,1.1725074,0.35904533,-0.29626966,0.8155051,1.4214834,1.275573,8.839793,4.057966,0,1683969480.2725914
0.6422326,1.1725074,0.35904533,-0.29626966,0.8155051,1.4214834,1.404732,8.812037,4.0756426,0,1683969480.2828498
0.56869173,1.1434814,0.28556544,-0.29626966,0.8155051,1.4214834,1.404732,8.812037,4.0756426,0,1683969480.2982416
0.56869173,1.1434814,0.28556544,-0.29626966,0.8155051,1.4214834,1.5396264,8.765926,4.1260395,0,1683969480.308469
0.56869173,1.1434814,0.28556544,-0.5777258,0.98563105,1.244638,1.5396264,8.765926,4.1260395,0,1683969480.3135655
0.5843634,1.1551284,0.2783699,-0.5777258,0.98563105,1.244638,1.5396264,8.765926,4.1260395,0,1683969480.3237708
0.5843634,1.1551284,0.2783699,-0.821461,1.0363328,1.1991285,1.5396264,8.765926,4.1260395,0,1683969480.3442712
0.5843634,1.1551284,0.2783699,-0.821461,1.0363328,1.1991285,1.6063066,8.724236,4.18851,0,1683969480.3494031
0.5843634,1.1551284,0.2783699,-0.821461,1.0363328,1.1991285,1.6694813,8.674377,4.2666306,0,1683969480.3647492
0.5843634,1.1551284,0.2783699,-0.9036224,0.88208944,1.1652255,1.6694813,8.674377,4.2666306,0,1683969480.3698823
0.64735484,1.2120829,0.32507995,-0.9036224,0.88208944,1.1652255,1.6694813,8.674377,4.2666306,0,1683969480.3903172
0.64735484,1.2120829,0.32507995,-0.7556403,0.57986385,1.1090258,1.6694813,8.674377,4.2666306,0,1683969480.4159596
0.69558936,1.2598907,0.38191253,-0.7556403,0.57986385,1.1090258,1.6694813,8.674377,4.2666306,0,1683969480.4210947
0.6254633,1.1261632,0.27532095,-0.7556403,0.57986385,1.1090258,1.6694813,8.674377,4.2666306,0,1683969480.4313173
0.6254633,1.1261632,0.27532095,-0.17608191,-0.22556199,-1.5822937,1.6694813,8.674377,4.2666306,0,1683969480.446743
0.6254633,1.1261632,0.27532095,-0.17608191,-0.22556199,-1.5822937,1.8080136,8.747166,4.0563874,0,1683969480.4518778
0.5670453,1.053598,0.32117727,-0.17608191,-0.22556199,-1.5822937,1.8080136,8.747166,4.0563874,0,1683969480.4774413
0.5670453,1.053598,0.32117727,-0.17608191,-0.22556199,-1.5822937,1.7534295,8.757283,4.0585217,0,1683969480.487705
0.5670453,1.053598,0.32117727,-0.0096211275,-0.5352707,-1.6507106,1.7534295,8.757283,4.0585217,0,1683969480.492837
0.48868704,0.97761804,0.36203334,-0.0096211275,-0.5352707,-1.6507106,1.7534295,8.757283,4.0585217,0,1683969480.5082343
0.48868704,0.97761804,0.36203334,0.23915374,-0.90041536,-1.6878207,1.7534295,8.757283,4.0585217,0,1683969480.5184917
0.48868704,0.97761804,0.36203334,0.23915374,-0.90041536,-1.6878207,1.5981152,8.795576,4.0398006,0,1683969480.5235837
0.48868704,0.97761804,0.36203334,0.23915374,-0.90041536,-1.6878207,1.5039461,8.828314,4.004391,0,1683969480.5338523
0.48868704,0.97761804,0.36203334,0.48243082,-1.2299771,-1.6762142,1.5039461,8.828314,4.004391,0,1683969480.5441062
0.43691576,0.9276761,0.37014353,0.48243082,-1.2299771,-1.6762142,1.5039461,8.828314,4.004391,0,1683969480.5645154
0.42630538,0.91548026,0.35800868,0.48243082,-1.2299771,-1.6762142,1.5039461,8.828314,4.004391,0,1683969480.5798924
0.42630538,0.91548026,0.35800868,0.63789606,-1.4349225,-1.6658295,1.5039461,8.828314,4.004391,0,1683969480.5850203
0.42630538,0.91548026,0.35800868,0.63789606,-1.4349225,-1.6658295,1.3791035,8.887072,3.9184375,0,1683969480.5901196
0.42630538,0.91548026,0.35800868,0.74189585,-1.6000088,-1.6901114,1.3791035,8.887072,3.9184375,0,1683969480.6207318
0.42898846,0.9206634,0.32892162,0.74189585,-1.6000088,-1.6901114,1.3791035,8.887072,3.9184375,0,1683969480.625859
0.42898846,0.9206634,0.32892162,0.74189585,-1.6000088,-1.6901114,1.3038079,8.930892,3.8438735,0,1683969480.6309829
0.42898846,0.9206634,0.32892162,0.74189585,-1.6000088,-1.6901114,1.2290974,8.976715,3.7608542,0,1683969480.6514878
0.42898846,0.9206634,0.32892162,0.77671516,-1.7609718,-1.7794504,1.2290974,8.976715,3.7608542,0,1683969480.6617508
0.4413672,0.93731076,0.2519659,0.77671516,-1.7609718,-1.7794504,1.2290974,8.976715,3.7608542,0,1683969480.6720119
0.43844023,0.9351765,0.19385278,0.77671516,-1.7609718,-1.7794504,1.2290974,8.976715,3.7608542,0,1683969480.6822736
0.04616123,0.50307816,0.6948576,0.77671516,-1.7609718,-1.7794504,1.2290974,8.976715,3.7608542,0,1683969480.712975
0.04616123,0.50307816,0.6948576,0.77671516,-1.7609718,-1.7794504,-0.18388708,9.117286,3.616269,0,1683969480.7180598
0.04616123,0.50307816,0.6948576,0.122020334,-6.595665,-2.097864,-0.18388708,9.117286,3.616269,0,1683969480.728346
0.04616123,0.50307816,0.6948576,0.064599,-6.427219,-1.933083,-0.18388708,9.117286,3.616269,0,1683969480.7386143
0.043783043,0.4993584,0.85419625,0.064599,-6.427219,-1.933083,-0.18388708,9.117286,3.616269,0,1683969480.7488728
0.043783043,0.4993584,0.85419625,0.064599,-6.427219,-1.933083,-0.13809831,9.11253,3.6302662,0,1683969480.7540026
0.021464668,0.4999072,1.121346,0.064599,-6.427219,-1.933083,-0.13809831,9.11253,3.6302662,0,1683969480.789868
0.021464668,0.4999072,1.121346,0.064599,-6.427219,-1.933083,-0.08224714,9.106418,3.6472583,0,1683969480.794999
0.021464668,0.4999072,1.121346,0.11071932,-5.9001946,-1.6291776,-0.08224714,9.106418,3.6472583,0,1683969480.8001287
0.021464668,0.4999072,1.121346,0.23289238,-5.041013,-1.2800682,-0.08224714,9.106418,3.6472583,0,1683969480.8155177
0.021464668,0.4999072,1.121346,0.23289238,-5.041013,-1.2800682,0.010262339,9.102359,3.6582897,0,1683969480.820651
-0.0042075627,0.5248477,1.3191624,0.23289238,-5.041013,-1.2800682,0.010262339,9.102359,3.6582897,0,1683969480.835989
-0.0042075627,0.5248477,1.3191624,0.2770274,-4.1703773,-0.98624194,0.010262339,9.102359,3.6582897,0,1683969480.856464
-0.0042075627,0.5248477,1.3191624,0.2770274,-4.1703773,-0.98624194,0.06979653,9.104066,3.6533873,0,1683969480.866724
-0.027989438,0.5443001,1.3543473,0.2770274,-4.1703773,-0.98624194,0.06979653,9.104066,3.6533873,0,1683969480.8718538
-0.031099375,0.59979105,1.1924475,0.2770274,-4.1703773,-0.98624194,0.06979653,9.104066,3.6533873,0,1683969480.8871894
-0.031099375,0.59979105,1.1924475,0.2770274,-4.1703773,-0.98624194,0.12373922,9.106617,3.6455894,0,1683969480.8974066
-0.031099375,0.59979105,1.1924475,0.1704314,-3.1557298,-0.64644814,0.12373922,9.106617,3.6455894,0,1683969480.9025424
-0.031099375,0.59979105,1.1924475,0.1704314,-3.1557298,-0.64644814,0.17384167,9.106046,3.6449738,0,1683969480.9230673
-0.025794188,0.6392446,1.024328,0.1704314,-3.1557298,-0.64644814,0.17384167,9.106046,3.6449738,0,1683969480.9281938
-0.025794188,0.6392446,1.024328,-0.12461651,-2.5050056,-0.37308595,0.17384167,9.106046,3.6449738,0,1683969480.9333181
-0.025794188,0.6392446,1.024328,-0.12461651,-2.5050056,-0.37308595,0.25249696,9.09123,3.6772122,0,1683969480.9640887
-0.025794188,0.6392446,1.024328,-0.38744128,-2.2252293,-0.18692477,0.25249696,9.09123,3.6772122,0,1683969480.9691796
-0.025794188,0.6392446,1.024328,1.4520267,3.450014,-0.15851954,0.25249696,9.09123,3.6772122,0,1683969480.9794312
-0.025794188,0.6392446,1.024328,1.4520267,3.450014,-0.15851954,-0.34293142,9.613745,1.9220886,0,1683969480.9948204
0.112140685,0.7519951,0.2394042,1.4520267,3.450014,-0.15851954,-0.34293142,9.613745,1.9220886,0,1683969480.9999523
0.112140685,0.7519951,0.2394042,1.4520267,3.450014,-0.15851954,-0.41032988,9.636674,1.789486,0,1683969481.02555
0.112140685,0.7519951,0.2394042,1.1601858,3.6528215,-0.119729586,-0.41032988,9.636674,1.789486,0,1683969481.0357993
0.104701236,0.73662835,0.0307335,1.1601858,3.6528215,-0.119729586,-0.41032988,9.636674,1.789486,0,1683969481.0409238
0.104701236,0.73662835,0.0307335,1.1601858,3.6528215,-0.119729586,-0.5020653,9.662827,1.6167365,0,1683969481.0460372
0.08415125,0.6807714,-0.11842154,1.1601858,3.6528215,-0.119729586,-0.5020653,9.662827,1.6167365,0,1683969481.0511217
0.08415125,0.6807714,-0.11842154,0.8385653,3.5031595,-0.091477074,-0.5020653,9.662827,1.6167365,0,1683969481.056253
0.08415125,0.6807714,-0.11842154,0.5309946,3.1574097,-0.0050396384,-0.5020653,9.662827,1.6167365,0,1683969481.076702
0.0190255,0.59704703,-0.0837244,0.5309946,3.1574097,-0.0050396384,-0.5020653,9.662827,1.6167365,0,1683969481.0818312
0.0190255,0.59704703,-0.0837244,0.5309946,3.1574097,-0.0050396384,-0.55356616,9.674894,1.5251563,0,1683969481.0869617
0.0190255,0.59704703,-0.0837244,0.41722095,2.940858,0.12721269,-0.55356616,9.674894,1.5251563,0,1683969481.1177413
0.0190255,0.59704703,-0.0837244,0.41722095,2.940858,0.12721269,-0.59430796,9.682785,1.4582816,0,1683969481.1330814
-0.064820856,0.5846073,0.12890996,0.41722095,2.940858,0.12721269,-0.59430796,9.682785,1.4582816,0,1683969481.1382167
-0.08366342,0.6032669,0.3234335,0.41722095,2.940858,0.12721269,-0.59430796,9.682785,1.4582816,0,1683969481.1484017
-0.08366342,0.6032669,0.3234335,0.41722095,2.940858,0.12721269,-0.62107694,9.6884775,1.4084738,0,1683969481.1535485
-0.08366342,0.6032669,0.3234335,0.56688297,2.8484647,0.33337972,-0.62107694,9.6884775,1.4084738,0,1683969481.163775
-0.004268542,0.63863486,0.4012429,0.56688297,2.8484647,0.33337972,-0.62107694,9.6884775,1.4084738,0,1683969481.179152
-0.004268542,0.63863486,0.4012429,1.066418,2.8115072,0.58032197,-0.62107694,9.6884775,1.4084738,0,1683969481.1842787
-0.004268542,0.63863486,0.4012429,1.066418,2.8115072,0.58032197,-0.6201167,9.702739,1.307068,0,1683969481.1894102
0.05939371,0.68156415,0.31678677,1.066418,2.8115072,0.58032197,-0.6201167,9.702739,1.307068,0,1683969481.2253106
0.05939371,0.68156415,0.31678677,1.066418,2.8115072,0.58032197,0.47898185,9.797054,-0.15627679,0,1683969481.2509358
0.3012371,1.0361581,-0.44685537,1.066418,2.8115072,0.58032197,0.47898185,9.797054,-0.15627679,0,1683969481.2611914
0.3012371,1.0361581,-0.44685537,1.3884968,1.3997977,0.8720101,0.47898185,9.797054,-0.15627679,0,1683969481.2867901
0.3566062,1.0628669,-0.5860708,1.3884968,1.3997977,0.8720101,0.47898185,9.797054,-0.15627679,0,1683969481.297052
0.3566062,1.0628669,-0.5860708,1.3884968,1.3997977,0.8720101,0.6393036,9.781874,-0.37733078,0,1683969481.3021815
0.30495682,1.0104249,-0.59107107,1.3884968,1.3997977,0.8720101,0.6393036,9.781874,-0.37733078,0,1683969481.3175316
0.30495682,1.0104249,-0.59107107,0.94027436,1.4407257,0.6374379,0.6393036,9.781874,-0.37733078,0,1683969481.3226612
0.30495682,1.0104249,-0.59107107,0.94027436,1.4407257,0.6374379,0.72034514,9.771205,-0.4906931,0,1683969481.3380542
0.15647253,0.9206025,-0.45368502,0.94027436,1.4407257,0.6374379,0.72034514,9.771205,-0.4906931,0,1683969481.358531
0.15647253,0.9206025,-0.45368502,0.94027436,1.4407257,0.6374379,0.78345823,9.76266,-0.5592862,0,1683969481.3636596
0.15647253,0.9206025,-0.45368502,0.30665436,1.6145169,0.513585,0.78345823,9.76266,-0.5592862,0,1683969481.368754
0.15647253,0.9206025,-0.45368502,0.033292156,1.8988746,0.6435465,0.78345823,9.76266,-0.5592862,0,1683969481.3943906
0.15647253,0.9206025,-0.45368502,0.033292156,1.8988746,0.6435465,0.8397596,9.756706,-0.58104485,0,1683969481.3995397
0.06597946,0.9496286,-0.27562585,0.033292156,1.8988746,0.6435465,0.8397596,9.756706,-0.58104485,0,1683969481.4098017
0.06597946,0.9496286,-0.27562585,0.13026701,2.0244074,0.82527894,0.8397596,9.756706,-0.58104485,0,1683969481.4251513
0.035794772,1.0143275,-0.29532212,0.13026701,2.0244074,0.82527894,0.8397596,9.756706,-0.58104485,0,1683969481.4302843
0.035794772,1.0143275,-0.29532212,0.13026701,2.0244074,0.82527894,0.9038473,9.751227,-0.5768384,0,1683969481.4456017
0.06780884,1.071343,-0.45264837,0.13026701,2.0244074,0.82527894,0.9038473,9.751227,-0.5768384,0,1683969481.461006
0.06780884,1.071343,-0.45264837,0.13026701,2.0244074,0.82527894,1.0288002,9.738586,-0.5810735,0,1683969481.4712012
0.06780884,1.071343,-0.45264837,0.2959642,1.9808832,0.9850202,1.0288002,9.738586,-0.5810735,0,1683969481.4814672
0.1460451,1.1479329,-0.5933273,0.2959642,1.9808832,0.9850202,1.0288002,9.738586,-0.5810735,0,1683969481.4968545
0.1460451,1.1479329,-0.5933273,0.43371433,1.787239,1.0769554,1.0288002,9.738586,-0.5810735,0,1683969481.501994
0.1460451,1.1479329,-0.5933273,0.43371433,1.787239,1.0769554,1.129171,9.726148,-0.6026129,0,1683969481.5173519
0.245868,1.0445732,-0.48447952,0.43371433,1.787239,1.0769554,1.129171,9.726148,-0.6026129,0,1683969481.5224829
0.245868,1.0445732,-0.48447952,0.43371433,1.787239,1.0769554,0.82001704,9.76661,-0.42073232,0,1683969481.532758
0.27288178,1.0334749,-0.49978524,0.43371433,1.787239,1.0769554,0.82001704,9.76661,-0.42073232,0,1683969481.5430048
0.27288178,1.0334749,-0.49978524,-0.40790528,-2.1571178,-0.9242391,0.82001704,9.76661,-0.42073232,0,1683969481.5583625
0.27288178,1.0334749,-0.49978524,-0.46777007,-2.4086416,-1.0600039,0.82001704,9.76661,-0.42073232,0,1683969481.5634983
0.27288178,1.0334749,-0.49978524,-0.46777007,-2.4086416,-1.0600039,0.68608993,9.777683,-0.40289655,0,1683969481.5737183
0.28458977,1.001095,-0.49240676,-0.46777007,-2.4086416,-1.0600039,0.68608993,9.777683,-0.40289655,0,1683969481.5942347
0.28458977,1.001095,-0.49240676,-0.46777007,-2.4086416,-1.0600039,0.58530545,9.785065,-0.38216585,0,1683969481.6095867
0.28458977,1.001095,-0.49240676,-0.6243043,-2.5648704,-1.1577424,0.58530545,9.785065,-0.38216585,0,1683969481.6147168
0.26245433,0.95859253,-0.4633807,-0.6243043,-2.5648704,-1.1577424,0.58530545,9.785065,-0.38216585,0,1683969481.6249423
0.21318316,0.90352833,-0.40441385,-0.6243043,-2.5648704,-1.1577424,0.58530545,9.785065,-0.38216585,0,1683969481.6403284
0.21318316,0.90352833,-0.40441385,-0.6243043,-2.5648704,-1.1577424,0.47855896,9.792144,-0.34787133,0,1683969481.645453
0.21318316,0.90352833,-0.40441385,-0.767094,-2.6238189,-1.1826351,0.47855896,9.792144,-0.34787133,0,1683969481.660852
0.21318316,0.90352833,-0.40441385,-0.9622655,-2.6166413,-1.1533136,0.47855896,9.792144,-0.34787133,0,1683969481.6711009
0.16793664,0.85181797,-0.35465485,-0.9622655,-2.6166413,-1.1533136,0.47855896,9.792144,-0.34787133,0,1683969481.6762295
0.16793664,0.85181797,-0.35465485,-0.9622655,-2.6166413,-1.1533136,0.37023196,9.79848,-0.29807177,0,1683969481.6966972
0.16793664,0.85181797,-0.35465485,-1.1394165,-2.5674667,-1.0995574,0.37023196,9.79848,-0.29807177,0,1683969481.7273505
0.12958074,0.80443716,-0.31459153,-1.1394165,-2.5674667,-1.0995574,0.37023196,9.79848,-0.29807177,0,1683969481.7324798
0.12958074,0.80443716,-0.31459153,-1.1394165,-2.5674667,-1.0995574,0.21400401,9.805804,-0.19111274,0,1683969481.7376182
0.109335646,0.76919127,-0.28166276,-1.1394165,-2.5674667,-1.0995574,0.21400401,9.805804,-0.19111274,0,1683969481.7631862
0.109335646,0.76919127,-0.28166276,-1.3179418,-2.4851525,-1.0387764,0.21400401,9.805804,-0.19111274,0,1683969481.7683182
0.109335646,0.76919127,-0.28166276,-1.3179418,-2.4851525,-1.0387764,0.117879435,9.808816,-0.096793056,0,1683969481.7734525
0.109335646,0.76919127,-0.28166276,-1.5346462,-2.420248,-0.9549351,0.117879435,9.808816,-0.096793056,0,1683969481.793976
0.18952326,0.71937126,1.0723796,-1.5346462,-2.420248,-0.9549351,0.117879435,9.808816,-0.096793056,0,1683969481.8042405
0.18952326,0.71937126,1.0723796,-1.5346462,-2.420248,-0.9549351,0.5467353,8.529752,4.8146167,0,1683969481.819633
0.22135438,0.73803085,1.1121991,-1.5346462,-2.420248,-0.9549351,0.5467353,8.529752,4.8146167,0,1683969481.8350205
0.22135438,0.73803085,1.1121991,-0.96990126,-1.2710578,0.09682214,0.5467353,8.529752,4.8146167,0,1683969481.8401475
0.22135438,0.73803085,1.1121991,-0.92087936,-1.0815369,0.109650314,0.5467353,8.529752,4.8146167,0,1683969481.8657255
0.22781818,0.7444947,1.1538478,-0.92087936,-1.0815369,0.109650314,0.5467353,8.529752,4.8146167,0,1683969481.8708584
0.22781818,0.7444947,1.1538478,-0.92087936,-1.0815369,0.109650314,0.6459902,8.455519,4.931837,0,1683969481.8759906
0.22781818,0.7444947,1.1538478,-0.86559606,-0.91538155,0.122478485,0.6459902,8.455519,4.931837,0,1683969481.8913362
0.23964813,0.7560807,1.249768,-0.86559606,-0.91538155,0.122478485,0.6459902,8.455519,4.931837,0,1683969481.896467
0.23964813,0.7560807,1.249768,-0.86559606,-0.91538155,0.122478485,0.70535886,8.407146,5.0058446,0,1683969481.9066818
0.23964813,0.7560807,1.249768,-0.7466301,-0.73273283,0.12965615,0.70535886,8.407146,5.0058446,0,1683969481.9271555
0.24196534,0.76120293,1.322882,-0.7466301,-0.73273283,0.12965615,0.70535886,8.407146,5.0058446,0,1683969481.9322855
0.24196534,0.76120293,1.322882,-0.7466301,-0.73273283,0.12965615,0.7581347,8.3607,5.075434,0,1683969481.9374182
0.23909931,0.7648007,1.3712995,-0.7466301,-0.73273283,0.12965615,0.7581347,8.3607,5.075434,0,1683969481.9528034
0.23909931,0.7648007,1.3712995,-0.5384777,-0.5149594,0.15057829,0.7581347,8.3607,5.075434,0,1683969481.9681559
0.23909931,0.7648007,1.3712995,-0.5384777,-0.5149594,0.15057829,0.82335424,8.300961,5.162581,0,1683969481.978408
0.23909931,0.7648007,1.3712995,-0.5384777,-0.5149594,0.15057829,0.8591373,8.2704525,5.2055364,0,1683969481.9989328
0.24720955,0.7702279,1.3936179,-0.5384777,-0.5149594,0.15057829,0.8591373,8.2704525,5.2055364,0,1683969482.0040777
0.24720955,0.7702279,1.3936179,-0.35934147,-0.37110063,0.17272215,0.8591373,8.2704525,5.2055364,0,1683969482.0092046
0.26904008,0.77425253,1.4111799,-0.35934147,-0.37110063,0.17272215,0.8591373,8.2704525,5.2055364,0,1683969482.0245798
0.26904008,0.77425253,1.4111799,-0.13255776,-0.18753563,0.18173242,0.8591373,8.2704525,5.2055364,0,1683969482.0297143
0.26904008,0.77425253,1.4111799,-0.13255776,-0.18753563,0.18173242,0.88970566,8.2480545,5.235851,0,1683969482.0502179
0.26904008,0.77425253,1.4111799,0.03940081,-0.031612277,0.172264,0.88970566,8.2480545,5.235851,0,1683969482.065571
0.26946694,0.7665081,1.4174608,0.03940081,-0.031612277,0.172264,0.88970566,8.2480545,5.235851,0,1683969482.0707006
0.26946694,0.7665081,1.4174608,1.9932534,1.6439911,-0.022449298,0.88970566,8.2480545,5.235851,0,1683969482.0758324
0.15452121,0.60515726,0.7320549,1.9932534,1.6439911,-0.022449298,0.88970566,8.2480545,5.235851,0,1683969482.0911982
0.15452121,0.60515726,0.7320549,2.0415115,1.7560849,-0.0067195175,0.88970566,8.2480545,5.235851,0,1683969482.1014597
0.15452121,0.60515726,0.7320549,2.0415115,1.7560849,-0.0067195175,0.2827068,8.913523,4.087212,0,1683969482.1116235
0.1203119,0.5980227,0.6805275,2.0415115,1.7560849,-0.0067195175,0.2827068,8.913523,4.087212,0,1683969482.1218853
0.11012838,0.5837535,0.61851174,2.0415115,1.7560849,-0.0067195175,0.2827068,8.913523,4.087212,0,1683969482.1423798
0.11012838,0.5837535,0.61851174,2.090839,1.8805487,0.023365596,0.2827068,8.913523,4.087212,0,1683969482.1526022
0.11012838,0.5837535,0.61851174,2.090839,1.8805487,0.023365596,0.22088717,8.983619,3.9347074,0,1683969482.157731
0.11012838,0.5837535,0.61851174,2.090839,1.8805487,0.023365596,0.130376,9.086554,3.6950867,0,1683969482.173114
0.07604102,0.5644842,0.5578374,2.090839,1.8805487,0.023365596,0.130376,9.086554,3.6950867,0,1683969482.1833348
0.07604102,0.5644842,0.5578374,2.149024,1.9376645,0.052687127,0.130376,9.086554,3.6950867,0,1683969482.1935575
0.07604102,0.5644842,0.5578374,2.2209532,1.9457586,0.09086621,0.130376,9.086554,3.6950867,0,1683969482.2140365
0.07604102,0.5644842,0.5578374,2.2209532,1.9457586,0.09086621,0.07393956,9.154106,3.5260472,0,1683969482.219171
0.05506419,0.5506419,0.5001511,2.2209532,1.9457586,0.09086621,0.07393956,9.154106,3.5260472,0,1683969482.229437
0.053417753,0.5193596,0.41496322,2.2209532,1.9457586,0.09086621,0.07393956,9.154106,3.5260472,0,1683969482.2396858
0.053417753,0.5193596,0.41496322,2.3090706,1.8975002,0.1441642,0.07393956,9.154106,3.5260472,0,1683969482.244819
0.053417753,0.5193596,0.41496322,2.3090706,1.8975002,0.1441642,0.024399344,9.221096,3.3476691,0,1683969482.2653446
0.04835648,0.5066149,0.38398582,2.3090706,1.8975002,0.1441642,0.024399344,9.221096,3.3476691,0,1683969482.2807333
0.04835648,0.5066149,0.38398582,2.3090706,1.8975002,0.1441642,0.0026553988,9.254172,3.255213,0,1683969482.2910016
0.04835648,0.5066149,0.38398582,2.3188446,1.8756617,0.16493362,0.0026553988,9.254172,3.255213,0,1683969482.296131
0.026647896,0.503505,0.35142294,2.3188446,1.8756617,0.16493362,0.0026553988,9.254172,3.255213,0,1683969482.3166084
0.026647896,0.503505,0.35142294,2.3188446,1.8756617,0.16493362,-0.051722124,9.348412,2.9733226,0,1683969482.3217382
0.026647896,0.503505,0.35142294,2.2681427,1.8828394,0.22449298,-0.051722124,9.348412,2.9733226,0,1683969482.3319998
0.026647896,0.503505,0.35142294,2.2681427,1.8828394,0.22449298,1.4906359,9.678263,-0.58766973,0,1683969482.3678741
0.25257573,1.0582324,-0.58424145,2.2681427,1.8828394,0.22449298,1.4906359,9.678263,-0.58766973,0,1683969482.3729622
0.25257573,1.0582324,-0.58424145,0.5563455,1.2935071,0.7872526,1.4906359,9.678263,-0.58766973,0,1683969482.3780947
0.17940071,1.0669525,-0.42100018,0.5563455,1.2935071,0.7872526,1.4906359,9.678263,-0.58766973,0,1683969482.398574
0.17940071,1.0669525,-0.42100018,0.5563455,1.2935071,0.7872526,1.5674464,9.664105,-0.61993235,0,1683969482.4088233
0.17940071,1.0669525,-0.42100018,0.2996294,1.3909402,0.7976373,1.5674464,9.664105,-0.61993235,0,1683969482.4139557
0.16513158,1.1131138,-0.36697263,0.2996294,1.3909402,0.7976373,1.5674464,9.664105,-0.61993235,0,1683969482.4293487
0.16513158,1.1131138,-0.36697263,0.38056904,1.4546229,0.8953757,1.5674464,9.664105,-0.61993235,0,1683969482.4396129
0.16513158,1.1131138,-0.36697263,0.38056904,1.4546229,0.8953757,1.6462091,9.650057,-0.63443756,0,1683969482.444746
0.20452413,1.1908622,-0.41929275,0.38056904,1.4546229,0.8953757,1.6462091,9.650057,-0.63443756,0,1683969482.4549663
0.20452413,1.1908622,-0.41929275,0.7021896,1.4048374,1.0291553,1.6462091,9.650057,-0.63443756,0,1683969482.4652185
0.20452413,1.1908622,-0.41929275,0.7021896,1.4048374,1.0291553,1.7804883,9.623616,-0.67229533,0,1683969482.4703565
0.32715324,1.2985513,-0.5563739,0.7021896,1.4048374,1.0291553,1.7804883,9.623616,-0.67229533,0,1683969482.4908788
0.32715324,1.2985513,-0.5563739,0.7021896,1.4048374,1.0291553,1.8817426,9.6003685,-0.72669375,0,1683969482.5062268
0.32715324,1.2985513,-0.5563739,0.96929044,1.3235923,1.0823005,1.8817426,9.6003685,-0.72669375,0,1683969482.5164485
0.32715324,1.2985513,-0.5563739,1.1392636,1.1588113,0.95478237,1.8817426,9.6003685,-0.72669375,0,1683969482.536962
0.5061271,1.4294736,-0.8379757,1.1392636,1.1588113,0.95478237,1.8817426,9.6003685,-0.72669375,0,1683969482.5420723
0.5061271,1.4294736,-0.8379757,1.1392636,1.1588113,0.95478237,1.9850699,9.57342,-0.80327535,0,1683969482.5471573
0.5061271,1.4294736,-0.8379757,1.1392636,1.1588113,0.95478237,2.0773497,9.545914,-0.8923372,0,1683969482.5625153
0.5947908,1.4968556,-1.1054304,1.1392636,1.1588113,0.95478237,2.0773497,9.545914,-0.8923372,0,1683969482.5778713
0.5947908,1.4968556,-1.1054304,1.0913107,0.84314674,0.72418076,2.0773497,9.545914,-0.8923372,0,1683969482.588097
0.632293,1.510332,-1.2718425,1.0913107,0.84314674,0.72418076,2.0773497,9.545914,-0.8923372,0,1683969482.6085773
0.632293,1.510332,-1.2718425,0.8019133,0.2883284,0.36896262,2.0773497,9.545914,-0.8923372,0,1683969482.6136699
0.632293,1.510332,-1.2718425,0.8019133,0.2883284,0.36896262,2.1726081,9.51138,-1.0244925,0,1683969482.6187575
0.632293,1.510332,-1.2718425,-1.7136297,-2.6572638,-1.2524265,2.1726081,9.51138,-1.0244925,0,1683969482.6391854
0.19976775,0.7120538,-0.11348223,-1.7136297,-2.6572638,-1.2524265,2.1726081,9.51138,-1.0244925,0,1683969482.6494126
0.19976775,0.7120538,-0.11348223,-1.7136297,-2.6572638,-1.2524265,0.33906507,9.793635,0.4537036,0,1683969482.6545057
0.18769388,0.6899793,-0.06890646,-1.7136297,-2.6572638,-1.2524265,0.33906507,9.793635,0.4537036,0,1683969482.6697767
0.18769388,0.6899793,-0.06890646,-1.8092301,-2.6444356,-1.2505939,0.33906507,9.793635,0.4537036,0,1683969482.6799517
0.18769388,0.6899793,-0.06890646,-1.8092301,-2.6444356,-1.2505939,0.24655312,9.788725,0.59683704,0,1683969482.6850367
0.18769388,0.6899793,-0.06890646,-1.8950567,-2.6500862,-1.2437216,0.24655312,9.788725,0.59683704,0,1683969482.7106469
0.18769388,0.6899793,-0.06890646,-1.8950567,-2.6500862,-1.2437216,0.15807714,9.780059,0.74941015,0,1683969482.7157786
0.17171735,0.6572335,-0.0248795,-1.8950567,-2.6500862,-1.2437216,0.15807714,9.780059,0.74941015,0,1683969482.7260394
0.17171735,0.6572335,-0.0248795,-1.8950567,-2.6500862,-1.2437216,0.074103154,9.767326,0.91102546,0,1683969482.7516866
0.17171735,0.6572335,-0.0248795,-1.9456058,-2.645352,-1.2099713,0.074103154,9.767326,0.91102546,0,1683969482.756821
0.14982581,0.62448764,0.029818814,-1.9456058,-2.645352,-1.2099713,0.074103154,9.767326,0.91102546,0,1683969482.7619536
0.14982581,0.62448764,0.029818814,-1.9656117,-2.6282477,-1.1661417,0.074103154,9.767326,0.91102546,0,1683969482.7824357
0.14982581,0.62448764,0.029818814,-1.9656117,-2.6282477,-1.1661417,-0.03985265,9.740161,1.1678083,0,1683969482.7875617
0.12750745,0.60814524,0.07329696,-1.9656117,-2.6282477,-1.1661417,-0.03985265,9.740161,1.1678083,0,1683969482.7926915
0.12750745,0.60814524,0.07329696,-1.9656117,-2.6282477,-1.1661417,-0.10601953,9.7169075,1.3440896,0,1683969482.8132193
0.12750745,0.60814524,0.07329696,-1.9540052,-2.6277895,-1.0929906,-0.10601953,9.7169075,1.3440896,0,1683969482.8183486
0.10616472,0.5874123,0.11537258,-1.9540052,-2.6277895,-1.0929906,-0.10601953,9.7169075,1.3440896,0,1683969482.8337362
0.08354146,0.5652159,0.14000817,-1.9540052,-2.6277895,-1.0929906,-0.10601953,9.7169075,1.3440896,0,1683969482.8388638
0.08354146,0.5652159,0.14000817,-1.9540052,-2.6277895,-1.0929906,-0.16276625,9.690042,1.520765,0,1683969482.8491268
0.08354146,0.5652159,0.14000817,-1.9225457,-2.6395488,-1.024421,-0.16276625,9.690042,1.520765,0,1683969482.8696067
0.064394,0.5511907,0.15446024,-1.9225457,-2.6395488,-1.024421,-0.16276625,9.690042,1.520765,0,1683969482.8849506
0.064394,0.5511907,0.15446024,-1.9225457,-2.6395488,-1.024421,-0.20966855,9.659936,1.6964054,0,1683969482.8951948
0.05250306,0.6150359,0.61668235,-1.9225457,-2.6395488,-1.024421,-0.20966855,9.659936,1.6964054,0,1683969482.900321
0.05250306,0.6150359,0.61668235,-1.3723087,-1.9381227,0.48075095,-0.20966855,9.659936,1.6964054,0,1683969482.9157183
0.05250306,0.6150359,0.61668235,-1.3723087,-1.9381227,0.48075095,0.19430086,9.208743,3.3760023,0,1683969482.9259837
0.05250306,0.6150359,0.61668235,-1.4946345,-1.8258762,0.52595496,0.19430086,9.208743,3.3760023,0,1683969482.9362543
0.05250306,0.6150359,0.61668235,-1.4946345,-1.8258762,0.52595496,0.24506852,9.184711,3.4376063,0,1683969482.9516408
0.059698608,0.6182068,0.6869303,-1.4946345,-1.8258762,0.52595496,0.24506852,9.184711,3.4376063,0,1683969482.9619088
0.08104131,0.638147,0.81193763,-1.4946345,-1.8258762,0.52595496,0.24506852,9.184711,3.4376063,0,1683969482.97213
0.08104131,0.638147,0.81193763,-1.4946345,-1.8258762,0.52595496,0.4012787,9.101627,3.6380594,0,1683969482.9772654
0.08104131,0.638147,0.81193763,-1.6102408,-1.6606371,0.63056564,0.4012787,9.101627,3.6380594,0,1683969482.982391
0.08104131,0.638147,0.81193763,-1.6022996,-1.5005904,0.744492,0.4012787,9.101627,3.6380594,0,1683969483.0130758
0.10110346,0.6596726,0.97371536,-1.6022996,-1.5005904,0.744492,0.4012787,9.101627,3.6380594,0,1683969483.0182076
0.10110346,0.6596726,0.97371536,-1.6022996,-1.5005904,0.744492,0.51136035,9.039117,3.7774353,0,1683969483.0284364
0.116836086,0.67607605,1.0686599,-1.6022996,-1.5005904,0.744492,0.51136035,9.039117,3.7774353,0,1683969483.0437977
0.116836086,0.67607605,1.0686599,-1.4874569,-1.3642148,0.8518516,0.51136035,9.039117,3.7774353,0,1683969483.0489254
0.116836086,0.67607605,1.0686599,-1.4874569,-1.3642148,0.8518516,0.62613714,8.973907,3.913189,0,1683969483.0591424
0.116836086,0.67607605,1.0686599,-1.24082,-1.1653782,0.9718866,0.62613714,8.973907,3.913189,0,1683969483.079663
0.116836086,0.67607605,1.0686599,-1.24082,-1.1653782,0.9718866,0.8072574,8.878499,4.0934954,0,1683969483.0950425
0.19763349,0.7358966,1.2050703,-1.24082,-1.1653782,0.9718866,0.8072574,8.878499,4.0934954,0,1683969483.1052692
0.26562527,0.79669285,1.2333647,-1.24082,-1.1653782,0.9718866,0.8072574,8.878499,4.0934954,0,1683969483.115537
0.26562527,0.79669285,1.2333647,-1.24082,-1.1653782,0.9718866,0.93074155,8.820731,4.191007,0,1683969483.130926
0.26562527,0.79669285,1.2333647,-1.0192287,-0.9964739,1.0198395,0.93074155,8.820731,4.191007,0,1683969483.1411047
0.34709343,0.8757828,1.2278156,-1.0192287,-0.9964739,1.0198395,0.93074155,8.820731,4.191007,0,1683969483.156457
0.34709343,0.8757828,1.2278156,-0.7787005,-0.79702646,1.0031935,0.93074155,8.820731,4.191007,0,1683969483.171743
0.34709343,0.8757828,1.2278156,-0.7787005,-0.79702646,1.0031935,1.0996497,8.817735,4.156252,0,1683969483.1819303
0.21037814,0.7524219,0.85596454,-0.7787005,-0.79702646,1.0031935,1.0996497,8.817735,4.156252,0,1683969483.181936
0.21037814,0.7524219,0.85596454,1.2023355,0.91828316,-0.6760751,1.0996497,8.817735,4.156252,0,1683969483.1972783
0.21037814,0.7524219,0.85596454,1.263422,1.067487,-0.61422503,1.0996497,8.817735,4.156252,0,1683969483.2176745
0.21037814,0.7524219,0.85596454,1.263422,1.067487,-0.61422503,0.96910477,8.887872,4.037659,0,1683969483.2227628
0.15622863,0.73046947,0.85084236,1.263422,1.067487,-0.61422503,0.96910477,8.887872,4.037659,0,1683969483.2330186
0.15622863,0.73046947,0.85084236,1.263422,1.067487,-0.61422503,0.8822018,8.935456,3.951642,0,1683969483.2534933
0.15622863,0.73046947,0.85084236,1.3752104,1.1888965,-0.56413406,0.8822018,8.935456,3.951642,0,1683969483.2586272
0.1589117,0.737665,0.82565796,1.3752104,1.1888965,-0.56413406,0.8822018,8.935456,3.951642,0,1683969483.2637625
0.16141187,0.7320549,0.76321524,1.3752104,1.1888965,-0.56413406,0.8822018,8.935456,3.951642,0,1683969483.274026
0.16141187,0.7320549,0.76321524,1.3752104,1.1888965,-0.56413406,0.7952226,8.985769,3.8548238,0,1683969483.2842848
0.16141187,0.7320549,0.76321524,1.5102116,1.3127494,-0.54199016,0.7952226,8.985769,3.8548238,0,1683969483.2996671
0.1554359,0.71132195,0.66449,1.5102116,1.3127494,-0.54199016,0.7952226,8.985769,3.8548238,0,1683969483.325283
0.1554359,0.71132195,0.66449,1.6800321,1.4184291,-0.54519725,0.7952226,8.985769,3.8548238,0,1683969483.330411
0.1554359,0.71132195,0.66449,1.6800321,1.4184291,-0.54519725,0.70636064,9.039376,3.745244,0,1683969483.3355577
0.1554359,0.71132195,0.66449,1.796402,1.4463762,-0.5520695,0.70636064,9.039376,3.745244,0,1683969483.3458245
0.16659509,0.6862595,0.56728923,1.796402,1.4463762,-0.5520695,0.70636064,9.039376,3.745244,0,1683969483.356081
0.16659509,0.6862595,0.56728923,1.796402,1.4463762,-0.5520695,0.61663574,9.095744,3.6226127,0,1683969483.3663
0.15726528,0.65095264,0.4680151,1.796402,1.4463762,-0.5520695,0.61663574,9.095744,3.6226127,0,1683969483.3868124
0.15726528,0.65095264,0.4680151,1.796402,1.4463762,-0.5520695,0.52773476,9.153914,3.4876146,0,1683969483.3970757
0.15726528,0.65095264,0.4680151,1.882534,1.3990341,-0.57940567,0.52773476,9.153914,3.4876146,0,1683969483.4072957
0.15726528,0.65095264,0.4680151,1.9423988,1.2680036,-0.61498857,0.52773476,9.153914,3.4876146,0,1683969483.4124253
0.10854292,0.582351,0.40935317,1.9423988,1.2680036,-0.61498857,0.52773476,9.153914,3.4876146,0,1683969483.4380336
0.10854292,0.582351,0.40935317,1.9423988,1.2680036,-0.61498857,0.39583802,9.24144,3.2672956,0,1683969483.4431665
0.10854292,0.582351,0.40935317,1.9423988,1.2680036,-0.61498857,1.1478976,9.622191,-1.5270525,0,1683969483.4482994
0.10854292,0.582351,0.40935317,0.6630942,-0.83092946,-0.4804455,1.1478976,9.622191,-1.5270525,0,1683969483.4534295
0.21159773,1.3831295,-1.1000642,0.6630942,-0.83092946,-0.4804455,1.1478976,9.622191,-1.5270525,0,1683969483.4636905
0.21159773,1.3831295,-1.1000642,0.6630942,-0.83092946,-0.4804455,1.0669041,9.612442,-1.6428005,0,1683969483.4893289
0.17098558,1.3419076,-1.0837218,0.6630942,-0.83092946,-0.4804455,1.0669041,9.612442,-1.6428005,0,1683969483.4995873
0.17098558,1.3419076,-1.0837218,0.50671273,-0.9737192,-0.57940567,1.0669041,9.612442,-1.6428005,0,1683969483.5047283
0.12482436,1.2897094,-1.0431706,0.50671273,-0.9737192,-0.57940567,1.0669041,9.612442,-1.6428005,0,1683969483.5200791
0.12482436,1.2897094,-1.0431706,0.50671273,-0.9737192,-0.57940567,0.9994189,9.609156,-1.7033525,0,1683969483.5354543
0.12482436,1.2897094,-1.0431706,0.30757064,-1.0367911,-0.6204864,0.9994189,9.609156,-1.7033525,0,1683969483.5405815
0.12482436,1.2897094,-1.0431706,0.30757064,-1.0367911,-0.6204864,0.9283845,9.608956,-1.7441924,0,1683969483.5661623
0.07896802,1.2220836,-0.97694725,0.30757064,-1.0367911,-0.6204864,0.9283845,9.608956,-1.7441924,0,1683969483.5763934
0.07896802,1.2220836,-0.97694725,-0.010079277,-1.0048733,-0.61269784,0.9283845,9.608956,-1.7441924,0,1683969483.5815194
0.07896802,1.2220836,-0.97694725,-0.010079277,-1.0048733,-0.61269784,0.8583379,9.612323,-1.7614293,0,1683969483.5866494
0.07896802,1.2220836,-0.97694725,-0.27916542,-0.9466884,-0.5656612,0.8583379,9.612323,-1.7614293,0,1683969483.5969076
0.052686002,1.1758003,-0.92609066,-0.27916542,-0.9466884,-0.5656612,0.8583379,9.612323,-1.7614293,0,1683969483.602039
0.052746978,1.1358589,-0.8698678,-0.27916542,-0.9466884,-0.5656612,0.8583379,9.612323,-1.7614293,0,1683969483.6277122
0.052746978,1.1358589,-0.8698678,-0.27916542,-0.9466884,-0.5656612,0.7932841,9.619208,-1.7543309,0,1683969483.6328435
0.052746978,1.1358589,-0.8698678,-0.56413406,-0.9069822,-0.50533825,0.7932841,9.619208,-1.7543309,0,1683969483.6379762
0.052746978,1.1358589,-0.8698678,-0.56413406,-0.9069822,-0.50533825,0.7331537,9.629083,-1.7260964,0,1683969483.6636024
0.052746978,1.1358589,-0.8698678,-0.7295258,-0.9669997,-0.4729624,0.7331537,9.629083,-1.7260964,0,1683969483.6789894
0.051466417,1.1093941,-0.82669455,-0.7295258,-0.9669997,-0.4729624,0.7331537,9.629083,-1.7260964,0,1683969483.6892471
0.051466417,1.1093941,-0.82669455,-0.8391761,-1.0881038,-0.45723262,0.7331537,9.629083,-1.7260964,0,1683969483.69437
0.051466417,1.1093941,-0.82669455,-0.8391761,-1.0881038,-0.45723262,0.6474453,9.647471,-1.6562637,0,1683969483.7097483
0.051466417,1.1093941,-0.82669455,-0.8391761,-1.0881038,-0.45723262,-0.3294136,9.715395,1.318601,0,1683969483.7404737
0.051466417,1.1093941,-0.82669455,-1.6316211,-2.9043589,0.6620252,-0.3294136,9.715395,1.318601,0,1683969483.745604
0.17616881,0.6014985,0.43295208,-1.6316211,-2.9043589,0.6620252,-0.3294136,9.715395,1.318601,0,1683969483.7507424
0.19068186,0.63887876,0.43965977,-1.6316211,-2.9043589,0.6620252,-0.3294136,9.715395,1.318601,0,1683969483.7558727
0.19068186,0.63887876,0.43965977,-1.6261233,-2.6290114,0.7107417,-0.3294136,9.715395,1.318601,0,1683969483.7762613
0.19068186,0.63887876,0.43965977,-1.6261233,-2.6290114,0.7107417,-0.22670606,9.694894,1.4811343,0,1683969483.7813845
0.19068186,0.63887876,0.43965977,-1.5980235,-2.434756,0.7344127,-0.22670606,9.694894,1.4811343,0,1683969483.8121576
0.19068186,0.63887876,0.43965977,-1.5980235,-2.434756,0.7344127,-0.12039374,9.671501,1.6381946,0,1683969483.817288
0.19684075,0.6435742,0.4063042,-1.5980235,-2.434756,0.7344127,-0.12039374,9.671501,1.6381946,0,1683969483.8224125
0.19684075,0.6435742,0.4063042,-1.5980235,-2.434756,0.7344127,-0.011164382,9.645522,1.7888305,0,1683969483.8377976
0.19684075,0.6435742,0.4063042,-1.5431983,-2.4060454,0.73945236,-0.011164382,9.645522,1.7888305,0,1683969483.853183
0.21068303,0.6517453,0.38794947,-1.5431983,-2.4060454,0.73945236,-0.011164382,9.645522,1.7888305,0,1683969483.8583143
0.21068303,0.6517453,0.38794947,-1.5431983,-2.4060454,0.73945236,0.15755747,9.603102,1.9979317,0,1683969483.8736634
0.21068303,0.6517453,0.38794947,-1.4382823,-2.4741569,0.6951646,0.15755747,9.603102,1.9979317,0,1683969483.8838801
0.2289158,0.67906404,0.41752437,-1.4382823,-2.4741569,0.6951646,0.15755747,9.603102,1.9979317,0,1683969483.8941305
0.2289158,0.67906404,0.41752437,-1.4382823,-2.4741569,0.6951646,0.26965678,9.573438,2.124307,0,1683969483.9094796
0.24013597,0.6817471,0.47472283,-1.4382823,-2.4741569,0.6951646,0.26965678,9.573438,2.124307,0,1683969483.914614
0.24013597,0.6817471,0.47472283,-1.3271047,-2.5178337,0.6302602,0.26965678,9.573438,2.124307,0,1683969483.9299252
0.24013597,0.6817471,0.47472283,-1.3271047,-2.5178337,0.6302602,0.37894592,9.543453,2.23943,0,1683969483.9401367
0.24489233,0.6805885,0.5497882,-1.3271047,-2.5178337,0.6302602,0.37894592,9.543453,2.23943,0,1683969483.9503992
0.24489233,0.6805885,0.5497882,-1.2266175,-2.4853053,0.5879578,0.37894592,9.543453,2.23943,0,1683969483.9554896
0.23848954,0.67888105,0.6107673,-1.2266175,-2.4853053,0.5879578,0.37894592,9.543453,2.23943,0,1683969483.9760056
0.23848954,0.67888105,0.6107673,-1.1328496,-2.3813055,0.6026186,0.37894592,9.543453,2.23943,0,1683969483.9913516
0.75858086,1.2106804,0.9581657,-1.1328496,-2.3813055,0.6026186,0.37894592,9.543453,2.23943,0,1683969484.0015872
0.75858086,1.2106804,0.9581657,-0.29932398,-0.08475755,0.12293663,0.37894592,9.543453,2.23943,0,1683969484.0169823
0.75858086,1.2106804,0.9581657,-0.29932398,-0.08475755,0.12293663,2.0115395,9.0619335,3.173515,0,1683969484.0220726
0.75858086,1.2106804,0.9581657,-0.29932398,-0.08475755,0.12293663,2.0292637,9.047926,3.2020693,0,1683969484.0374675
0.7793747,1.2170832,0.9815207,-0.29932398,-0.08475755,0.12293663,2.0292637,9.047926,3.2020693,0,1683969484.0477316
0.7793747,1.2170832,0.9815207,-0.1253801,-0.026419923,-0.055588737,2.0292637,9.047926,3.2020693,0,1683969484.0528612
0.7714474,1.2122658,0.99213105,-0.1253801,-0.026419923,-0.055588737,2.0292637,9.047926,3.2020693,0,1683969484.07843
0.7714474,1.2122658,0.99213105,0.084146686,0.013744468,-0.24984388,2.0292637,9.047926,3.2020693,0,1683969484.0886526
0.7714474,1.2122658,0.99213105,0.084146686,0.013744468,-0.24984388,2.030623,9.042204,3.2173316,0,1683969484.093786
0.7714474,1.2122658,0.99213105,0.23090707,0.056046885,-0.40042216,2.030623,9.042204,3.2173316,0,1683969484.1040442
0.7714474,1.2122658,0.99213105,0.23090707,0.056046885,-0.40042216,2.014556,9.046116,3.2164388,0,1683969484.114298
0.7574832,1.2043995,0.9726787,0.23090707,0.056046885,-0.40042216,2.014556,9.046116,3.2164388,0,1683969484.1245515
0.7090658,1.1673242,0.92846876,0.23090707,0.056046885,-0.40042216,2.014556,9.046116,3.2164388,0,1683969484.150187
0.7090658,1.1673242,0.92846876,0.23090707,0.056046885,-0.40042216,1.9556417,9.069088,3.1879845,0,1683969484.1552894
0.7090658,1.1673242,0.92846876,0.48640144,0.15745051,-0.7130325,1.9556417,9.069088,3.1879845,0,1683969484.1706758
0.65387964,1.1190897,0.8861493,0.48640144,0.15745051,-0.7130325,1.9556417,9.069088,3.1879845,0,1683969484.1809375
0.65387964,1.1190897,0.8861493,0.48640144,0.15745051,-0.7130325,1.8924811,9.094186,3.1544297,0,1683969484.1911595
0.65387964,1.1190897,0.8861493,0.61468315,0.25717425,-0.8921687,1.8924811,9.094186,3.1544297,0,1683969484.1962914
0.65387964,1.1190897,0.8861493,0.7144069,0.37033707,-1.0311406,1.8924811,9.094186,3.1544297,0,1683969484.2219214
0.5957664,1.0756725,0.8355366,0.7144069,0.37033707,-1.0311406,1.8924811,9.094186,3.1544297,0,1683969484.23218
0.5957664,1.0756725,0.8355366,0.7144069,0.37033707,-1.0311406,1.8542175,9.108964,3.1344445,0,1683969484.2424383
0.5957664,1.0756725,0.8355366,0.8237518,0.4885395,-1.161713,1.8542175,9.108964,3.1344445,0,1683969484.2526982
0.544544,1.0399997,0.7830335,0.8237518,0.4885395,-1.161713,1.8542175,9.108964,3.1344445,0,1683969484.2578282
0.544544,1.0399997,0.7830335,0.8237518,0.4885395,-1.161713,1.7179909,9.159404,3.0643013,0,1683969484.2680821
-0.15555786,0.6665633,-0.3521547,0.8237518,0.4885395,-1.161713,1.7179909,9.159404,3.0643013,0,1683969484.2732036
-0.15555786,0.6665633,-0.3521547,2.1862867,1.2276864,-1.3599387,1.7179909,9.159404,3.0643013,0,1683969484.278338
-0.15555786,0.6665633,-0.3521547,2.1862867,1.2276864,-1.3599387,-1.8321692,9.634996,-0.21476415,0,1683969484.283457
-0.15555786,0.6665633,-0.3521547,2.2941043,0.6769914,-1.420109,-1.8321692,9.634996,-0.21476415,0,1683969484.2988596
-0.11378712,0.6718685,-0.3849005,2.2941043,0.6769914,-1.420109,-1.8321692,9.634996,-0.21476415,0,1683969484.303993
-0.11378712,0.6718685,-0.3849005,2.2941043,0.6769914,-1.420109,-1.9490012,9.604394,-0.43947908,0,1683969484.3142855
-0.10250599,0.65906286,-0.33008024,2.2941043,0.6769914,-1.420109,-1.9490012,9.604394,-0.43947908,0,1683969484.3398626
-0.10250599,0.65906286,-0.33008024,2.2941043,0.6769914,-1.420109,-2.0686333,9.5665455,-0.66189724,0,1683969484.35013
-0.10250599,0.65906286,-0.33008024,2.2310326,0.43203443,-1.4767667,-2.0686333,9.5665455,-0.66189724,0,1683969484.3552196
-0.10250599,0.65906286,-0.33008024,2.2310326,0.43203443,-1.4767667,-2.1919653,9.522232,-0.87092996,0,1683969484.3706033
-0.11049425,0.6260121,-0.24336785,2.2310326,0.43203443,-1.4767667,-2.1919653,9.522232,-0.87092996,0,1683969484.3859499
-0.11049425,0.6260121,-0.24336785,1.983174,0.48655418,-1.4807373,-2.1919653,9.522232,-0.87092996,0,1683969484.3962104
-0.16397297,0.69290626,-0.06274756,1.983174,0.48655418,-1.4807373,-2.1919653,9.522232,-0.87092996,0,1683969484.4064763
-0.16397297,0.69290626,-0.06274756,1.7591392,0.8249735,-1.4581354,-2.1919653,9.522232,-0.87092996,0,1683969484.4116056
-0.16397297,0.69290626,-0.06274756,1.7591392,0.8249735,-1.4581354,-2.373942,9.4491415,-1.1464034,0,1683969484.4167366
-0.16397297,0.69290626,-0.06274756,1.6899587,1.3901765,-1.4880677,-2.373942,9.4491415,-1.1464034,0,1683969484.4474747
-0.2555027,0.77522814,-0.107506275,1.6899587,1.3901765,-1.4880677,-2.373942,9.4491415,-1.1464034,0,1683969484.4526036
-0.2555027,0.77522814,-0.107506275,1.6899587,1.3901765,-1.4880677,-2.488586,9.397639,-1.3143214,0,1683969484.4628706
-0.2555027,0.77522814,-0.107506275,1.6899587,1.3901765,-1.4880677,-2.5444722,9.37,-1.4930205,0,1683969484.4885232
-0.2555027,0.77522814,-0.107506275,1.7345519,1.5242615,-1.4932601,-2.5444722,9.37,-1.4930205,0,1683969484.4987433
-0.3196528,0.75364155,-0.25312454,1.7345519,1.5242615,-1.4932601,-2.5444722,9.37,-1.4930205,0,1683969484.5038834
-0.40898728,0.71693206,-0.41380462,1.7345519,1.5242615,-1.4932601,-2.5444722,9.37,-1.4930205,0,1683969484.5090184
-0.40898728,0.71693206,-0.41380462,1.7345519,1.5242615,-1.4932601,-2.7074723,9.2771435,-1.6853249,0,1683969484.5192366
-0.40898728,0.71693206,-0.41380462,1.835192,1.4527903,-1.4509577,-2.7074723,9.2771435,-1.6853249,0,1683969484.5346453
-0.40898728,0.71693206,-0.41380462,-0.7305948,-0.5636759,0.30695978,-2.7074723,9.2771435,-1.6853249,0,1683969484.5500183
-0.79260725,0.7030898,-0.9437745,-0.7305948,-0.5636759,0.30695978,-2.7074723,9.2771435,-1.6853249,0,1683969484.5602868
-0.79260725,0.7030898,-0.9437745,-0.7305948,-0.5636759,0.30695978,-3.816466,8.164107,-3.8753166,0,1683969484.5807633
-0.79260725,0.7030898,-0.9437745,-0.7305948,-0.5636759,0.30695978,-3.8174632,8.212783,-3.770049,0,1683969484.6012914
-0.79260725,0.7030898,-0.9437745,-0.9111055,-0.63713247,0.4173737,-3.8174632,8.212783,-3.770049,0,1683969484.6064303
-0.74095786,0.6928453,-0.87468517,-0.9111055,-0.63713247,0.4173737,-3.8174632,8.212783,-3.770049,0,1683969484.6115625
-0.74095786,0.6928453,-0.87468517,-0.9111055,-0.63713247,0.4173737,-3.81199,8.254281,-3.6839821,0,1683969484.6320982
-0.74095786,0.6928453,-0.87468517,-1.0326678,-0.69913524,0.49754974,-3.81199,8.254281,-3.6839821,0,1683969484.6372256
-0.70827305,0.6651608,-0.81102294,-1.0326678,-0.69913524,0.49754974,-3.81199,8.254281,-3.6839821,0,1683969484.6474738
-0.70827305,0.6651608,-0.81102294,-1.0326678,-0.69913524,0.49754974,-3.8019567,8.301707,-3.5864933,0,1683969484.6679697
-0.70827305,0.6651608,-0.81102294,-1.148274,-0.78801614,0.6082691,-3.8019567,8.301707,-3.5864933,0,1683969484.6730578
-0.6669901,0.63467115,-0.717237,-1.148274,-0.78801614,0.6082691,-3.8019567,8.301707,-3.5864933,0,1683969484.6883416
-0.63479316,0.6272317,-0.65845305,-1.148274,-0.78801614,0.6082691,-3.8019567,8.301707,-3.5864933,0,1683969484.7036922
-0.63479316,0.6272317,-0.65845305,-1.2195925,-0.8568912,0.691194,-3.8019567,8.301707,-3.5864933,0,1683969484.7088208
-0.63479316,0.6272317,-0.65845305,-1.2195925,-0.8568912,0.691194,-3.7864666,8.35429,-3.4791694,0,1683969484.724216
-0.63479316,0.6272317,-0.65845305,-1.2774719,-0.9245446,0.7863363,-3.7864666,8.35429,-3.4791694,0,1683969484.7293434
-0.63479316,0.6272317,-0.65845305,-1.2774719,-0.9245446,0.7863363,-3.7534113,8.440095,-3.303456,0,1683969484.7446785
-0.58119243,0.60351086,-0.582534,-1.2774719,-0.9245446,0.7863363,-3.7534113,8.440095,-3.303456,0,1683969484.7498124
-0.58119243,0.60351086,-0.582534,-1.3009902,-0.94913185,0.8216137,-3.7534113,8.440095,-3.303456,0,1683969484.7856803
-0.56045955,0.60223025,-0.55527633,-1.3009902,-0.94913185,0.8216137,-3.7534113,8.440095,-3.303456,0,1683969484.7959461
-0.56045955,0.60223025,-0.55527633,-1.3009902,-0.94913185,0.8216137,-3.690238,8.562615,-3.049564,0,1683969484.8164268
-0.49283364,0.62357295,-0.4721617,-1.3009902,-0.94913185,0.8216137,-3.690238,8.562615,-3.049564,0,1683969484.821561
-0.36020395,0.65784323,-0.34123942,-1.3009902,-0.94913185,0.8216137,-3.690238,8.562615,-3.049564,0,1683969484.8266912
-0.3474593,0.6472329,-0.34837398,-1.3009902,-0.94913185,0.8216137,-3.690238,8.562615,-3.049564,0,1683969484.8369477
-0.3474593,0.6472329,-0.34837398,-1.3009902,-0.94913185,0.8216137,-3.3063667,9.036617,-1.90883,0,1683969484.842081
-0.3474593,0.6472329,-0.34837398,-0.93447113,-1.8643607,1.1794281,-3.3063667,9.036617,-1.90883,0,1683969484.8676665
-0.3474593,0.6472329,-0.34837398,-0.9815077,-1.8852829,1.244027,-3.3063667,9.036617,-1.90883,0,1683969484.8779259
-0.3474593,0.6472329,-0.34837398,-0.9815077,-1.8852829,1.244027,-3.2416625,9.085821,-1.7820302,0,1683969484.8830585
-0.33264136,0.63796407,-0.36715558,-0.9815077,-1.8852829,1.244027,-3.2416625,9.085821,-1.7820302,0,1683969484.8933198
-0.33264136,0.63796407,-0.36715558,-1.0700831,-1.9176587,1.3095424,-3.2416625,9.085821,-1.7820302,0,1683969484.9189792
-0.3179454,0.6259512,-0.36563107,-1.0700831,-1.9176587,1.3095424,-3.2416625,9.085821,-1.7820302,0,1683969484.9343672
-0.3179454,0.6259512,-0.36563107,-1.0700831,-1.9176587,1.3095424,-3.1689246,9.136075,-1.651124,0,1683969484.9394844
-0.3179454,0.6259512,-0.36563107,-1.0700831,-1.9176587,1.3095424,-3.0883813,9.187512,-1.5125076,0,1683969484.9548838
-0.3020908,0.6154627,-0.33593425,-1.0700831,-1.9176587,1.3095424,-3.0883813,9.187512,-1.5125076,0,1683969484.9600172
-0.3020908,0.6154627,-0.33593425,-1.2066116,-1.9159788,1.3782647,-3.0883813,9.187512,-1.5125076,0,1683969484.9651504
-0.3020908,0.6154627,-0.33593425,-1.2066116,-1.9159788,1.3782647,-3.0000522,9.239722,-1.3650355,0,1683969484.9907205
-0.3020908,0.6154627,-0.33593425,-1.3187053,-1.898111,1.446987,-3.0000522,9.239722,-1.3650355,0,1683969484.995864
-0.29410252,0.60399866,-0.29757833,-1.3187053,-1.898111,1.446987,-3.0000522,9.239722,-1.3650355,0,1683969485.0111864
-0.29410252,0.60399866,-0.29757833,-1.4388931,-1.8312213,1.559539,-3.0000522,9.239722,-1.3650355,0,1683969485.0317173
-0.29032183,0.58204615,-0.22635466,-1.4388931,-1.8312213,1.559539,-3.0000522,9.239722,-1.3650355,0,1683969485.03685
-0.29032183,0.58204615,-0.22635466,-1.4388931,-1.8312213,1.559539,-2.9026034,9.292456,-1.2088324,0,1683969485.0419812
-0.26940596,0.57271636,-0.15403338,-1.4388931,-1.8312213,1.559539,-2.9026034,9.292456,-1.2088324,0,1683969485.0521884
-0.26940596,0.57271636,-0.15403338,-1.5830573,-1.6916386,1.7203492,-2.9026034,9.292456,-1.2088324,0,1683969485.0624514
-0.26940596,0.57271636,-0.15403338,-1.5830573,-1.6916386,1.7203492,-2.7308815,9.373275,-0.95922875,0,1683969485.0778294
-0.26940596,0.57271636,-0.15403338,-1.6665931,-1.5900823,1.8229746,-2.7308815,9.373275,-0.95922875,0,1683969485.093207
0.8218162,1.0578667,0.9550557,-1.6665931,-1.5900823,1.8229746,-2.7308815,9.373275,-0.95922875,0,1683969485.1034586
0.8218162,1.0578667,0.9550557,0.40515637,0.5849035,-0.50946164,-2.7308815,9.373275,-0.95922875,0,1683969485.1137211
0.8218162,1.0578667,0.9550557,0.40515637,0.5849035,-0.50946164,3.3673222,8.290136,4.021305,0,1683969485.1188526
0.7966318,1.0219499,0.942372,0.40515637,0.5849035,-0.50946164,3.3673222,8.290136,4.021305,0,1683969485.1444552
0.7966318,1.0219499,0.942372,0.6620252,0.57360244,-0.7432703,3.3673222,8.290136,4.021305,0,1683969485.1495843
0.7966318,1.0219499,0.942372,0.6620252,0.57360244,-0.7432703,3.2774026,8.335792,4.001163,0,1683969485.159847
0.7966318,1.0219499,0.942372,0.6620252,0.57360244,-0.7432703,3.2002952,8.381307,3.968366,0,1683969485.1803145
0.7966318,1.0219499,0.942372,0.8555168,0.59666264,-0.9069822,3.2002952,8.381307,3.968366,0,1683969485.185442
0.76541054,0.9947531,0.9408476,0.8555168,0.59666264,-0.9069822,3.2002952,8.381307,3.968366,0,1683969485.2008424
0.76541054,0.9947531,0.9408476,0.8555168,0.59666264,-0.9069822,3.1093898,8.437183,3.9219596,0,1683969485.2059772
0.71504176,0.9693248,0.90139407,0.8555168,0.59666264,-0.9069822,3.1093898,8.437183,3.9219596,0,1683969485.2111163
0.71504176,0.9693248,0.90139407,1.0671816,0.68966687,-1.0929906,3.1093898,8.437183,3.9219596,0,1683969485.2265174
0.71504176,0.9693248,0.90139407,1.204779,0.79091775,-1.2110404,3.1093898,8.437183,3.9219596,0,1683969485.2521775
0.71504176,0.9693248,0.90139407,1.204779,0.79091775,-1.2110404,3.0046363,8.501414,3.8644843,0,1683969485.2573085
0.6655876,0.93706685,0.8653554,1.204779,0.79091775,-1.2110404,3.0046363,8.501414,3.8644843,0,1683969485.2624478
0.63363457,0.91895604,0.8327925,1.204779,0.79091775,-1.2110404,3.0046363,8.501414,3.8644843,0,1683969485.2778435
0.63363457,0.91895604,0.8327925,1.204779,0.79091775,-1.2110404,2.886552,8.572075,3.7978246,0,1683969485.2829769
0.63363457,0.91895604,0.8327925,1.2942708,0.88453287,-1.2852604,2.886552,8.572075,3.7978246,0,1683969485.288117
0.600096,0.8866371,0.76388603,1.2942708,0.88453287,-1.2852604,2.886552,8.572075,3.7978246,0,1683969485.3239942
0.600096,0.8866371,0.76388603,1.4388931,1.0178542,-1.3912456,2.886552,8.572075,3.7978246,0,1683969485.3342545
0.600096,0.8866371,0.76388603,1.4388931,1.0178542,-1.3912456,2.7569752,8.647219,3.7230089,0,1683969485.3393557
0.56802094,0.86834335,0.6954674,1.4388931,1.0178542,-1.3912456,2.7569752,8.647219,3.7230089,0,1683969485.3495872
0.56802094,0.86834335,0.6954674,1.5726726,1.1154399,-1.4897476,2.7569752,8.647219,3.7230089,0,1683969485.3701115
0.56802094,0.86834335,0.6954674,1.5726726,1.1154399,-1.4897476,-3.6642368,8.944747,-1.6736182,0,1683969485.3803334
0.56802094,0.86834335,0.6954674,2.2441661,0.48655418,-2.8834367,-3.6642368,8.944747,-1.6736182,0,1683969485.4008586
-0.4179512,0.4667955,-0.40496266,2.2441661,0.48655418,-2.8834367,-3.6642368,8.944747,-1.6736182,0,1683969485.4110842
-0.45935607,0.47819862,-0.41782925,2.2441661,0.48655418,-2.8834367,-3.6642368,8.944747,-1.6736182,0,1683969485.416179
-0.45935607,0.47819862,-0.41782925,2.2441661,0.48655418,-2.8834367,-3.892132,8.806945,-1.8775469,0,1683969485.4367037
-0.45935607,0.47819862,-0.41782925,2.107027,0.5007568,-2.769663,-3.892132,8.806945,-1.8775469,0,1683969485.4418387
-0.52039623,0.5225305,-0.42606148,2.107027,0.5007568,-2.769663,-3.892132,8.806945,-1.8775469,0,1683969485.457237
-0.52039623,0.5225305,-0.42606148,1.9486601,0.59941155,-2.6392434,-3.892132,8.806945,-1.8775469,0,1683969485.4623778
-0.52039623,0.5225305,-0.42606148,1.9486601,0.59941155,-2.6392434,-4.1059256,8.665848,-2.0689573,0,1683969485.4726355
-0.52039623,0.5225305,-0.42606148,1.9486601,0.59941155,-2.6392434,-4.3051753,8.522398,-2.2517383,0,1683969485.488024
-0.52039623,0.5225305,-0.42606148,1.8148806,0.7165449,-2.5503623,-4.3051753,8.522398,-2.2517383,0,1683969485.4931633
-0.5702162,0.53911686,-0.48350382,1.8148806,0.7165449,-2.5503623,-4.3051753,8.522398,-2.2517383,0,1683969485.5034156
-0.60546213,0.54801977,-0.53265303,1.8148806,0.7165449,-2.5503623,-4.3051753,8.522398,-2.2517383,0,1683969485.5341492
-0.60546213,0.54801977,-0.53265303,1.6988163,0.78954333,-2.489123,-4.3051753,8.522398,-2.2517383,0,1683969485.539248
-0.6866864,0.53582394,-0.6231461,1.6988163,0.78954333,-2.489123,-4.3051753,8.522398,-2.2517383,0,1683969485.5700378
-0.6866864,0.53582394,-0.6231461,1.5028812,0.88422745,-2.4065037,-4.3051753,8.522398,-2.2517383,0,1683969485.5802982
-0.7630323,0.5177741,-0.7169931,1.5028812,0.88422745,-2.4065037,-4.3051753,8.522398,-2.2517383,0,1683969485.6008253
-0.7630323,0.5177741,-0.7169931,1.3356569,0.82924956,-2.3021984,-4.3051753,8.522398,-2.2517383,0,1683969485.6059635
-0.7630323,0.5177741,-0.7169931,1.3356569,0.82924956,-2.3021984,-4.6639547,8.231248,-2.5942688,0,1683969485.6110833
-0.7630323,0.5177741,-0.7169931,1.2180653,0.6606508,-2.1887302,-4.6639547,8.231248,-2.5942688,0,1683969485.6418672
-0.7630323,0.5177741,-0.7169931,1.2180653,0.6606508,-2.1887302,-4.979028,7.940271,-2.897838,0,1683969485.6469972
-0.83029234,0.5144203,-0.7866313,1.2180653,0.6606508,-2.1887302,-4.979028,7.940271,-2.897838,0,1683969485.6521285
-0.83029234,0.5144203,-0.7866313,1.2180653,0.6606508,-2.1887302,-6.385203,6.527256,-3.586118,0,1683969485.667525
-1.355262,0.23672113,-0.8979183,1.2180653,0.6606508,-2.1887302,-6.385203,6.527256,-3.586118,0,1683969485.672622
-1.355262,0.23672113,-0.8979183,1.2180653,0.6606508,-2.1887302,-6.360691,6.586417,-3.5209146,0,1683969485.6880407
-1.2754403,0.25830775,-0.875234,1.2180653,0.6606508,-2.1887302,-6.360691,6.586417,-3.5209146,0,1683969485.6880553
-1.2754403,0.25830775,-0.875234,1.2180653,0.6606508,-2.1887302,-6.3155465,6.6717978,-3.4405181,0,1683969485.6932087
-1.1632386,0.29904184,-0.81559634,-0.76083267,-0.63194007,1.1026118,-6.3155465,6.6717978,-3.4405181,0,1683969485.6932178
-1.077319,0.33044612,-0.7619347,-1.1724031,-0.7643451,1.6339118,-6.254431,6.777001,-3.345214,0,1683969485.6984003
-1.0004852,0.3591063,-0.6743686,-1.2341005,-0.8857546,1.791515,-6.1817603,6.896086,-3.2351136,0,1683969485.7035625
-1.0004852,0.3591063,-0.6743686,-1.2341005,-0.8857546,1.791515,-6.055775,7.0895844,-3.0498312,0,1683969485.7342649
-1.0004852,0.3591063,-0.6743686,-1.2341005,-0.8857546,1.791515,-6.0098066,7.1561785,-2.984536,0,1683969485.7394688
-0.84157354,0.4253907,-0.53899485,-1.1375839,-1.2142473,2.0633502,-6.0098066,7.1561785,-2.984536,0,1683969485.73948
-0.7711426,0.45624614,-0.4989925,-1.05023,-1.36788,2.1389446,-5.8618884,7.3574014,-2.7826223,0,1683969485.7446544
0.40740183,0.56021565,0.35398406,-2.410016,-0.16432275,3.6931386,0.70922405,9.5001545,2.3409827,0,1683969485.7498357
0.4753326,0.6077184,0.45155072,-2.410016,-0.16432275,3.6931386,0.70922405,9.5001545,2.3409827,0,1683969485.7652218
0.4753326,0.6077184,0.45155072,-2.3658812,-0.24648413,3.5961637,0.70922405,9.5001545,2.3409827,0,1683969485.7703526
0.4753326,0.6077184,0.45155072,-2.3658812,-0.24648413,3.5961637,1.0405294,9.414534,2.5534232,0,1683969485.780612
0.4753326,0.6077184,0.45155072,-2.2434027,-0.31108314,3.495829,1.0405294,9.414534,2.5534232,0,1683969485.7960002
0.5166765,0.6347321,0.52149385,-2.2434027,-0.31108314,3.495829,1.0405294,9.414534,2.5534232,0,1683969485.8011298
0.5166765,0.6347321,0.52149385,-2.2434027,-0.31108314,3.495829,1.3631015,9.314986,2.758458,0,1683969485.8165147
0.5166765,0.6347321,0.52149385,-2.2434027,-0.31108314,3.495829,1.6749607,9.205001,2.9493368,0,1683969485.8267708
0.5572277,0.67522234,0.5705211,-2.2434027,-0.31108314,3.495829,1.6749607,9.205001,2.9493368,0,1683969485.8421636
0.5572277,0.67522234,0.5705211,-2.098933,-0.34223726,3.382208,1.6749607,9.205001,2.9493368,0,1683969485.847256
0.5572277,0.67522234,0.5705211,-2.098933,-0.34223726,3.382208,1.9747039,9.087204,3.1240008,0,1683969485.8575115
0.5572277,0.67522234,0.5705211,-1.9711094,-0.3849978,3.211166,1.9747039,9.087204,3.1240008,0,1683969485.8780644
0.6524771,0.73303056,0.5573496,-1.9711094,-0.3849978,3.211166,1.9747039,9.087204,3.1240008,0,1683969485.8883293
0.6524771,0.73303056,0.5573496,-1.8383989,-0.4821254,2.9243646,1.9747039,9.087204,3.1240008,0,1683969485.8985846
0.74254334,0.81943804,0.5721675,-1.8383989,-0.4821254,2.9243646,1.9747039,9.087204,3.1240008,0,1683969485.9037035
0.74254334,0.81943804,0.5721675,-1.8383989,-0.4821254,2.9243646,2.2574193,8.964768,3.2822394,0,1683969485.92423
0.81340116,0.8735266,0.60924286,-1.8383989,-0.4821254,2.9243646,2.2574193,8.964768,3.2822394,0,1683969485.9344928
0.81340116,0.8735266,0.60924286,-1.8383989,-0.4821254,2.9243646,2.6353097,8.783346,3.484836,0,1683969485.9447114
0.81340116,0.8735266,0.60924286,-1.6007724,-0.6968445,2.4643831,2.6353097,8.783346,3.484836,0,1683969485.95491
0.89084464,0.93109095,0.67686874,-1.6007724,-0.6968445,2.4643831,2.6353097,8.783346,3.484836,0,1683969485.9752827
0.89084464,0.93109095,0.67686874,-1.2234104,-1.0862712,1.9743165,2.6353097,8.783346,3.484836,0,1683969485.9804122
0.6938819,0.8825515,0.5353971,-1.2234104,-1.0862712,1.9743165,2.6353097,8.783346,3.484836,0,1683969485.990665
0.6938819,0.8825515,0.5353971,-1.2234104,-1.0862712,1.9743165,2.964141,8.744838,3.3132725,0,1683969485.9957926
0.6938819,0.8825515,0.5353971,1.3232869,1.1155926,-2.5062275,2.964141,8.744838,3.3132725,0,1683969486.0111585
0.6208289,0.81529146,0.47271052,1.3232869,1.1155926,-2.5062275,2.964141,8.744838,3.3132725,0,1683969486.0316408
0.6208289,0.81529146,0.47271052,1.4237741,1.1183416,-2.6508498,2.964141,8.744838,3.3132725,0,1683969486.036775
0.6208289,0.81529146,0.47271052,1.4237741,1.1183416,-2.6508498,2.7367435,8.846322,3.238663,0,1683969486.0418983
0.6208289,0.81529146,0.47271052,1.527774,1.0719157,-2.7695103,2.7367435,8.846322,3.238663,0,1683969486.0674348
0.57594824,0.78352135,0.41636577,1.6743816,0.9424124,-2.9254336,2.4973347,8.947803,3.1521878,0,1683969486.0726275
0.5182619,0.7783381,0.37050945,1.6743816,0.9424124,-2.9254336,2.4973347,8.947803,3.1521878,0,1683969486.077729
0.5182619,0.7783381,0.37050945,1.6743816,0.9424124,-2.9254336,2.1205618,9.0976305,2.9954023,0,1683969486.0828657
0.4744179,0.77425253,0.3547768,1.6743816,0.9424124,-2.9254336,2.1205618,9.0976305,2.9954023,0,1683969486.1033509
0.4744179,0.77425253,0.3547768,1.6743816,0.9424124,-2.9254336,1.9902712,9.146493,2.9354064,0,1683969486.1187396
0.4744179,0.77425253,0.3547768,1.757612,0.88117313,-3.029586,1.9902712,9.146493,2.9354064,0,1683969486.1289995
0.4744179,0.77425253,0.3547768,1.757612,0.88117313,-3.029586,1.5825566,9.28733,2.7344394,0,1683969486.1443453
0.4103898,0.7676058,0.31038398,1.757612,0.88117313,-3.029586,1.5825566,9.28733,2.7344394,0,1683969486.1494384
0.4103898,0.7676058,0.31038398,1.8745927,0.8126035,-3.2018502,1.5825566,9.28733,2.7344394,0,1683969486.1648307
0.4103898,0.7676058,0.31038398,1.9520199,0.8162687,-3.3808336,1.5825566,9.28733,2.7344394,0,1683969486.1751034
0.4103898,0.7676058,0.31038398,1.9520199,0.8162687,-3.3808336,1.2943677,9.374195,2.585575,0,1683969486.195606
0.32190904,0.7575442,0.2619665,1.9520199,0.8162687,-3.3808336,1.2943677,9.374195,2.585575,0,1683969486.2007375
0.32190904,0.7575442,0.2619665,1.9897408,0.8222246,-3.5111008,1.2943677,9.374195,2.585575,0,1683969486.2212148
0.32190904,0.7575442,0.2619665,1.9897408,0.8222246,-3.5111008,0.9924196,9.45288,2.4278162,0,1683969486.226342
0.32190904,0.7575442,0.2619665,1.9897408,0.8222246,-3.5111008,-6.6524124,7.0659404,-1.4331813,0,1683969486.246808
0.32190904,0.7575442,0.2619665,0.48426342,0.8188649,-2.0129538,-6.6524124,7.0659404,-1.4331813,0,1683969486.251905
-0.96841013,0.43051293,-0.26861322,0.48426342,0.8188649,-2.0129538,-6.6524124,7.0659404,-1.4331813,0,1683969486.2775002
-0.96841013,0.43051293,-0.26861322,0.48426342,0.8188649,-2.0129538,-6.771821,6.934073,-1.5156534,0,1683969486.2826302
-0.96841013,0.43051293,-0.26861322,0.4111123,0.8388707,-1.7744108,-6.771821,6.934073,-1.5156534,0,1683969486.2877655
-0.9897529,0.42990315,-0.29050475,0.4111123,0.8388707,-1.7744108,-6.771821,6.934073,-1.5156534,0,1683969486.3082848
-0.9897529,0.42990315,-0.29050475,0.4111123,0.8388707,-1.7744108,-6.876452,6.8119726,-1.5961157,0,1683969486.3134148
-0.9897529,0.42990315,-0.29050475,0.3659083,0.8709411,-1.6528486,-6.876452,6.8119726,-1.5961157,0,1683969486.3236825
-1.0319505,0.42191488,-0.3178234,0.3659083,0.8709411,-1.6528486,-6.876452,6.8119726,-1.5961157,0,1683969486.339071
-1.0319505,0.42191488,-0.3178234,0.34437528,0.85154617,-1.5491543,-6.876452,6.8119726,-1.5961157,0,1683969486.3442006
-1.0319505,0.42191488,-0.3178234,0.34437528,0.85154617,-1.5491543,-6.9706044,6.6960936,-1.6760406,0,1683969486.3595407
-1.0319505,0.42191488,-0.3178234,0.34437528,0.85154617,-1.5491543,-7.096222,6.532404,-1.7909373,0,1683969486.3748024
-1.0834779,0.4216709,-0.34672755,0.34437528,0.85154617,-1.5491543,-7.096222,6.532404,-1.7909373,0,1683969486.3798904
-1.0834779,0.4216709,-0.34672755,0.3831652,0.7284568,-1.3982705,-7.096222,6.532404,-1.7909373,0,1683969486.3849962
-1.0834779,0.4216709,-0.34672755,0.4259258,0.622319,-1.3023647,-7.096222,6.532404,-1.7909373,0,1683969486.410577
-1.0958567,0.42734203,-0.38069293,0.4259258,0.622319,-1.3023647,-7.096222,6.532404,-1.7909373,0,1683969486.4157052
-1.0958567,0.42734203,-0.38069293,0.4259258,0.622319,-1.3023647,-7.13417,6.4808583,-1.8270638,0,1683969486.425928
-1.1116502,0.43770844,-0.42587852,0.4259258,0.622319,-1.3023647,-7.13417,6.4808583,-1.8270638,0,1683969486.4361863
-1.1116502,0.43770844,-0.42587852,0.4259258,0.622319,-1.3023647,-7.238047,6.3356714,-1.9251151,0,1683969486.446449
-1.1116502,0.43770844,-0.42587852,0.4653266,0.3912592,-1.1534663,-7.238047,6.3356714,-1.9251151,0,1683969486.4566715
-1.1116502,0.43770844,-0.42587852,0.4196644,0.22082779,-1.002888,-7.238047,6.3356714,-1.9251151,0,1683969486.487278
-1.1231753,0.44100136,-0.44624552,0.4196644,0.22082779,-1.002888,-7.238047,6.3356714,-1.9251151,0,1683969486.4924088
-1.1231753,0.44100136,-0.44624552,0.4196644,0.22082779,-1.002888,-7.3004346,6.2472005,-1.9779407,0,1683969486.497538
-1.1231753,0.44100136,-0.44624552,0.32727104,0.1591304,-0.89568114,-7.3004346,6.2472005,-1.9779407,0,1683969486.523153
-1.1231753,0.44100136,-0.44624552,0.32727104,0.1591304,-0.89568114,-7.3569555,6.167024,-2.019689,0,1683969486.5334108
-1.1275048,0.44679436,-0.4540509,0.32727104,0.1591304,-0.89568114,-7.3569555,6.167024,-2.019689,0,1683969486.5385413
-1.1275048,0.44679436,-0.4540509,0.32727104,0.1591304,-0.89568114,-7.431443,6.0616655,-2.0654202,0,1683969486.5539207
-1.1275048,0.44679436,-0.4540509,0.19181168,0.14385876,-0.78542,-7.431443,6.0616655,-2.0654202,0,1683969486.5641055
-1.1587871,0.4288055,-0.44594067,0.19181168,0.14385876,-0.78542,-7.431443,6.0616655,-2.0654202,0,1683969486.5692015
-1.1587871,0.4288055,-0.44594067,0.19181168,0.14385876,-0.78542,-7.4748507,6.0006094,-2.0869732,0,1683969486.5793717
-1.1587871,0.4288055,-0.44594067,0.100334615,0.12385293,-0.6797403,-7.4748507,6.0006094,-2.0869732,0,1683969486.5896297
-1.211595,0.39099842,-0.4306959,0.100334615,0.12385293,-0.6797403,-7.4748507,6.0006094,-2.0869732,0,1683969486.6101415
-1.2869045,0.33471465,-0.4101459,0.100334615,0.12385293,-0.6797403,-7.4748507,6.0006094,-2.0869732,0,1683969486.6305819
-1.2869045,0.33471465,-0.4101459,0.046578474,0.02733622,-0.47219884,-7.4748507,6.0006094,-2.0869732,0,1683969486.635714
-1.2869045,0.33471465,-0.4101459,0.046578474,0.02733622,-0.47219884,-7.5123377,5.9485526,-2.1013408,0,1683969486.6459634
-1.2869045,0.33471465,-0.4101459,0.046578474,0.02733622,-0.47219884,-7.5423975,5.9081955,-2.1075103,0,1683969486.6613238
-1.2869045,0.33471465,-0.4101459,0.036957346,-0.08109236,-0.25213462,-7.5423975,5.9081955,-2.1075103,0,1683969486.6715024
-1.3397733,0.2862972,-0.38319308,0.036957346,-0.08109236,-0.25213462,-7.5423975,5.9081955,-2.1075103,0,1683969486.6766374
-1.3397733,0.2862972,-0.38319308,0.04627304,-0.24663684,0.08170322,-7.5423975,5.9081955,-2.1075103,0,1683969486.6971374
-1.3699579,0.23641624,-0.38325405,0.04627304,-0.24663684,0.08170322,-7.5423975,5.9081955,-2.1075103,0,1683969486.7073588
-1.3699579,0.23641624,-0.38325405,0.04627304,-0.24663684,0.08170322,-7.5631166,5.8825455,-2.1050158,0,1683969486.7124925
-1.3699579,0.23641624,-0.38325405,0.051159963,-0.42714754,0.3827071,-7.5631166,5.8825455,-2.1050158,0,1683969486.7330177
-1.3699579,0.23641624,-0.38325405,0.051159963,-0.42714754,0.3827071,-7.572336,5.8779535,-2.0845833,0,1683969486.7483726
-1.3642869,0.21982989,-0.41508517,0.051159963,-0.42714754,0.3827071,-7.572336,5.8779535,-2.0845833,0,1683969486.7535088
-1.317272,0.22037871,-0.43130565,0.051159963,-0.42714754,0.3827071,-7.572336,5.8779535,-2.0845833,0,1683969486.7586396
-1.317272,0.22037871,-0.43130565,-0.0106901415,-0.6226244,0.75793105,-7.572336,5.8779535,-2.0845833,0,1683969486.7688255
-1.317272,0.22037871,-0.43130565,-0.0106901415,-0.6226244,0.75793105,-7.562377,5.9006968,-2.0562992,0,1683969486.7892337
-1.317272,0.22037871,-0.43130565,-1.8753563,0.14034629,4.518112,-7.562377,5.9006968,-2.0562992,0,1683969486.804611
-0.24958774,0.5017976,-0.0070126047,-1.8753563,0.14034629,4.518112,-7.562377,5.9006968,-2.0562992,0,1683969486.809746
-0.24958774,0.5017976,-0.0070126047,-1.8753563,0.14034629,4.518112,-3.9394944,8.984123,-0.045026485,0,1683969486.8148718
-0.24958774,0.5017976,-0.0070126047,-1.8753563,0.14034629,4.518112,-3.3800197,9.207471,0.18459134,0,1683969486.8507197
-0.17994952,0.50905406,-0.043905,-1.8753563,0.14034629,4.518112,-3.3800197,9.207471,0.18459134,0,1683969486.8558524
-0.17994952,0.50905406,-0.043905,-2.1461222,0.3371976,4.5291076,-3.3800197,9.207471,0.18459134,0,1683969486.8609838
-0.17994952,0.50905406,-0.043905,-2.321746,0.38866302,4.541172,-3.3800197,9.207471,0.18459134,0,1683969486.8813517
-0.17994952,0.50905406,-0.043905,-2.321746,0.38866302,4.541172,-2.9984403,9.333637,0.35874015,0,1683969486.886458
-0.14128873,0.50210243,0.0066467295,-2.321746,0.38866302,4.541172,-2.9984403,9.333637,0.35874015,0,1683969486.8967125
-0.117811754,0.4909433,0.08000467,-2.321746,0.38866302,4.541172,-2.9984403,9.333637,0.35874015,0,1683969486.9069736
-0.117811754,0.4909433,0.08000467,-2.321746,0.38866302,4.541172,-2.6114168,9.439949,0.55135214,0,1683969486.917235
-0.117811754,0.4909433,0.08000467,-2.4446826,0.43066,4.561025,-2.6114168,9.439949,0.55135214,0,1683969486.9274845
-0.117811754,0.4909433,0.08000467,-2.5062275,0.45723262,4.5776715,-2.6114168,9.439949,0.55135214,0,1683969486.9428325
-0.117811754,0.4909433,0.08000467,-2.5062275,0.45723262,4.5776715,-2.2178984,9.525786,0.75923175,0,1683969486.9530969
-0.056649648,0.49813882,0.16116793,-2.5062275,0.45723262,4.5776715,-2.2178984,9.525786,0.75923175,0,1683969486.968402
-0.015549688,0.50496846,0.26062497,-2.5062275,0.45723262,4.5776715,-2.2178984,9.525786,0.75923175,0,1683969486.9734938
-0.015549688,0.50496846,0.26062497,-2.5092816,0.5346598,4.5857654,-2.2178984,9.525786,0.75923175,0,1683969486.9836688
-0.015549688,0.50496846,0.26062497,-2.5092816,0.5346598,4.5857654,-1.8202235,9.590022,0.9769265,0,1683969486.9990687
-0.015549688,0.50496846,0.26062497,-2.4706445,0.65270954,4.584238,-1.8202235,9.590022,0.9769265,0,1683969487.0195837
-0.015549688,0.50496846,0.26062497,-2.4706445,0.65270954,4.584238,-1.4218793,9.632234,1.1976951,0,1683969487.0298338
0.010000584,0.51393247,0.29952967,-2.4706445,0.65270954,4.584238,-1.4218793,9.632234,1.1976951,0,1683969487.034964
0.052076213,0.491736,0.2920902,-2.4706445,0.65270954,4.584238,-1.4218793,9.632234,1.1976951,0,1683969487.0657084
0.052076213,0.491736,0.2920902,-2.4706445,0.65270954,4.584238,4.006786,7.4539905,4.961834,0,1683969487.0810993
0.052076213,0.491736,0.2920902,-1.6841555,0.033292156,2.549599,4.006786,7.4539905,4.961834,0,1683969487.0913258
0.94115245,0.7591297,0.71296847,-1.6841555,0.033292156,2.549599,4.006786,7.4539905,4.961834,0,1683969487.0964615
1.0140226,0.81480366,0.79602206,-1.6841555,0.033292156,2.549599,4.006786,7.4539905,4.961834,0,1683969487.1118376
1.0140226,0.81480366,0.79602206,-1.6841555,0.033292156,2.549599,4.2663803,7.1913767,5.1301293,0,1683969487.1272018
1.0140226,0.81480366,0.79602206,-1.4924965,-0.13622294,2.1439843,4.2663803,7.1913767,5.1301293,0,1683969487.1322935
1.0140226,0.81480366,0.79602206,-1.4924965,-0.13622294,2.1439843,4.341618,7.113378,5.1755495,0,1683969487.1476412
1.0364629,0.819499,0.8585867,-1.4924965,-0.13622294,2.1439843,4.341618,7.113378,5.1755495,0,1683969487.1681597
1.0364629,0.819499,0.8585867,-1.3315336,-0.22708915,1.8403842,4.341618,7.113378,5.1755495,0,1683969487.1732945
1.0311577,0.8242554,0.96316594,-1.3315336,-0.22708915,1.8403842,4.341618,7.113378,5.1755495,0,1683969487.1989279
1.0311577,0.8242554,0.96316594,-1.3315336,-0.22708915,1.8403842,4.5315285,6.914155,5.281651,0,1683969487.2040625
1.0311577,0.8242554,0.96316594,-1.0453432,-0.31520647,1.3568845,4.5315285,6.914155,5.281651,0,1683969487.2091913
1.0311577,0.8242554,0.96316594,-0.7432703,-0.2837469,0.9472993,4.5315285,6.914155,5.281651,0,1683969487.2245333
0.9654831,0.8219992,1.0436585,-0.7432703,-0.2837469,0.9472993,4.5315285,6.914155,5.281651,0,1683969487.2296207
0.9654831,0.8219992,1.0436585,-0.7432703,-0.2837469,0.9472993,4.6279287,6.811529,5.3311768,0,1683969487.2398698
0.9654831,0.8219992,1.0436585,-0.43768495,-0.1965459,0.6569856,4.6279287,6.811529,5.3311768,0,1683969487.2603154
0.9654831,0.8219992,1.0436585,-0.43768495,-0.1965459,0.6569856,4.701682,6.732781,5.3665595,0,1683969487.2654457
0.8909056,0.77364266,0.9813377,-0.43768495,-0.1965459,0.6569856,4.701682,6.732781,5.3665595,0,1683969487.2705789
0.8909056,0.77364266,0.9813377,-0.43768495,-0.1965459,0.6569856,4.7789407,6.653523,5.397081,0,1683969487.2808423
0.8909056,0.77364266,0.9813377,-0.2405282,-0.14905111,0.4859433,4.7789407,6.653523,5.397081,0,1683969487.2962575
0.8909056,0.77364266,0.9813377,-0.2405282,-0.14905111,0.4859433,4.815516,6.6217084,5.403694,0,1683969487.3219097
0.8909056,0.77364266,0.9813377,-0.06765333,-0.18509217,0.34804046,4.815516,6.6217084,5.403694,0,1683969487.3270402
0.8424882,0.7612639,0.94090855,-0.06765333,-0.18509217,0.34804046,4.815516,6.6217084,5.403694,0,1683969487.3373027
0.8424882,0.7612639,0.94090855,-1.0454959,2.8780916,2.940858,4.815516,6.6217084,5.403694,0,1683969487.3475626
0.5110054,0.42282957,0.54283655,-1.0454959,2.8780916,2.940858,4.815516,6.6217084,5.403694,0,1683969487.352694
0.5110054,0.42282957,0.54283655,-1.0454959,2.8780916,2.940858,3.128946,4.6810656,8.033271,0,1683969487.3578317
0.5110054,0.42282957,0.54283655,-1.1942415,2.7204883,2.807842,3.128946,4.6810656,8.033271,0,1683969487.3783767
0.5110054,0.42282957,0.54283655,-1.1942415,2.7204883,2.807842,3.0498235,4.5196414,8.155215,0,1683969487.3886354
0.5110054,0.42282957,0.54283655,-1.221425,3.3484578,2.681393,3.0498235,4.5196414,8.155215,0,1683969487.4142795
0.33611718,0.5308846,1.1478108,-1.221425,3.3484578,2.681393,3.0498235,4.5196414,8.155215,0,1683969487.4194071
0.33611718,0.5308846,1.1478108,-1.510517,4.6357036,2.8102856,3.0498235,4.5196414,8.155215,0,1683969487.439875
0.42807376,0.54100716,0.96286106,-1.510517,4.6357036,2.8102856,3.0498235,4.5196414,8.155215,0,1683969487.4501286
0.42807376,0.54100716,0.96286106,-1.510517,4.6357036,2.8102856,2.679492,4.026251,8.534971,0,1683969487.4603307
0.48911393,0.55905706,0.7336404,-1.510517,4.6357036,2.8102856,2.679492,4.026251,8.534971,0,1683969487.475712
0.48911393,0.55905706,0.7336404,-1.510517,4.6357036,2.8102856,2.4172828,3.8414233,8.696915,0,1683969487.491108
0.48911393,0.55905706,0.7336404,-2.0793853,5.4044776,2.7594311,2.4172828,3.8414233,8.696915,0,1683969487.4962387
0.48911393,0.55905706,0.7336404,-2.0793853,5.4044776,2.7594311,1.8812938,3.4865394,8.974457,0,1683969487.5269902
0.45283127,0.50271225,0.81779164,-2.0793853,5.4044776,2.7594311,1.8812938,3.4865394,8.974457,0,1683969487.5321143
0.45283127,0.50271225,0.81779164,-3.7406332,6.6410217,1.4717271,1.8812938,3.4865394,8.974457,0,1683969487.5578165
0.75888574,0.5529591,1.0846364,-3.7406332,6.6410217,1.4717271,1.8812938,3.4865394,8.974457,0,1683969487.5629475
0.75888574,0.5529591,1.0846364,-3.7406332,6.6410217,1.4717271,0.92182755,2.855102,9.339953,0,1683969487.5783393
0.59814465,0.52399397,0.72028595,-3.7406332,6.6410217,1.4717271,0.92182755,2.855102,9.339953,0,1683969487.5886002
0.25105122,0.46228305,1.0056075,-3.7406332,6.6410217,1.4717271,0.92182755,2.855102,9.339953,0,1683969487.6091082
0.25105122,0.46228305,1.0056075,-3.271336,2.9410107,0.9077458,0.92182755,2.855102,9.339953,0,1683969487.6142402
0.25105122,0.46228305,1.0056075,0.59223384,0.31123585,0.37858373,0.92182755,2.855102,9.339953,0,1683969487.629618
-0.06841862,0.45862433,0.9054797,0.59223384,0.31123585,0.37858373,0.92182755,2.855102,9.339953,0,1683969487.6450088
-0.06841862,0.45862433,0.9054797,0.59223384,0.31123585,0.37858373,-0.9974783,3.9509497,8.923629,0,1683969487.6603112
-0.06841862,0.45862433,0.9054797,0.59223384,0.31123585,0.37858373,-1.002905,4.007861,8.897603,0,1683969487.6756923
-0.044270877,0.47594243,0.8624893,0.59223384,0.31123585,0.37858373,-1.002905,4.007861,8.897603,0,1683969487.6859143
-0.044270877,0.47594243,0.8624893,0.75732017,0.12232576,0.40485093,-1.002905,4.007861,8.897603,0,1683969487.691009
-0.024391668,0.4990535,0.8310241,0.75732017,0.12232576,0.40485093,-1.002905,4.007861,8.897603,0,1683969487.716581
-0.024391668,0.4990535,0.8310241,0.8217665,0.012217305,0.3911065,-1.002905,4.007861,8.897603,0,1683969487.7268422
-0.024391668,0.4990535,0.8310241,0.8217665,0.012217305,0.3911065,-1.000544,4.0405254,8.883084,0,1683969487.7319736
-0.024391668,0.4990535,0.8310241,0.8217665,0.012217305,0.3911065,-0.9759629,4.1492524,8.83557,0,1683969487.7422225
0.0014025208,0.538629,0.77876496,0.8217665,0.012217305,0.3911065,-0.9759629,4.1492524,8.83557,0,1683969487.74731
0.0014025208,0.538629,0.77876496,0.84620106,-0.12522738,0.33826664,-0.9759629,4.1492524,8.83557,0,1683969487.752439
0.0014025208,0.538629,0.77876496,0.84620106,-0.12522738,0.33826664,-0.947621,4.2232413,8.803542,0,1683969487.7729478
0.0014025208,0.538629,0.77876496,0.77350813,-0.2919936,0.21059579,-0.947621,4.2232413,8.803542,0,1683969487.7780774
0.008476105,0.57430184,0.74534833,0.77350813,-0.2919936,0.21059579,-0.947621,4.2232413,8.803542,0,1683969487.7832031
0.008476105,0.57430184,0.74534833,0.63148195,-0.33673948,0.06719518,-0.947621,4.2232413,8.803542,0,1683969487.8036332
0.008476105,0.57430184,0.74534833,0.63148195,-0.33673948,0.06719518,-0.89746416,4.3199263,8.761787,0,1683969487.813897
-0.023537958,0.5545445,0.7834603,0.63148195,-0.33673948,0.06719518,-0.89746416,4.3199263,8.761787,0,1683969487.8292916
-0.060369372,0.50423676,0.81242543,0.63148195,-0.33673948,0.06719518,-0.89746416,4.3199263,8.761787,0,1683969487.8600612
-0.060369372,0.50423676,0.81242543,0.63148195,-0.33673948,0.06719518,-0.8693505,4.3696136,8.739955,0,1683969487.8651915
-0.060369372,0.50423676,0.81242543,0.49556443,-0.27672195,0.0027488936,-0.8693505,4.3696136,8.739955,0,1683969487.8703225
-0.060369372,0.50423676,0.81242543,0.30207285,-0.09392053,0.010537425,-0.8693505,4.3696136,8.739955,0,1683969487.885734
-0.060369372,0.50423676,0.81242543,0.30207285,-0.09392053,0.010537425,-0.8506851,4.406055,8.723481,0,1683969487.8959982
-0.19068186,0.5693625,0.623634,0.30207285,-0.09392053,0.010537425,-0.8506851,4.406055,8.723481,0,1683969487.9062607
-0.19068186,0.5693625,0.623634,0.30207285,-0.09392053,0.010537425,-1.1600996,4.5764394,8.599214,0,1683969487.9113548
-0.19068186,0.5693625,0.623634,0.3145956,0.060322944,-0.1255328,-1.1600996,4.5764394,8.599214,0,1683969487.9164824
