acc_x,acc_y,acc_z,gyr_x,gyr_y,gyr_z,grav_x,grav_y,grav_z,label,timestamp
-2.259578,-0.3759973,-1.0568053,1.4731979,0.33592224,0.07556915,-8.2965355,4.8448286,-1.9660943,0,1683807221.7963963
-2.259578,-0.3759973,-1.0568053,0.01909256,1.037941,1.2153816,-8.002747,5.1900873,-2.2780323,0,1683807221.8432715
-2.2151585,-0.23077284,-0.9337982,-0.5902672,1.2754631,1.844902,-8.13383,5.0096087,-2.2169852,0,1683807221.8588982
-2.0377376,-0.13924928,-0.9311139,-1.0036278,1.1104393,2.4968529,-8.13383,5.0096087,-2.2169852,0,1683807221.8745213
-1.7119229,-0.13632235,-0.79956865,-1.2368774,0.7482147,2.976303,-8.13383,5.0096087,-2.2169852,0,1683807221.890146
-1.7119229,-0.13632235,-0.79956865,-1.2368774,0.7482147,2.976303,-7.844705,5.4196577,-2.2931008,0,1683807221.9057715
-1.5288758,-0.014058384,-0.74391145,-1.7651939,0.73753357,3.577118,-7.565526,5.814462,-2.2638981,0,1683807221.9213965
-1.5288758,-0.014058384,-0.74391145,-1.7651939,0.73753357,3.577118,-7.4581733,5.9586935,-2.2449958,0,1683807221.9370213
-1.5288758,-0.014058384,-0.74391145,-2.0272827,0.7674408,3.7986183,-7.2260685,6.2568154,-2.192388,0,1683807221.9526474
-1.3978158,0.026706379,-0.7297621,-2.3554611,0.14953613,4.3408203,-6.6937976,6.8861794,-1.9859468,0,1683807221.968274
-1.3978158,0.026706379,-0.7297621,-2.3554611,0.14953613,4.3408203,-6.3879905,7.215383,-1.8171982,0,1683807221.9838967
-1.3307086,-0.016257375,-0.59967273,-2.3554611,0.14953613,4.3408203,-6.3879905,7.215383,-1.8171982,0,1683807221.9838967
-1.3307086,-0.016257375,-0.59967273,-2.5322342,-0.10721207,4.7009087,-6.3879905,7.215383,-1.8171982,0,1683807221.9995213
-1.0754132,0.03939987,-0.48082098,-2.716484,-0.18598557,5.078087,-6.037439,7.556662,-1.6175866,0,1683807222.0151463
0.27959046,0.18533711,0.40340132,-5.0356293,1.9583893,5.569153,-0.40225318,9.520501,2.3170335,0,1683807222.030773
0.27959046,0.18533711,0.40340132,-5.1708794,2.1148682,5.4859734,-0.40225318,9.520501,2.3170335,0,1683807222.0463982
0.3235248,0.16386282,0.41852126,-5.1708794,2.1148682,5.4859734,-0.40225318,9.520501,2.3170335,0,1683807222.0620208
0.858987,0.11236091,1.1145856,-4.8758125,1.8283463,4.437752,1.887366,8.047685,5.2766466,0,1683807222.0776472
1.3671057,0.2007149,1.6807882,-3.4792519,0.056877136,3.3586884,2.1590838,7.6942773,5.6839113,0,1683807222.1088965
1.3671057,0.2007149,1.6807882,-0.114154816,-0.42791367,-0.39426804,3.2692873,6.4470434,6.627049,0,1683807222.155771
1.6299536,0.4206141,1.717155,-0.114154816,-0.42791367,-0.39426804,3.2692873,6.4470434,6.627049,0,1683807222.155771
1.3453889,0.28491354,1.6744491,-0.114154816,-0.42791367,-0.39426804,3.2692873,6.4470434,6.627049,0,1683807222.1713972
0.8184648,0.28955418,1.5565679,1.2143135,0.39880753,-1.445694,3.0551143,6.6496058,6.5283537,0,1683807222.1870217
0.8599576,0.46453327,1.0008447,2.456398,-0.04966736,-2.0315552,2.6718044,7.1140676,6.1985393,0,1683807222.2182722
0.98881847,0.5570426,0.92225724,2.7386475,-0.46730042,-2.7590752,2.3169217,7.627033,5.7123218,0,1683807222.233897
0.8697241,0.5092107,0.91835976,2.7993965,-0.34793854,-3.1852531,2.1167216,7.841463,5.495575,0,1683807222.2495215
0.7899083,0.4735719,0.9110348,2.8441238,-0.25634766,-3.3481407,1.9992365,7.9480286,5.385377,0,1683807222.2651463
0.7899083,0.4735719,0.9110348,3.7496185,-0.40548325,-4.1609764,0.63905853,8.870594,4.1321354,0,1683807222.2963977
0.4509147,0.507497,0.6005978,3.7496185,-0.40548325,-4.1609764,0.63905853,8.870594,4.1321354,0,1683807222.2963977
0.41870326,0.5101813,0.5434847,4.0213203,-0.8869362,-4.789562,-0.30957934,9.251619,3.2376068,0,1683807222.3276465
0.092403166,0.38717425,0.29942688,4.0234566,-0.9605026,-5.116539,-1.657132,9.423288,2.1507998,0,1683807222.3745363
-0.035487182,0.32200825,0.25355136,4.0575027,-0.8390045,-5.5213547,-0.95529276,9.381554,2.691519,0,1683807222.390161
0.24249575,0.4713729,0.31773162,4.0575027,-0.8390045,-5.5213547,-0.95529276,9.381554,2.691519,0,1683807222.405786
-0.17045979,0.2514737,0.15885822,4.0575027,-0.8390045,-5.5213547,-2.6547315,9.330536,1.4366261,0,1683807222.4214113
-0.17045979,0.2514737,0.15885822,4.0735245,-0.6739807,-5.635376,-3.423999,9.144424,0.90891457,0,1683807222.437036
-0.37058324,0.16850345,0.03829279,4.0532303,-0.60468674,-5.6544685,-4.189371,8.857849,0.3975802,0,1683807222.452661
-0.56216854,0.1157883,-0.05421653,3.9147758,-0.5439377,-5.557537,-4.9278154,8.478239,-0.08048585,0,1683807222.468286
-0.56216854,0.1157883,-0.05421653,3.9147758,-0.5439377,-5.557537,-7.0665536,6.6181583,-1.5601878,0,1683807222.4839113
-1.0932328,-0.03309104,-0.23652056,2.9538727,0.8483505,-4.419861,-7.0665536,6.6181583,-1.5601878,0,1683807222.4839113
-1.49031,-0.117289685,-0.94429266,2.1581268,0.35194397,-2.9636192,-7.7324324,5.5837026,-2.2808197,0,1683807222.5307858
-2.0204036,-0.3349899,-0.90231466,0.33325195,-0.01455307,-1.0663795,-8.463081,4.0002246,-2.9231553,0,1683807222.5620222
-2.0204036,-0.3349899,-0.90231466,0.079841614,-0.04219055,-0.546608,-8.501449,3.9107645,-2.9328597,0,1683807222.5776484
-2.0755603,-0.35963377,-0.8366634,0.079841614,-0.04219055,-0.546608,-8.501449,3.9107645,-2.9328597,0,1683807222.5776484
-1.9208272,-0.27836207,-0.8552108,-0.2909279,-0.22964478,0.52511215,-8.513293,3.9135818,-2.8944964,0,1683807222.608895
-1.8102709,-0.24566533,-0.8691175,-0.6638336,-0.6036186,1.330471,-8.479431,4.0470066,-2.8091571,0,1683807222.6245198
-1.51277,-0.13755074,-0.6758185,-1.3327408,-0.7719803,2.2742844,-8.317946,4.5492644,-2.507258,0,1683807222.6401465
-1.1271578,-0.04602718,-0.40540314,-2.0049858,-1.1053658,3.968048,-7.193523,6.5384316,-1.2932634,0,1683807222.718272
-1.0207418,-0.022111244,-0.3544017,-2.1573257,-1.1766624,4.4974327,-6.9039364,6.8830843,-1.062641,0,1683807222.7338972
-0.6075588,0.038414117,-0.048847955,-2.2712135,-0.98386765,5.817356,-5.3462915,8.220849,-0.07215188,0,1683807222.765146
-0.4962746,0.08674645,-0.03492606,-2.2446442,-0.9722519,6.011219,-4.8560696,8.518337,0.16399172,0,1683807222.7807713
-0.20120019,0.085032746,0.09563341,-2.2414398,-0.7304573,6.357422,-3.4892828,9.133868,0.7534983,0,1683807222.8120213
0.01771326,0.11528785,0.14273733,-2.2414398,-0.7304573,6.357422,-3.4892828,9.133868,0.7534983,0,1683807222.8432739
0.01771326,0.11528785,0.14273733,-2.3373032,-0.37771225,6.6098976,-3.4892828,9.133868,0.7534983,0,1683807222.8745213
0.17904346,0.15141198,0.20083623,-2.3373032,-0.37771225,6.6098976,-3.4892828,9.133868,0.7534983,0,1683807222.8901477
0.239311,0.15629525,0.24305686,-2.539711,0.1399231,6.8219185,-1.6075038,9.5632305,1.4597812,0,1683807222.921396
1.6270267,0.7937755,0.9122632,-3.285389,2.224617,6.086788,2.195642,8.911824,3.4538257,0,1683807222.9370222
1.7488053,0.8877407,1.0301292,-3.285389,2.224617,6.086788,2.8246007,8.543559,3.8986676,0,1683807222.9682739
1.6565537,0.86088264,0.92665523,-0.8970833,-0.20734787,1.668129,3.1307197,8.363935,4.051367,0,1683807222.9995213
1.5093882,0.84527737,0.88516253,-0.45715332,-0.50668716,0.74661255,3.1307197,8.363935,4.051367,0,1683807223.0151465
1.5093882,0.84527737,0.88516253,-0.45715332,-0.50668716,0.74661255,3.3675456,8.237869,4.1191654,0,1683807223.0307727
1.5093882,0.84527737,0.88516253,-0.45715332,-0.50668716,0.74661255,3.442319,8.210492,4.1120124,0,1683807223.0776465
1.2475262,0.73276484,0.9120054,-0.04699707,-0.7016182,-0.20254135,3.4524777,8.218193,4.0880423,0,1683807223.0932713
1.1911409,0.72079927,0.92275774,-0.45715332,-0.50668716,0.74661255,3.3243673,8.25925,4.1114206,0,1683807223.108899
1.353927,0.8076822,0.88296354,0.1288414,-0.6962776,-0.53165436,3.4484036,8.2276535,4.072419,0,1683807223.1245213
1.0942488,0.7120185,0.88419193,0.1288414,-0.6962776,-0.53165436,3.4484036,8.2276535,4.072419,0,1683807223.1713965
0.046269827,0.574862,0.12834531,2.5640106,-0.23712158,-4.7639275,-1.4412676,9.595526,1.4209254,0,1683807223.1870217
-0.19754532,0.48113945,0.034380104,2.5203514,-0.3299141,-4.8961067,-2.5839448,9.423179,0.83505255,0,1683807223.2026467
-0.23732433,0.44136044,0.0053382427,2.4861717,-0.30748367,-4.897175,-2.5839448,9.423179,0.83505255,0,1683807223.2495222
-0.23732433,0.44136044,0.0053382427,2.4861717,-0.30748367,-4.897175,-2.814226,9.366395,0.7219096,0,1683807223.2651472
-0.23732433,0.44136044,0.0053382427,2.1389008,0.36582947,-4.6723366,-3.7097757,9.07284,0.30255422,0,1683807223.2807717
-0.45673823,0.35179323,0.060009737,2.1389008,0.36582947,-4.6723366,-3.7097757,9.07284,0.30255422,0,1683807223.2807717
-0.33080423,0.37887874,0.0050955955,2.1389008,0.36582947,-4.6723366,-4.3481665,8.789985,0.0011334728,0,1683807223.2963982
-0.33080423,0.37887874,0.0050955955,2.2955132,-0.15514374,-4.8161316,-4.3481665,8.789985,0.0011334728,0,1683807223.3120224
-0.45673823,0.35179323,0.060009737,2.1857643,0.6044197,-4.5807457,-4.3481665,8.789985,0.0011334728,0,1683807223.3276484
-0.5692356,0.35007954,-0.012966471,2.1857643,0.6044197,-4.5807457,-5.520062,8.080086,-0.641489,0,1683807223.3432722
-0.67565167,0.28271455,-0.1103439,2.218876,0.64273834,-4.503975,-5.520062,8.080086,-0.641489,0,1683807223.3588967
-0.71665907,0.25782803,-0.12717757,2.2242165,0.6256485,-4.4603157,-5.7011375,7.943931,-0.7492455,0,1683807223.3745227
-0.71665907,0.25782803,-0.12717757,2.2242165,0.6256485,-4.4603157,-6.518528,7.2157536,-1.2696768,0,1683807223.390148
-0.71665907,0.25782803,-0.12717757,2.2242165,0.6256485,-4.4603157,-6.806107,6.9047794,-1.4735413,0,1683807223.4057717
-0.71665907,0.25782803,-0.12717757,2.1996498,0.6693077,-4.092884,-6.806107,6.9047794,-1.4735413,0,1683807223.4057717
-0.93557256,0.17607102,-0.24628711,2.2411728,0.58519363,-4.2717934,-6.2088194,7.5159683,-1.0635625,0,1683807223.4213963
-1.4558996,-0.018941663,-0.58186847,2.0781517,0.35835266,-2.9434586,-7.781952,5.5115857,-2.287805,0,1683807223.4370217
-1.682881,-0.07165681,-0.7292768,1.733017,0.12283325,-2.2467804,-8.058123,4.982855,-2.5314417,0,1683807223.4526472
-1.7927094,-0.17513075,-0.79028744,-0.6850624,0.008945465,1.218586,-8.302,4.4721518,-2.6920345,0,1683807223.4682722
-1.7927094,-0.17513075,-0.79028744,-0.6850624,0.008945465,1.218586,-8.275332,4.5300226,-2.6773417,0,1683807223.483897
-1.6457863,-0.102655016,-0.7280484,-0.7980156,-0.018825531,1.4060402,-8.135897,4.8374853,-2.5644293,0,1683807223.4995217
-1.6277243,-0.09337375,-0.71535486,-0.7980156,-0.018825531,1.4060402,-8.135897,4.8374853,-2.5644293,0,1683807223.51515
-1.6277243,-0.09337375,-0.71535486,-1.1356735,-0.8890724,2.5139427,-8.001855,5.133676,-2.405427,0,1683807223.5307722
-1.5069162,-0.05652168,-0.6043134,-1.1356735,-0.8890724,2.5139427,-8.001855,5.133676,-2.405427,0,1683807223.5464005
-1.5623156,-0.068472065,-0.65849954,-1.251831,-1.1650467,3.0285072,-7.8923573,5.361447,-2.2662692,0,1683807223.5932746
-1.3790258,-0.041629195,-0.5252406,-1.4542389,-1.1830711,3.5876656,-7.49886,6.039547,-1.8604743,0,1683807223.6088974
-1.3309513,-0.021383302,-0.49619877,-1.4542389,-1.1830711,3.5876656,-7.49886,6.039547,-1.8604743,0,1683807223.6401472
-0.057947233,0.21853432,0.17789088,-2.3660088,-0.69093704,6.13472,-2.266708,9.497882,0.9070067,0,1683807223.6713982
-0.01718247,0.19363262,0.2215674,-2.336235,-0.667572,6.205082,-1.9673214,9.552139,1.0279369,0,1683807223.7338965
0.5668395,0.19924384,0.4883279,-2.6995277,1.2435532,6.722851,0.24677926,9.621106,1.8824995,0,1683807223.749522
1.3339086,0.33128953,0.6979752,-3.9799309,3.921585,6.4383316,2.5063753,8.844648,3.4147713,0,1683807223.765147
1.3339086,0.33128953,0.6979752,-4.1067696,3.7043571,5.825901,2.9196842,8.520594,3.8788297,0,1683807223.7963967
1.3339086,0.33128953,0.6979752,-4.024658,2.9159546,4.891567,3.2539277,8.180402,4.320112,0,1683807223.8120215
1.3339086,0.33128953,0.6979752,-4.024658,2.9159546,4.891567,3.7254446,7.5760098,4.989542,0,1683807223.8276484
1.8962288,0.5973069,1.0103686,-4.024658,2.9159546,4.891567,3.7254446,7.5760098,4.989542,0,1683807223.8276484
1.6858383,0.62293655,1.5980606,-1.1846733,-0.71977615,0.3419304,4.03504,7.212891,5.278547,0,1683807223.8432713
1.6858383,0.62293655,1.5980606,0.17784119,-0.9157753,-0.9354019,4.034991,7.226445,5.2600126,0,1683807223.8589005
1.5286787,0.55874115,1.4879897,0.17784119,-0.9157753,-0.9354019,4.034991,7.226445,5.2600126,0,1683807223.8745208
1.1918689,0.4267106,1.2268404,0.9053612,-0.8965492,-1.4562416,3.9864335,7.3355803,5.1447067,0,1683807223.8901465
1.0461743,0.41962835,1.0987226,1.0279274,-0.8231163,-1.5351486,3.9864335,7.3355803,5.1447067,0,1683807223.9057715
1.0461743,0.41962835,1.0987226,1.0279274,-0.8231163,-1.5351486,3.8413246,7.5464134,4.9463377,0,1683807223.921397
0.73914945,0.5646102,0.8617319,1.2068367,-0.45341492,-1.6181946,3.4845073,7.862175,4.713257,0,1683807223.9370215
0.73914945,0.5646102,0.8617319,1.2068367,-0.45341492,-1.6181946,3.7404413,7.655632,4.8549757,0,1683807223.9526467
0.810412,0.5045701,0.9105495,1.1791992,0.0333786,-1.5926933,3.7404413,7.655632,4.8549757,0,1683807223.9526467
0.7371931,0.59340936,0.81951123,1.2355423,0.75035095,-1.6203308,3.7404413,7.655632,4.8549757,0,1683807223.9682717
0.5370697,0.7393466,0.36947617,2.7600098,-0.17957687,-3.0872536,1.7948539,9.003623,3.4472663,0,1683807223.9839108
0.5370697,0.7393466,0.36947617,2.7781677,-0.49814224,-3.447342,1.7948539,9.003623,3.4472663,0,1683807223.999524
0.48435456,0.7147027,0.26160422,2.7781677,-0.49814224,-3.447342,1.0642761,9.339281,2.7956283,0,1683807224.015161
0.48435456,0.7147027,0.26160422,2.8303719,-0.53539276,-4.312248,-0.40281102,9.643436,1.7355901,0,1683807224.030786
0.18465467,0.6451388,0.23450355,2.8303719,-0.53539276,-4.312248,-0.40281102,9.643436,1.7355901,0,1683807224.030786
0.10558195,0.61756796,0.23573194,2.947464,-0.3873253,-4.419861,-1.019842,9.662988,1.3255087,0,1683807224.0464115
0.10558195,0.61756796,0.23573194,2.947464,-0.3873253,-4.419861,-2.1029673,9.559517,0.6029542,0,1683807224.108896
-0.1250544,0.5143215,0.010464169,3.0848503,-0.22016525,-4.546566,-2.1029673,9.559517,0.6029542,0,1683807224.108896
-0.1250544,0.5143215,0.010464169,3.0700302,-0.17009735,-4.643631,-2.1029673,9.559517,0.6029542,0,1683807224.1245215
-0.57339096,0.32592094,0.00705194,2.9399872,-0.4662323,-4.532814,-4.2816997,8.796089,-0.6828228,0,1683807224.1401484
-0.57339096,0.32592094,0.00705194,2.9399872,-0.4662323,-4.532814,-4.6671443,8.575185,-0.9243125,0,1683807224.1557705
-0.66759884,0.33397382,-0.106188565,3.0646896,-0.22657394,-4.125862,-5.029771,8.336884,-1.1696832,0,1683807224.1713963
-0.76814586,0.27076417,-0.37783232,2.355194,0.87064743,-3.930931,-5.985625,7.5327487,-1.8974687,0,1683807224.1870215
-0.83672404,0.24025126,-0.42981952,2.355194,0.87064743,-3.930931,-6.499255,6.9503274,-2.3712888,0,1683807224.233911
-1.9525533,-0.07165681,-0.9552725,1.6724014,-0.7814598,-1.9579887,-7.761399,4.9363813,-3.400473,0,1683807224.249536
-2.0841136,-0.10875153,-1.0477667,1.3921547,-1.0233879,-1.3657188,-7.761399,4.9363813,-3.400473,0,1683807224.2651613
-2.0841136,-0.10875153,-1.0477667,1.3921547,-1.0233879,-1.3657188,-7.879729,4.7416463,-3.4054441,0,1683807224.280786
-2.0753176,-0.111435816,-1.024336,1.0193825,-1.2470245,-0.7276535,-7.9733844,4.607616,-3.3712611,0,1683807224.2963972
-1.9957597,-0.1023972,-0.9552725,1.0193825,-1.2470245,-0.7276535,-8.039163,4.536985,-3.3102891,0,1683807224.343286
-1.7790301,-0.10972212,-0.81664497,-0.69360733,-0.3458023,1.2633133,-8.043899,4.658764,-3.12442,0,1683807224.358911
-1.7790301,-0.10972212,-0.81664497,-0.69360733,-0.3458023,1.2633133,-7.9877315,4.7904534,-3.0688908,0,1683807224.3901615
-1.7094812,-0.1036256,-0.7939423,0.37384033,-1.1618423,0.13738632,-7.9877315,4.7904534,-3.0688908,0,1683807224.405786
-1.1242309,0.0042463294,-0.41272807,-1.8824196,-1.1479568,4.4867516,-6.602012,7.0417786,-1.7312379,0,1683807224.421411
-1.1242309,0.0042463294,-0.41272807,-2.108326,-0.922184,4.847908,-6.602012,7.0417786,-1.7312379,0,1683807224.4370358
-0.9726673,-0.0306494,-0.30778307,-2.345848,-0.73352814,5.2015877,-5.931424,7.6982164,-1.3137954,0,1683807224.4526613
-0.9143409,-0.03161999,-0.25482526,-2.345848,-0.73352814,5.2015877,-5.931424,7.6982164,-1.3137954,0,1683807224.468286
-0.9143409,-0.03161999,-0.25482526,-2.7921867,0.061149597,6.3414,-3.4767888,9.168751,-0.12782992,0,1683807224.4839108
-0.34446833,0.090886615,-0.051532242,-2.7921867,0.061149597,6.3414,-3.4767888,9.168751,-0.12782992,0,1683807224.4839108
-0.28345767,0.10602175,-0.009311594,-2.795391,0.034446716,6.400013,-3.1840646,9.275351,0.00051700533,0,1683807224.4995358
-0.06771379,0.14434487,0.117122866,-2.7378464,-0.08905411,6.5373993,-2.2716644,9.531744,0.39469543,0,1683807224.515161
0.55293274,0.18533711,0.43048683,-3.0553436,1.7453003,6.713238,0.94742304,9.600202,1.7632068,0,1683807224.57765
1.372717,0.3471526,0.613534,-4.062977,2.5517273,5.8727646,3.1204455,8.642395,3.4266922,0,1683807224.5932717
1.9494292,0.62025225,1.3288585,-3.2012749,0.8089638,4.253502,3.8864505,7.9930406,4.1445374,0,1683807224.6401465
1.9494292,0.62025225,1.3288585,-3.2012749,0.8089638,4.253502,4.175843,7.7149053,4.3832593,0,1683807224.655771
1.9072086,0.6317173,1.3845006,-1.1622429,0.23365021,1.6276741,4.4726796,7.405141,4.6183777,0,1683807224.6713963
1.7639405,0.60511714,1.3003019,-1.1622429,0.23365021,1.6276741,4.5380826,7.3318243,4.671246,0,1683807224.6870239
1.7639405,0.60511714,1.3003019,-0.6701088,0.16448975,1.0161781,4.6342616,7.223753,4.7446184,0,1683807224.702661
1.1969948,0.47601354,0.980341,0.27050018,-0.5610275,-0.35367966,4.7764955,7.1641912,4.693595,0,1683807224.718286
1.0034531,0.66491455,0.802435,0.6785202,0.598011,-1.1878777,4.6289926,7.3017473,4.6289635,0,1683807224.8120358
1.0034531,0.66491455,0.802435,0.6785202,0.598011,-1.1878777,3.6091075,8.067601,4.249534,0,1683807224.843286
0.8772765,0.64392555,0.7602143,1.5466309,0.3540802,-2.5598717,4.026035,7.7438626,4.4714675,0,1683807224.8589113
0.8772765,0.64392555,0.7602143,1.5466309,0.3540802,-2.5598717,2.3169541,8.92696,3.333389,0,1683807224.8745363
0.67374086,0.71030474,0.4651399,2.2454453,0.38812637,-3.5526848,2.3169541,8.92696,3.333389,0,1683807224.8745363
0.29765254,0.67199683,0.14957696,2.9463959,-0.041122437,-4.2749977,0.8477176,9.45628,2.4557142,0,1683807224.8901608
0.24346633,0.61805326,0.0973471,3.0657578,-0.66329956,-4.5392227,0.03379092,9.625118,1.877855,0,1683807224.905786
0.17928609,0.60243285,0.114195935,3.090191,-0.93379974,-4.750042,-0.6143037,9.681557,1.4354405,0,1683807224.921411
0.1045962,0.5504456,0.11785081,3.090191,-0.93379974,-4.750042,-0.6143037,9.681557,1.4354405,0,1683807224.968286
-0.4347635,0.3039462,0.049515236,2.7131462,0.23365021,-4.9993134,-3.931054,8.974897,-0.41036916,0,1683807224.9839108
-0.591453,0.25879863,-0.053230774,2.7174187,0.4116249,-4.810791,-4.3666725,8.755396,-0.66752845,0,1683807224.999536
-0.591453,0.25879863,-0.053230774,2.517147,0.5404663,-4.4177246,-5.1591306,8.258573,-1.161785,0,1683807225.046411
-0.7866932,0.1775269,-0.15647724,2.517147,0.5404663,-4.4177246,-5.1591306,8.258573,-1.161785,0,1683807225.046411
-1.0612639,0.18338077,-0.28802246,2.2561264,0.84407806,-3.7807274,-6.0956364,7.4568133,-1.8464917,0,1683807225.062036
-1.1791451,0.13165139,-0.34512043,2.0834923,0.87812424,-3.1521416,-6.6674705,6.789281,-2.3708408,0,1683807225.077661
-1.2452816,0.086488634,-0.50328106,2.0547867,0.6267166,-2.6206207,-6.9310794,6.410493,-2.652566,0,1683807225.0932858
-1.303608,0.071611315,-0.6033428,2.0547867,0.6267166,-2.6206207,-6.9310794,6.410493,-2.652566,0,1683807225.124536
-1.344858,0.062572695,-0.6462914,1.9482422,0.07490158,-2.0549202,-7.0843663,6.166548,-2.8206081,0,1683807225.155786
-1.9450009,-0.06140496,-1.0594895,0.8807945,-0.6312561,-0.23231506,-7.639777,5.197401,-3.2849984,0,1683807225.1714113
-1.8678694,-0.017470613,-1.0782795,0.23738861,-0.75489044,0.6134987,-7.666469,5.1769385,-3.2549868,0,1683807225.2026608
-1.8678694,-0.017470613,-1.0782795,-0.9109688,-0.35648346,1.626606,-7.5734,5.39908,-3.1086874,0,1683807225.218286
-1.6960598,0.021580454,-0.9608837,-0.9109688,-0.35648346,1.626606,-7.5734,5.39908,-3.1086874,0,1683807225.218286
-1.4307704,0.11431725,-0.6936379,-1.6661263,0.09946823,2.3423767,-7.2414427,5.9519763,-2.8819928,0,1683807225.233911
-1.2838475,0.2107241,-0.6145652,-1.825943,-0.4810524,2.9369164,-6.937368,6.411095,-2.6346114,0,1683807225.249536
-1.2299038,0.19730267,-0.58845025,-1.825943,-0.4810524,2.9369164,-6.449628,7.051647,-2.20158,0,1683807225.280786
-1.2299038,0.19730267,-0.58845025,-1.825943,-0.4810524,2.9369164,-5.5889425,7.9130406,-1.5224651,0,1683807225.2964108
-0.91678256,0.22878617,-0.3456209,-2.7921867,-0.58439255,4.5475006,-5.5889425,7.9130406,-1.5224651,0,1683807225.2964108
-0.91678256,0.22878617,-0.3456209,-2.8763008,-0.49814224,4.6786118,-5.412358,8.0576105,-1.3970271,0,1683807225.312036
-0.8606552,0.23976596,-0.30509877,-2.8763008,-0.49814224,4.6786118,-5.412358,8.0576105,-1.3970271,0,1683807225.3276613
-0.70420825,0.2736911,-0.24017543,-3.1064796,-0.19453049,4.9832916,-4.8266973,8.477166,-1.0054969,0,1683807225.343286
-0.70420825,0.2736911,-0.24017543,-3.2577515,-0.19346237,5.2112007,-3.951334,8.96466,-0.438431,0,1683807225.358911
-0.70420825,0.2736911,-0.24017543,-3.2577515,-0.19346237,5.2112007,-3.4804406,9.167249,-0.13586046,0,1683807225.374536
-0.029390667,0.33690074,0.1083269,-2.9402542,-0.7399368,5.550995,-1.9267495,9.585156,0.76340914,0,1683807225.3901608
0.02162595,0.31054318,0.12810266,-3.2002068,0.1538086,5.7172203,-0.55327386,9.668564,1.5437396,0,1683807225.437036
0.02162595,0.31054318,0.12810266,-3.2002068,0.1538086,5.7172203,-1.6543692,9.623132,0.91037285,0,1683807225.452661
1.0400625,0.44794226,0.7699657,-3.007412,1.1988258,4.701977,2.5705633,8.660151,3.8163316,0,1683807225.468286
1.2443414,0.5353105,0.8434272,-2.6068687,0.68639755,4.127865,2.9250526,8.424641,4.0792003,0,1683807225.4995363
1.2443414,0.5353105,0.8434272,-2.6068687,0.68639755,4.127865,4.3218827,7.5616894,4.5069475,0,1683807225.593286
1.0276269,0.5868124,0.9766861,0.6263161,-0.36396027,-0.40174484,4.3218827,7.5616894,4.5069475,0,1683807225.593286
1.0305538,0.6302615,0.9063942,0.634861,0.118694305,-0.44540405,4.314029,7.5796256,4.484286,0,1683807225.608911
1.0447032,0.692728,0.8051192,0.6231117,0.4968071,-0.54553986,4.253395,7.638321,4.4424167,0,1683807225.640161
1.0510576,0.7647336,0.75654423,0.8424759,0.64914703,-1.3518333,3.9769669,7.824706,4.3735685,0,1683807225.655786
0.9788093,0.7591224,0.76875246,1.2121773,0.30294418,-2.0965767,3.6732607,8.03808,4.2505093,0,1683807225.6714122
0.9063335,0.7395893,0.7355553,1.626606,-0.01455307,-2.5919151,3.3888574,8.248043,4.0811553,0,1683807225.6870363
0.74500334,0.68638885,0.644517,2.2869682,0.25287628,-3.3823204,2.2377248,8.9591675,3.3009536,0,1683807225.733911
0.48703882,0.68541825,0.35995224,2.3466492,0.32417297,-3.5601616,1.6082585,9.22972,2.8976104,0,1683807225.749536
0.45408428,0.6744233,0.3287114,2.3466492,0.32417297,-3.5601616,1.6082585,9.22972,2.8976104,0,1683807225.7651613
0.36086217,0.6287904,0.25891995,2.3466492,0.32417297,-3.5601616,1.6082585,9.22972,2.8976104,0,1683807225.780786
0.2830027,0.64832354,0.3216443,2.7375793,-0.17757416,-4.200363,-0.42620078,9.664757,1.6066118,0,1683807225.812036
0.06310349,0.6039039,0.1813031,3.0540085,-0.4086876,-4.3484306,-0.8331723,9.680587,1.3275746,0,1683807225.8276608
0.06310349,0.6039039,0.1813031,3.2063484,-0.54073334,-4.4485664,-1.4574845,9.657191,0.88586974,0,1683807225.858911
-0.12384117,0.46063575,-0.10985861,3.1541443,-0.4172325,-4.914131,-2.795687,9.399695,-0.015820906,0,1683807225.874536
-0.97926426,0.1360342,-0.18233435,2.4861717,0.25180817,-4.4667244,-6.012556,7.541056,-1.7753929,0,1683807225.937036
-1.2460096,0.056233536,-0.35367376,2.4489212,0.39560318,-3.748684,-6.7521977,6.736946,-2.2785442,0,1683807225.952661
-1.3839091,0.029148018,-0.47081178,2.4489212,0.39560318,-3.748684,-6.7521977,6.736946,-2.2785442,0,1683807225.999536
-1.5701258,-0.007704055,-0.6372679,2.2976494,0.0333786,-2.8634834,-7.1962175,6.119124,-2.6346076,0,1683807226.015161
-1.8756796,-0.09166005,-0.8383619,1.6542435,-0.68452835,-1.417923,-7.7154956,5.2767115,-2.9661124,0,1683807226.046411
-1.8756796,-0.09166005,-0.8383619,1.6542435,-0.68452835,-1.417923,-7.838284,5.075082,-2.9958694,0,1683807226.062036
-1.8847182,-0.17073278,-0.86350626,-0.5540848,-0.26916504,1.7980385,-7.8634057,5.033246,-3.000612,0,1683807226.077661
-1.5684122,-0.041143898,-0.78223455,-1.1974907,-0.44700623,2.6012611,-7.569458,5.5624676,-2.816495,0,1683807226.0932858
-1.472248,0.006930616,-0.68045914,-1.4914894,-0.46409607,2.9198265,-7.4328237,5.7951555,-2.7091863,0,1683807226.108911
-1.4410223,0.014012887,-0.64433503,-1.6288757,-0.42991638,3.0657578,-7.3551884,5.9204164,-2.6495779,0,1683807226.124536
-1.0705299,0.05574824,-0.26287812,-2.4832344,-0.3458023,4.644432,-6.972674,6.475604,-2.3703926,0,1683807226.171411
-0.8879833,0.09308561,-0.14329846,-2.5758934,-0.10721207,5.231495,-5.615732,7.896008,-1.5122799,0,1683807226.202661
-0.8879833,0.09308561,-0.14329846,-2.5758934,-0.10721207,5.231495,-5.414528,8.054383,-1.4071894,0,1683807226.2182865
-0.7076205,0.14531547,-0.1313329,-2.5013924,-0.13271332,5.910015,-4.7487326,8.511096,-1.0868188,0,1683807226.233911
-0.7076205,0.14531547,-0.1313329,-2.5013924,-0.13271332,5.910015,-4.254556,8.792966,-0.8676945,0,1683807226.2495248
-0.56485283,0.17607102,-0.15866107,-2.5013924,-0.13271332,5.910015,-4.254556,8.792966,-0.8676945,0,1683807226.2651467
-0.48602274,0.17728426,-0.16842763,-2.5162125,-0.12964249,6.0133553,-3.9941478,8.924453,-0.7558497,0,1683807226.280771
-0.06965497,0.21462162,-0.16208847,-2.776165,-0.048599243,6.3702393,-2.8657057,9.374535,-0.2760769,0,1683807226.2963967
0.06140496,0.22804306,-0.12767802,-2.9135513,0.022697449,6.4479446,-2.8657057,9.374535,-0.2760769,0,1683807226.3120213
0.17416017,0.21096675,-0.017607102,-3.110752,0.1473999,6.501217,-1.3235501,9.70807,0.41473332,0,1683807226.3276467
0.23614141,0.20267124,0.066348895,-3.22464,0.24112701,6.5320587,-1.0030826,9.738491,0.57097316,0,1683807226.3588965
0.23614141,0.20267124,0.066348895,-3.22464,0.24112701,6.5320587,0.61863804,9.679852,1.4450428,0,1683807226.3745248
0.7947916,0.25465846,0.67307353,-3.6645699,1.2073708,6.724987,0.61863804,9.679852,1.4450428,0,1683807226.3745248
0.7947916,0.25465846,0.67307353,-3.8500214,2.3525238,6.564102,1.2555269,9.551575,1.8334324,0,1683807226.3901467
1.0361651,0.34690994,0.87369746,-3.879795,2.6688194,6.441536,1.2555269,9.551575,1.8334324,0,1683807226.4057717
1.2665588,0.4350061,1.0064559,-3.8233185,3.3772469,5.919628,1.8554522,9.364024,2.245602,0,1683807226.4213965
1.2665588,0.4350061,1.0064559,-3.8233185,3.3772469,5.919628,2.1334457,9.250187,2.460252,0,1683807226.4370215
1.3861384,0.4845517,1.0311149,-3.6465454,3.581791,5.417881,3.2520645,8.533632,3.5737326,0,1683807226.452661
1.7253898,0.6744233,1.3066562,-1.2304688,-0.523777,0.23004532,4.298534,7.1249595,5.1892147,0,1683807226.468286
1.0039536,0.5929089,0.842214,1.2025642,0.18251419,-1.7918968,3.9182723,7.6768775,4.6779356,0,1683807226.4839108
1.0388494,0.6934711,0.81829804,1.2494278,0.25821686,-2.317009,3.7670102,7.796944,4.6030073,0,1683807226.4995358
0.96954316,0.6910295,0.88467723,1.4561081,0.098400116,-2.673893,3.392585,8.06858,4.4225316,0,1683807226.515161
0.5917412,0.6182959,0.74776345,2.8792381,-0.5291176,-3.5293198,2.3875718,8.776989,3.6652918,0,1683807226.546411
0.5993087,0.62951833,0.6086507,3.0933952,-0.547142,-3.6549568,2.0954711,8.959917,3.3910577,0,1683807226.5620363
0.60491997,0.69567007,0.35141408,3.170166,-0.54821014,-3.7285233,1.4476689,9.289947,2.787746,0,1683807226.5932858
0.5612283,0.70469356,0.2105876,3.313961,-0.7037544,-4.3165207,1.0811094,9.428724,2.469966,0,1683807226.608911
-0.080392115,0.4613637,0.20888908,2.9528046,-0.60575485,-5.404129,-0.73095006,9.690502,1.3153936,0,1683807226.655786
-0.15312567,0.41914305,0.15397494,3.0743027,-0.64727783,-5.423355,-2.269065,9.526923,0.50938463,0,1683807226.671411
-0.28491354,0.31811073,0.019745432,3.1594849,-0.657959,-5.4383087,-3.2907684,9.237942,-0.04084077,0,1683807226.702661
-0.37399548,0.26709414,-0.0385961,3.0976677,-0.5663681,-5.3987885,-3.790555,9.039321,-0.30454466,0,1683807226.718286
-0.9590032,0.11260356,-0.17843683,2.0558548,0.59373856,-4.6637917,-5.963622,7.654012,-1.4218621,0,1683807226.733911
-1.1967218,0.101623766,-0.26336342,2.0505142,0.59907913,-4.5103836,-6.3000784,7.3401136,-1.6131114,0,1683807226.749536
-1.1967218,0.101623766,-0.26336342,2.0633316,0.45207977,-4.0097046,-6.5997205,7.028091,-1.7944403,0,1683807226.7651613
-1.245039,0.09308561,-0.28410977,2.0633316,0.45207977,-4.0097046,-6.5997205,7.028091,-1.7944403,0,1683807226.8276472
-1.6611489,-0.035775326,-0.60602707,1.0438156,0.22296906,-1.098423,-7.9264483,5.1221223,-2.6656456,0,1683807226.843286
-1.6882496,-0.059205964,-0.7387855,0.58158875,0.39346695,-0.2770424,-7.988106,4.9473276,-2.8079352,0,1683807226.858911
-1.6882496,-0.059205964,-0.7387855,0.4707718,0.3838539,-0.08211136,-7.9873376,4.9160132,-2.8645487,0,1683807226.8745363
-1.6882496,-0.059205964,-0.7387855,0.16075134,0.19533157,0.44620514,-7.9873376,4.9160132,-2.8645487,0,1683807226.905786
-1.4698215,0.083561696,-0.770269,-0.55194855,-0.83473206,1.3709259,-7.8630667,5.151049,-2.794507,0,1683807226.921411
-1.4698215,0.083561696,-0.770269,-1.2432861,-0.3372574,2.0388985,-7.6939554,5.516228,-2.5582523,0,1683807226.9370358
-1.4222171,0.086245984,-0.5498845,-1.2432861,-0.3372574,2.0388985,-7.6939554,5.516228,-2.5582523,0,1683807226.9370358
-1.4312557,0.07843577,-0.46227363,-1.7343521,0.19533157,2.659874,-7.4374194,5.9277005,-2.3911405,0,1683807226.952661
-1.1493752,0.13970424,-0.40443256,-1.9740105,-0.3235054,3.8848686,-7.3559737,6.045662,-2.3473432,0,1683807226.999536
-1.1493752,0.13970424,-0.40443256,-1.9740105,-0.3235054,3.8848686,-6.311129,7.302257,-1.736972,0,1683807227.015161
-0.8203757,0.13677731,-0.22773975,-2.4598694,-0.26168823,5.092907,-5.252204,8.199906,-1.16029,0,1683807227.030786
-0.28271455,0.20218594,-0.14988026,-2.6483917,-0.3725052,5.9121513,-3.3281515,9.221661,-0.23400101,0,1683807227.077661
-0.1167589,0.19070569,-0.002229323,-2.8082085,-0.29146194,6.1400604,-2.4820259,9.485922,0.16500962,0,1683807227.108911
0.24590798,0.2426929,0.2459838,-3.1043434,0.3966713,6.4746475,-0.94838345,9.720123,0.8889006,0,1683807227.124536
0.24590798,0.2426929,0.2459838,-3.1043434,0.3966713,6.4746475,0.30240488,9.678885,1.5485824,0,1683807227.155786
0.38819033,0.28638458,0.34505978,-3.275776,0.9655762,6.5054893,0.30240488,9.678885,1.5485824,0,1683807227.155786
0.38819033,0.28638458,0.34505978,-3.6369324,1.988163,6.432991,2.1829386,9.064973,3.038328,0,1683807227.171411
0.8172516,0.32957584,0.6452601,-3.6369324,1.988163,6.432991,2.1829386,9.064973,3.038328,0,1683807227.171411
0.95660704,0.35691917,0.7033438,-4.2899513,3.5839272,5.8439255,2.397835,8.926625,3.2766032,0,1683807227.1870358
1.1345131,0.4184151,0.84050024,-4.2899513,3.5839272,5.8439255,2.397835,8.926625,3.2766032,0,1683807227.202661
1.1345131,0.4184151,0.84050024,-4.2142487,3.252678,5.4136086,2.397835,8.926625,3.2766032,0,1683807227.218286
1.9333235,0.74130297,1.171441,-2.7836418,0.7471466,2.8920555,3.6300895,7.7309117,4.8193207,0,1683807227.2495363
0.9121874,0.46453327,0.98572475,0.8989525,-0.7293892,-1.3796043,3.9289951,7.6128955,4.7725463,0,1683807227.280786
0.8597149,0.4867507,0.9627794,0.8989525,-0.7293892,-1.3796043,3.8969038,7.654594,4.73199,0,1683807227.327661
0.8597149,0.4867507,0.9627794,0.8627701,-0.045394897,-1.1643791,3.8969038,7.654594,4.73199,0,1683807227.343286
0.8006454,0.57558995,0.9010256,0.84781647,0.46689987,-1.2315369,3.5925655,7.9187098,4.534082,0,1683807227.358911
0.8880288,0.6946843,0.79194045,0.9714508,0.47117233,-1.5820122,3.4710855,8.0000305,4.4856963,0,1683807227.374536
0.7994322,0.76277727,0.7882704,1.4933586,0.25821686,-2.2499847,2.984925,8.321773,4.243667,0,1683807227.3901608
0.5995514,0.7452005,0.5581345,1.9897652,-0.0070762634,-2.7122116,2.564887,8.599359,3.9550955,0,1683807227.405786
0.5519622,0.74227357,0.49076954,2.5203514,-0.36075592,-3.2385254,1.8220335,9.038722,3.3394742,0,1683807227.421411
0.45238575,0.71006215,0.36727718,2.6630783,-0.5216408,-3.6444092,1.2285204,9.302213,2.85131,0,1683807227.437036
0.15048689,0.6409986,0.19423924,2.928238,-0.7304573,-4.56686,-0.65406775,9.664885,1.5272807,0,1683807227.4839108
0.09605804,0.6021902,0.13639817,2.9453278,-0.7942772,-4.7053146,-1.089777,9.66521,1.2515926,0,1683807227.4995358
-0.08137787,0.5182342,0.111253835,2.9720306,-0.9327316,-4.9354935,-2.002152,9.573464,0.71451277,0,1683807227.515161
-0.17265879,0.45892206,0.08953689,2.9857826,-0.9508896,-5.00679,-2.4719708,9.479134,0.45362863,0,1683807227.530786
-0.2851562,0.4276812,0.057810742,2.9720306,-0.9391403,-5.031357,-2.4719708,9.479134,0.45362863,0,1683807227.577661
-0.31786808,0.4132892,0.031695817,2.9410553,-0.90402603,-5.021744,-3.411873,9.1939,-0.041255884,0,1683807227.5932858
-0.31786808,0.4132892,0.031695817,2.5096703,0.020694733,-4.48061,-5.123161,8.312818,-0.9059057,0,1683807227.608911
-0.6893158,0.29395217,-0.035168707,2.5096703,0.020694733,-4.48061,-5.123161,8.312818,-0.9059057,0,1683807227.608911
-0.8396662,0.27441904,-0.16402964,2.396717,0.454216,-4.125862,-6.1262913,7.4999127,-1.5460472,0,1683807227.624536
-1.428814,0.10382275,-0.5694176,1.8258095,0.29333115,-2.3276901,-7.386025,5.894631,-2.621134,0,1683807227.671411
-1.428814,0.10382275,-0.5694176,1.8258095,0.29333115,-2.3276901,-7.513158,5.6757317,-2.7402425,0,1683807227.6870363
-1.5349723,0.06672803,-0.64849037,1.6957664,0.13778687,-1.997509,-7.513158,5.6757317,-2.7402425,0,1683807227.6870363
-1.5349723,0.06672803,-0.64849037,1.5072441,0.012149811,-1.6001701,-7.5689354,5.5756993,-2.791626,0,1683807227.702661
-1.6201566,0.026949028,-0.7082878,1.5072441,0.012149811,-1.6001701,-7.5689354,5.5756993,-2.791626,0,1683807227.702661
-1.7268153,0.015483937,-0.75953186,0.95222473,-0.032577515,-0.7287216,-7.757084,5.213205,-2.9699395,0,1683807227.718286
-1.7268153,0.015483937,-0.75953186,0.95222473,-0.032577515,-0.7287216,-7.7758403,5.1715364,-2.9936438,0,1683807227.765161
-1.6335782,0.0428121,-0.7939423,0.0935936,-0.030441284,0.52618027,-7.7918434,5.113243,-3.0516076,0,1683807227.780786
-1.7063117,0.018896166,-0.76832783,0.79561234,-0.010280609,-0.50081253,-7.7918434,5.113243,-3.0516076,0,1683807227.8120227
-1.6050216,0.051350255,-0.80102456,-0.16302109,-0.08584976,0.8446121,-7.7548404,5.167484,-3.0544975,0,1683807227.82765
-1.4725057,0.09893948,-0.77563757,-0.41549683,-0.17436981,1.117382,-7.7834344,5.12298,-3.0567317,0,1683807227.8432717
-1.4725057,0.09893948,-0.77563757,-0.53806305,-0.21589279,1.2399483,-7.6880665,5.289395,-3.0143538,0,1683807227.8588984
-1.4725057,0.09893948,-0.77563757,-0.53806305,-0.21589279,1.2399483,-6.259549,7.2964497,-1.9365535,0,1683807227.8745215
-1.1503458,0.17020199,-0.455434,-1.825943,-0.33618927,4.153366,-6.259549,7.2964497,-1.9365535,0,1683807227.8745215
-0.98901564,0.16971669,-0.38685578,-2.1796227,-0.14446259,4.661522,-5.779161,7.7393703,-1.6952391,0,1683807227.8901465
0.07920921,0.3134701,0.09222118,-2.428894,0.0004005432,5.101452,-2.4480193,9.494683,-0.16904385,0,1683807227.999536
-0.14848505,0.3093148,0.09100794,-2.6696205,0.6757164,6.1667633,-4.3141494,8.749857,-0.9992505,0,1683807228.015161
-0.8045126,0.17875531,-0.30217183,-2.6696205,0.6757164,6.1667633,-4.3141494,8.749857,-0.9992505,0,1683807228.030786
0.5631846,0.31419805,0.41950703,-3.4004784,2.0350266,6.4372635,0.58288443,9.708743,1.2533743,0,1683807228.0464113
0.7345089,0.3239646,0.5444553,-3.684864,2.7178192,6.347809,0.58288443,9.708743,1.2533743,0,1683807228.0620363
1.7551596,0.70566416,1.0369688,-1.5565109,0.862236,2.5800323,4.3207235,7.6028447,4.438299,0,1683807228.0932865
1.8217815,0.7801114,1.1648592,-0.48906326,-0.31282425,0.32377243,4.52322,7.4043913,4.570105,0,1683807228.1401627
1.8217815,0.7801114,1.1648592,-0.48906326,-0.31282425,0.32377243,4.4977326,7.4747415,4.4798465,0,1683807228.155786
1.4464211,0.63952756,1.1348315,0.73379517,-0.9722519,-1.5862846,4.4977326,7.4747415,4.4798465,0,1683807228.155786
1.2499526,0.59486526,1.0933388,0.8807945,-0.98493576,-1.723671,4.4977326,7.4747415,4.4798465,0,1683807228.1870358
0.95317966,0.5484893,0.9708322,1.1940193,-0.7580948,-1.8984413,4.2874503,7.7452703,4.2188816,0,1683807228.202661
0.95317966,0.5484893,0.9708322,1.3613129,-0.2381897,-1.8653297,4.23169,7.8065004,4.1619406,0,1683807228.218286
0.8377401,0.6383143,0.74653506,1.3878822,-0.11575699,-1.8610573,3.9063835,8.111664,3.8873458,0,1683807228.2338974
0.8377401,0.6383143,0.74653506,1.5072441,0.18251419,-2.2200775,3.831766,8.172936,3.8328927,0,1683807228.2495222
0.8238334,0.58192915,0.8202392,1.5072441,0.18251419,-2.2200775,3.5799184,8.362501,3.663763,0,1683807228.2651463
0.9270647,0.7473995,0.59961206,1.7778778,0.14526367,-3.1724358,3.5799184,8.362501,3.663763,0,1683807228.2807736
0.8475067,0.75276804,0.60889333,1.7778778,0.14526367,-3.1724358,3.5799184,8.362501,3.663763,0,1683807228.2963984
0.8475067,0.75276804,0.60889333,1.6191292,0.18785477,-2.8859138,2.878994,8.781912,3.2802124,0,1683807228.3120215
0.43773592,0.6937137,0.3843535,2.753601,-0.55675507,-4.1002274,1.2868633,9.469037,2.20266,0,1683807228.3276467
0.2571304,0.61684,0.2044911,2.9038048,-0.55568695,-4.470997,0.28962892,9.684392,1.5162598,0,1683807228.3432722
0.2571304,0.61684,0.2044911,2.9038048,-0.55568695,-4.470997,-0.13945009,9.727577,1.2349848,0,1683807228.3745213
0.21319607,0.61585426,0.16446944,2.988987,-0.7452774,-4.7990417,-0.13945009,9.727577,1.2349848,0,1683807228.3745213
-0.37375283,0.3891306,0.049515236,3.0773735,-0.25421143,-4.9503136,-3.1713617,9.261859,-0.5751816,0,1683807228.3901463
-0.42818168,0.3764371,0.012905808,3.1030083,-0.2169609,-4.9066544,-3.4015563,9.170049,-0.71415263,0,1683807228.4370213
-0.74398726,0.28319985,-0.21845849,2.6151466,0.16235352,-4.2313385,-5.223148,8.091193,-1.8497828,0,1683807228.452647
-0.89969105,0.24684823,-0.33145633,2.4872398,0.30294418,-3.8562965,-6.131963,7.239678,-2.4812272,0,1683807228.4838967
-0.89969105,0.24684823,-0.33145633,2.4414444,0.30187607,-3.7518883,-6.131963,7.239678,-2.4812272,0,1683807228.5307746
-1.1871979,0.17728426,-0.524998,2.313671,0.28051376,-3.513298,-6.60169,6.6779084,-2.8272958,0,1683807228.546397
-1.3106903,0.15264037,-0.61309415,1.7650604,-0.06568909,-2.4353027,-6.968817,6.1728554,-3.0825043,0,1683807228.5620208
-1.3106903,0.15264037,-0.61309415,1.4539719,-0.14232635,-1.9474411,-6.968817,6.1728554,-3.0825043,0,1683807228.5776482
-1.3285097,0.18338077,-0.6699646,1.4539719,-0.14232635,-1.9474411,-6.968817,6.1728554,-3.0825043,0,1683807228.5932858
-1.3285097,0.18338077,-0.6699646,1.4539719,-0.14232635,-1.9474411,-7.1787066,5.8540115,-3.2198005,0,1683807228.608911
-1.3285097,0.18338077,-0.6699646,1.4539719,-0.14232635,-1.9474411,-7.293078,5.672287,-3.2873323,0,1683807228.640161
-1.6308938,0.06160211,-0.84740055,0.1149559,-1.0328674,0.7200432,-7.6282935,5.124727,-3.4229674,0,1683807228.655786
-1.6308938,0.06160211,-0.84740055,0.29813766,-0.44166565,0.09786606,-7.6282935,5.124727,-3.4229674,0,1683807228.6714115
-1.6308938,0.06160211,-0.84740055,-0.1779747,-1.1447525,1.0396767,-7.6239114,5.184023,-3.342495,0,1683807228.6870358
-1.6174724,0.09796889,-0.97113556,-0.1779747,-1.1447525,1.0396767,-7.6239114,5.184023,-3.342495,0,1683807228.6870358
-1.4776317,0.14434487,-0.93087125,-0.37504196,-1.1053658,1.1695862,-7.551427,5.4046273,-3.1521962,0,1683807228.7026608
-1.4158779,0.1565379,-0.7883311,-1.0344696,-0.61323166,1.5679932,-7.551427,5.4046273,-3.1521962,0,1683807228.7182834
-1.0102472,0.1885067,-0.3849146,-2.0539856,-0.96157074,3.9190483,-6.2199283,7.334244,-1.9213898,0,1683807228.733911
-0.94069844,0.18900716,-0.371478,-2.317009,-0.6654358,4.3632507,-6.2199283,7.334244,-1.9213898,0,1683807228.7495363
-0.846248,0.21169469,-0.36513883,-2.4992561,-0.5460739,4.643364,-5.4403305,8.0399475,-1.3901192,0,1683807228.7651613
-0.846248,0.21169469,-0.36513883,-2.4992561,-0.5460739,4.643364,-3.745748,9.056878,-0.33573467,0,1683807228.796411
-0.40158144,0.21974756,0.038050145,-3.1362534,-0.116825104,5.374222,-3.745748,9.056878,-0.33573467,0,1683807228.796411
-0.36741367,0.22049066,0.08465361,-3.1362534,-0.116825104,5.374222,-3.745748,9.056878,-0.33573467,0,1683807228.812036
-0.099439934,0.25611433,0.3055234,-2.906208,-0.13591766,5.8130836,-2.1820817,9.54587,0.5341023,0,1683807228.8276608
-0.099439934,0.25611433,0.3055234,-2.835846,-0.1455307,5.881176,-2.1820817,9.54587,0.5341023,0,1683807228.843286
-0.04428315,0.25587168,0.35654002,-2.835846,-0.1455307,5.881176,-1.8997464,9.597131,0.6756013,0,1683807228.8589113
0.16342302,0.22317494,0.43389904,-2.835846,-0.1455307,5.881176,-1.0277559,9.691921,1.0866241,0,1683807228.8745334
0.63127756,0.27661803,0.6176741,-2.9753685,1.8912315,6.1933327,1.0324743,9.52241,2.1043026,0,1683807228.8901608
0.81065464,0.29028213,0.72945875,-3.0968666,2.2992516,6.0910606,1.8444746,9.273043,2.6036484,0,1683807228.905786
1.344403,0.46063575,0.879794,-3.0968666,2.2992516,6.0910606,1.8444746,9.273043,2.6036484,0,1683807228.937036
2.1995835,1.0053792,1.1838918,-1.4264679,-0.19346237,2.4362373,3.7893913,8.122651,3.979126,0,1683807228.952661
1.6067656,0.776684,1.0240327,1.0619736,-1.3450241,-1.1686516,3.7893913,8.122651,3.979126,0,1683807229.0151608
1.6067656,0.776684,1.0240327,1.0619736,-1.3450241,-1.1686516,4.0319567,8.105517,3.7701852,0,1683807229.030786
1.7595425,0.8450196,1.1463118,1.5221977,-1.1735916,-2.090168,3.8888419,8.281438,3.5305924,0,1683807229.046411
1.7595425,0.8450196,1.1463118,1.5221977,-1.1735916,-2.090168,3.4712393,8.6497,3.0501773,0,1683807229.0620363
0.6449416,0.69200003,0.62011576,1.5870857,-0.54073334,-1.8877602,3.4712393,8.6497,3.0501773,0,1683807229.0620363
0.6449416,0.69200003,0.62011576,1.5870857,-0.54073334,-1.8877602,3.400946,8.703391,2.9757242,0,1683807229.0776484
0.6839927,0.7713154,0.52859217,1.5051079,0.00787735,-1.6992378,3.1908178,8.848233,2.7745,0,1683807229.0932748
0.6839927,0.7713154,0.52859217,1.3921547,0.4690361,-1.7279434,2.7016692,9.102277,2.4535575,0,1683807229.1088986
0.7259707,0.8869976,0.40901253,1.3921547,0.4690361,-1.7279434,2.7016692,9.102277,2.4535575,0,1683807229.1088986
0.7259707,0.8869976,0.40901253,1.3666534,0.72151184,-1.9485092,2.7016692,9.102277,2.4535575,0,1683807229.124522
0.6251659,0.8811437,0.30870816,1.5594482,0.6885338,-2.358532,2.604668,9.14434,2.4014885,0,1683807229.1401484
0.72401434,0.84941757,0.46538255,1.5594482,0.6885338,-2.358532,2.9643002,8.977592,2.6050239,0,1683807229.1557715
0.72401434,0.84941757,0.46538255,1.5594482,0.6885338,-2.358532,3.1180441,8.892653,2.714572,0,1683807229.1713977
0.69985574,0.8811437,0.39680433,1.5594482,0.6885338,-2.358532,3.1180441,8.892653,2.714572,0,1683807229.1713977
0.69985574,0.8811437,0.39680433,1.5594482,0.6885338,-2.358532,1.5309489,9.526899,1.7506512,0,1683807229.187022
0.5033872,0.8596694,0.24134317,1.9109917,0.03551483,-2.9008675,1.5309489,9.526899,1.7506512,0,1683807229.187022
0.2920413,0.761564,0.1935113,2.2475815,-0.59080124,-3.7636375,-0.11814126,9.781457,0.6924825,0,1683807229.2026465
0.14291932,0.68370456,0.06709201,2.5661469,-0.8390045,-4.827881,-1.6218113,9.670507,-0.14631635,0,1683807229.2182717
0.026008768,0.5897393,0.06122297,2.633171,-0.77825546,-5.15913,-2.5810938,9.441608,-0.6036244,0,1683807229.2495213
-0.3481232,0.38277626,-0.091311246,2.2997856,0.2400589,-5.184765,-4.7212386,8.449738,-1.5755098,0,1683807229.2963958
-0.3481232,0.38277626,-0.091311246,2.2997856,0.2400589,-5.184765,-5.5412006,7.8394256,-2.0022213,0,1683807229.4214113
-0.9485087,0.1582516,-0.39516646,2.424488,0.4478073,-4.9376297,-5.5412006,7.8394256,-2.0022213,0,1683807229.4214113
-0.9485087,0.1582516,-0.39516646,2.335968,0.17717361,-4.4177246,-5.5412006,7.8394256,-2.0022213,0,1683807229.437036
-0.992443,0.1399469,-0.41004378,2.335968,0.17717361,-4.4177246,-5.5412006,7.8394256,-2.0022213,0,1683807229.452661
-1.434668,0.030361256,-0.6601981,-0.40388107,0.18785477,0.09572983,-8.102328,4.3427477,-3.4151437,0,1683807229.468286
-1.4168485,0.029633313,-0.6323846,-0.40388107,0.18785477,0.09572983,-8.096286,4.352396,-3.41719,0,1683807229.4995358
-1.5474231,0.025720624,-0.6426365,-0.3122902,-1.3364792,1.1056328,-8.07413,4.591486,-3.1459608,0,1683807229.515161
-1.4473614,0.06477169,-0.52158576,-0.60201645,-1.6529083,1.9685364,-8.024347,4.9094872,-2.770771,0,1683807229.530786
-1.3856076,0.05891782,-0.44079933,-0.87465286,-1.3492966,2.30299,-7.9605885,5.0932293,-2.618865,0,1683807229.5464115
-1.3177725,0.086488634,-0.38344356,-1.1228561,-0.96904755,2.6523972,-7.863088,5.308951,-2.4813836,0,1683807229.5932722
-1.0954317,0.0852754,-0.47668082,-1.9549179,-1.0414124,4.1970253,-6.931517,6.7150164,-1.741557,0,1683807229.6089113
-0.9873171,0.060874168,-0.3202339,-2.3927116,-0.85502625,4.8117256,-6.3410354,7.3643136,-1.3147404,0,1683807229.6245358
-0.9873171,0.060874168,-0.3202339,-2.3927116,-0.85502625,4.8117256,-5.9804173,7.6954317,-1.0887196,0,1683807229.6401625
-0.9958553,-0.00013648917,-0.24945669,-2.3927116,-0.85502625,4.8117256,-5.9804173,7.6954317,-1.0887196,0,1683807229.655786
-0.9958553,-0.00013648917,-0.24945669,-2.6377106,-0.5013466,5.1760864,-5.9804173,7.6954317,-1.0887196,0,1683807229.671409
-0.45014125,-0.08873312,0.079770334,-3.7732506,0.7471466,6.7089653,-3.6923552,9.084279,0.11305011,0,1683807229.6870363
0.1692769,0.0010767478,0.3828976,-4.1898155,1.5236664,7.029667,-2.0781722,9.53267,0.98983777,0,1683807229.7026608
0.52316296,0.024507387,0.87369746,-4.348564,2.4100685,6.6599655,-1.7513597,9.576483,1.1807184,0,1683807229.765161
0.5902701,0.017425116,1.0235474,-4.3580437,2.9234314,6.4883995,0.38430834,9.434242,2.6491077,0,1683807229.7807863
0.5902701,0.017425116,1.0235474,-4.3580437,2.9234314,6.4883995,1.7440723,8.787337,3.9888952,0,1683807229.7964113
0.70302534,-0.008447163,1.1836492,-3.6572266,4.3956947,5.7086754,1.7440723,8.787337,3.9888952,0,1683807229.7964113
0.70302534,-0.008447163,1.1836492,-3.6572266,4.3956947,5.7086754,2.073241,8.507878,4.414528,0,1683807229.812036
0.8167511,-0.0062481705,1.2868805,-3.3130264,4.284878,4.687023,2.694189,7.56623,5.6270676,0,1683807229.8276608
0.77771527,-0.052366342,1.2107347,-3.243866,4.4147873,3.9233208,2.7731688,7.2369475,6.0088696,0,1683807229.843286
0.77771527,-0.052366342,1.2107347,-3.243866,4.4147873,3.9233208,2.7943347,6.904212,6.3791795,0,1683807229.858911
0.77771527,-0.052366342,1.2107347,-3.243866,4.4147873,3.9233208,2.5640345,5.983628,7.3343244,0,1683807229.874536
0.46336555,-0.044798777,1.5431465,-2.418213,4.499035,3.1488037,2.5640345,5.983628,7.3343244,0,1683807229.874536
0.26005736,-0.10776578,1.1951143,-0.5849266,2.498455,2.6162148,2.0690458,5.2202945,8.039774,0,1683807229.921411
0.22223468,0.0049894373,1.0198926,0.64113617,1.4619827,2.2668076,2.0208209,5.126342,8.11217,0,1683807229.9370358
0.46774837,-0.014301031,1.0320855,1.74263,2.4068642,1.8865585,2.0601897,5.17935,8.068478,0,1683807229.952661
0.46774837,-0.014301031,1.0320855,1.74263,2.4068642,1.8865585,2.0259764,5.2961073,8.001066,0,1683807229.9682863
0.32742232,0.21682061,0.88419193,1.5264702,2.8915215,1.8758774,1.8451163,5.4248247,7.958467,0,1683807229.9839113
0.34401336,0.38497525,1.1741253,0.37277222,2.1255493,2.200718,1.8063109,5.420006,7.970644,0,1683807229.9995358
0.43822122,0.48527962,1.1438701,-0.6116295,2.793522,2.4351692,1.6005837,5.262403,8.118844,0,1683807230.015161
0.512168,0.4823527,1.1375159,-0.78199387,3.2728386,2.4287605,1.4785632,5.15897,8.207878,0,1683807230.030786
0.5509764,0.5531299,1.062841,-0.8789253,3.6926079,2.3616028,1.312228,5.0523343,8.3019495,0,1683807230.077739
0.5475642,0.61633956,1.046978,-1.1878777,3.651085,1.973877,0.9182783,4.828198,8.486203,0,1683807230.0932858
0.3008221,0.9663281,1.2329521,0.14472961,1.6376877,0.5709076,-0.03569365,4.4997525,8.713285,0,1683807230.108911
0.32376745,1.0802965,1.2390486,0.7519531,0.773716,0.58265686,-0.03569365,4.4997525,8.713285,0,1683807230.1245358
0.3025358,0.72031397,0.88931787,1.5072441,-0.588665,-0.018157959,0.076233916,5.0064373,8.432092,0,1683807230.1557882
0.13046847,0.73105115,0.8729695,1.4986992,-0.6249809,-0.112953186,0.12784065,5.136191,8.353059,0,1683807230.171411
0.041871842,0.7093342,0.82683617,1.3581085,-0.4512787,-0.052337646,0.18534553,5.356568,8.212382,0,1683807230.1870358
0.060176555,0.7161586,0.64770174,0.9980202,0.114421844,0.11602402,0.13760886,5.5175157,8.106076,0,1683807230.2182863
0.07531168,0.71006215,0.6184172,0.6134987,0.5171013,0.24499893,0.1240272,5.536425,8.093392,0,1683807230.233899
0.06457454,0.62830514,0.8100025,0.19159317,0.39880753,0.2428627,0.0752951,5.5916834,8.055917,0,1683807230.2495368
0.06457454,0.62830514,0.8100025,0.2076149,0.3604889,0.23645401,0.08252644,5.582856,8.061966,0,1683807230.2651613
0.014058384,0.6387996,0.80487657,0.36743164,0.33592224,0.2726364,0.033897042,5.6875005,7.9888406,0,1683807230.3120358
0.016985318,0.6287904,0.73091465,0.36743164,0.33592224,0.2726364,0.018648652,5.715845,7.968636,0,1683807230.343286
0.06774412,0.62513554,0.7011448,0.1511383,0.7386017,0.3355217,-0.11200513,5.8265457,7.887281,0,1683807230.3589113
-0.23879537,0.60146224,0.2105876,0.5570221,1.8240738,-0.10026932,-0.5159592,5.9311824,7.7926397,0,1683807230.390161
-0.4110902,0.58192915,0.54324204,0.6422043,1.5758705,-0.087451935,-0.5159592,5.9311824,7.7926397,0,1683807230.405786
