acc_x,acc_y,acc_z,gyr_x,gyr_y,gyr_z,grav_x,grav_y,grav_z,label,timestamp
-1.4993486,0.33104688,-0.1335319,0.8739853,-0.70201874,-0.26021957,-6.092798,7.6420474,-0.8045533,0,1683900420.2912045
-1.7273006,0.2724627,-0.007112602,0.8739853,-0.70201874,-0.26021957,-6.092798,7.6420474,-0.8045533,0,1683900420.3046358
-1.7273006,0.2724627,-0.007112602,0.91243744,-0.5709076,0.2883911,-6.092798,7.6420474,-0.8045533,0,1683900420.3098962
-1.7273006,0.2724627,-0.007112602,0.8602333,-0.34620285,0.66223145,-6.092798,7.6420474,-0.8045533,0,1683900420.3254988
-1.7273006,0.2724627,-0.007112602,0.8602333,-0.34620285,0.66223145,-6.121254,7.6089606,-0.89685655,0,1683900420.335787
-1.760968,0.2778313,-0.09472348,0.8602333,-0.34620285,0.66223145,-6.121254,7.6089606,-0.89685655,0,1683900420.3562922
-1.760968,0.2778313,-0.09472348,0.7898712,-0.22790909,0.84861755,-6.121254,7.6089606,-0.89685655,0,1683900420.3716376
-1.7534156,0.28539884,-0.15135132,0.7898712,-0.22790909,0.84861755,-6.121254,7.6089606,-0.89685655,0,1683900420.3767695
-1.7534156,0.28539884,-0.15135132,0.7898712,-0.22790909,0.84861755,-6.101325,7.6221523,-0.9203399,0,1683900420.392057
-1.6423589,0.32957584,-0.25066993,0.7898712,-0.22790909,0.84861755,-6.101325,7.6221523,-0.9203399,0,1683900420.3971832
-1.6423589,0.32957584,-0.25066993,0.7898712,-0.22790909,0.84861755,-5.9968815,7.696263,-0.98759705,0,1683900420.417624
-1.6423589,0.32957584,-0.25066993,0.40107727,0.13097763,1.3578415,-5.9968815,7.696263,-0.98759705,0,1683900420.4227407
-1.6423589,0.32957584,-0.25066993,0.25194168,0.23431778,1.4898872,-5.9968815,7.696263,-0.98759705,0,1683900420.4381304
-1.6423589,0.32957584,-0.25066993,0.25194168,0.23431778,1.4898872,-5.9479256,7.731864,-1.0054036,0,1683900420.453422
-1.5586456,0.36741367,-0.2170026,0.25194168,0.23431778,1.4898872,-5.9479256,7.731864,-1.0054036,0,1683900420.458517
-1.5586456,0.36741367,-0.2170026,-0.027236938,0.49640656,1.7051125,-5.9479256,7.731864,-1.0054036,0,1683900420.4687705
-1.301409,0.4394041,-0.012481175,-0.027236938,0.49640656,1.7051125,-5.9479256,7.731864,-1.0054036,0,1683900420.479024
-1.301409,0.4394041,-0.012481175,-0.027236938,0.49640656,1.7051125,-5.7734275,7.8579307,-1.0444406,0,1683900420.489286
-1.2457669,0.44136044,0.03365216,-0.027236938,0.49640656,1.7051125,-5.7734275,7.8579307,-1.0444406,0,1683900420.4944248
-1.2457669,0.44136044,0.03365216,-0.033512115,0.5783844,1.728611,-5.7734275,7.8579307,-1.0444406,0,1683900420.5149264
-1.2457669,0.44136044,0.03365216,-0.033512115,0.5783844,1.728611,-5.645051,7.94673,-1.0739037,0,1683900420.5200572
-1.2457669,0.44136044,0.03365216,-0.033512115,0.5783844,1.728611,-5.578873,7.9907002,-1.0932871,0,1683900420.5405586
-1.1840283,0.42915225,0.060252383,-0.033512115,0.5783844,1.728611,-5.578873,7.9907002,-1.0932871,0,1683900420.5508173
-1.1840283,0.42915225,0.060252383,0.026035309,0.7339287,1.7562485,-5.578873,7.9907002,-1.0932871,0,1683900420.555951
-1.1840283,0.42915225,0.060252383,0.026035309,0.7339287,1.7562485,-5.367502,8.122928,-1.1740322,0,1683900420.5815299
-1.1840283,0.42915225,0.060252383,0.11762619,0.9694481,1.8638611,-5.367502,8.122928,-1.1740322,0,1683900420.5866637
-1.179873,0.35252118,-0.06568162,0.11762619,0.9694481,1.8638611,-5.367502,8.122928,-1.1740322,0,1683900420.6020627
-1.184271,0.3288479,-0.13621618,0.11762619,0.9694481,1.8638611,-5.367502,8.122928,-1.1740322,0,1683900420.6225913
-1.184271,0.3288479,-0.13621618,0.1102829,1.0364723,1.9384956,-5.367502,8.122928,-1.1740322,0,1683900420.6277137
-1.184271,0.3288479,-0.13621618,0.1102829,1.0364723,1.9384956,-5.291161,8.168171,-1.206225,0,1683900420.6328542
-1.184271,0.3288479,-0.13621618,-0.078372955,1.163311,2.2782898,-5.291161,8.168171,-1.206225,0,1683900420.6533384
-1.1281284,0.3034609,-0.26190755,-0.078372955,1.163311,2.2782898,-5.291161,8.168171,-1.206225,0,1683900420.6584463
-1.1281284,0.3034609,-0.26190755,-0.078372955,1.163311,2.2782898,-5.0283775,8.31877,-1.2976335,0,1683900420.6635423
-1.1281284,0.3034609,-0.26190755,-0.078372955,1.163311,2.2782898,-4.823598,8.432461,-1.3404863,0,1683900420.6943433
-1.1281284,0.3034609,-0.26190755,-0.27757645,1.1802673,2.5147438,-4.823598,8.432461,-1.3404863,0,1683900420.699467
-1.0471145,0.3088295,-0.24872875,-0.27757645,1.1802673,2.5147438,-4.823598,8.432461,-1.3404863,0,1683900420.7045922
-1.0471145,0.3088295,-0.24872875,-0.3829193,1.1707878,2.6223564,-4.823598,8.432461,-1.3404863,0,1683900420.7148545
-0.9882877,0.32200825,-0.18307747,-0.3829193,1.1707878,2.6223564,-4.823598,8.432461,-1.3404863,0,1683900420.7302527
-0.9882877,0.32200825,-0.18307747,-0.3829193,1.1707878,2.6223564,-4.7121363,8.493248,-1.3531033,0,1683900420.7456071
-0.9882877,0.32200825,-0.18307747,-0.3829193,1.1707878,2.6223564,-4.3459196,8.684654,-1.3638781,0,1683900420.7507367
-0.7749855,0.4005957,0.056339692,-0.3829193,1.1707878,2.6223564,-4.3459196,8.684654,-1.3638781,0,1683900420.7609994
-0.7749855,0.4005957,0.056339692,-0.58425903,1.2645149,2.886448,-4.3459196,8.684654,-1.3638781,0,1683900420.7814043
-0.7749855,0.4005957,0.056339692,-0.5960083,1.4637184,2.9706955,-4.3459196,8.684654,-1.3638781,0,1683900420.8224146
-0.51433665,0.4730866,0.172037,-0.5960083,1.4637184,2.9706955,-4.3459196,8.684654,-1.3638781,0,1683900420.8326733
-0.51433665,0.4730866,0.172037,-0.5960083,1.4637184,2.9706955,-3.8031273,8.936377,-1.3593352,0,1683900420.837777
-0.4552672,0.4735719,0.17716293,-0.5960083,1.4637184,2.9706955,-3.8031273,8.936377,-1.3593352,0,1683900420.8582764
-0.4552672,0.4735719,0.17716293,-0.5960083,1.4637184,2.9706955,-3.52375,9.050641,-1.3562717,0,1683900420.8787687
-0.4552672,0.4735719,0.17716293,-0.5821228,1.5456963,2.9439926,-3.52375,9.050641,-1.3562717,0,1683900420.8839028
-0.4552672,0.4735719,0.17716293,-0.5799866,1.5936279,2.9313087,-3.52375,9.050641,-1.3562717,0,1683900420.9094725
-0.4552672,0.4735719,0.17716293,-0.5799866,1.5936279,2.9313087,-3.3834724,9.10432,-1.3542085,0,1683900420.914604
-0.42402634,0.4726013,0.18545844,-0.5799866,1.5936279,2.9313087,-3.3834724,9.10432,-1.3542085,0,1683900420.9197373
-0.3686269,0.44672903,0.1730076,-0.5799866,1.5936279,2.9313087,-3.3834724,9.10432,-1.3542085,0,1683900420.940241
-0.3686269,0.44672903,0.1730076,-0.5799866,1.5936279,2.9313087,-2.956648,9.2530365,-1.3453373,0,1683900420.9505155
-0.3686269,0.44672903,0.1730076,-0.5747795,1.7235374,2.9046059,-2.956648,9.2530365,-1.3453373,0,1683900420.9607651
-0.3598461,0.42574003,0.15738717,-0.5747795,1.7235374,2.9046059,-2.956648,9.2530365,-1.3453373,0,1683900420.9761724
-0.3598461,0.42574003,0.15738717,-0.5747795,1.7235374,2.9046059,-2.8120399,9.298584,-1.3413274,0,1683900420.9813077
-0.3598461,0.42574003,0.15738717,-0.5758476,1.766262,2.9174232,-2.8120399,9.298584,-1.3413274,0,1683900420.9864433
-0.3598461,0.42574003,0.15738717,-0.6237793,1.8258095,3.058014,-2.8120399,9.298584,-1.3413274,0,1683900421.0069451
-0.29736438,0.4201288,0.052927464,-0.6237793,1.8258095,3.058014,-2.8120399,9.298584,-1.3413274,0,1683900421.0171309
-0.29736438,0.4201288,0.052927464,-0.6833267,1.766262,3.2050133,-2.8120399,9.298584,-1.3413274,0,1683900421.0427089
-0.29736438,0.4201288,0.052927464,-0.6833267,1.766262,3.2050133,-2.043272,9.503492,-1.2957878,0,1683900421.0478413
-0.19754532,0.4245116,-0.00027297833,-0.6833267,1.766262,3.2050133,-2.043272,9.503492,-1.2957878,0,1683900421.0581036
-0.19754532,0.4245116,-0.00027297833,-0.71430206,1.7119217,3.2689667,-2.043272,9.503492,-1.2957878,0,1683900421.0734098
-0.120671585,0.44233105,0.011677406,-0.71430206,1.7119217,3.2689667,-2.043272,9.503492,-1.2957878,0,1683900421.0836327
-0.120671585,0.44233105,0.011677406,-0.71430206,1.7119217,3.2689667,-1.8768775,9.540193,-1.2776707,0,1683900421.0939283
-0.120671585,0.44233105,0.011677406,-0.722847,1.533947,3.3626938,-1.8768775,9.540193,-1.2776707,0,1683900421.1093705
-0.120671585,0.44233105,0.011677406,-0.722847,1.533947,3.3626938,-1.3627199,9.636419,-1.2053207,0,1683900421.1144986
0.12875478,0.53898054,0.13175754,-0.722847,1.533947,3.3626938,-1.3627199,9.636419,-1.2053207,0,1683900421.1299753
0.41918856,0.6048745,0.17397818,-0.722847,1.533947,3.3626938,-1.3627199,9.636419,-1.2053207,0,1683900421.1814625
0.41918856,0.6048745,0.17397818,-0.4671669,1.3678551,3.1857872,-1.3627199,9.636419,-1.2053207,0,1683900421.1866198
0.41918856,0.6048745,0.17397818,-0.4671669,1.3678551,3.1857872,-0.67967016,9.719626,-1.1123424,0,1683900421.1969204
0.41918856,0.6048745,0.17397818,-0.3595543,1.307106,3.0665588,-0.67967016,9.719626,-1.1123424,0,1683900421.2123687
0.41918856,0.6048745,0.17397818,-0.3595543,1.307106,3.0665588,-0.35141054,9.741008,-1.0768715,0,1683900421.227719
0.52803105,0.64172655,0.118336104,-0.3595543,1.307106,3.0665588,-0.35141054,9.741008,-1.0768715,0,1683900421.2328176
0.52803105,0.64172655,0.118336104,-0.3595543,1.307106,3.0665588,-0.19038928,9.747219,-1.0610689,0,1683900421.2379444
0.56879586,0.66759884,0.084168315,-0.3595543,1.307106,3.0665588,-0.19038928,9.747219,-1.0610689,0,1683900421.263643
0.56879586,0.66759884,0.084168315,-0.32016754,1.2549019,3.0154228,-0.19038928,9.747219,-1.0610689,0,1683900421.2687876
0.56879586,0.66759884,0.084168315,-0.2104187,0.9555626,2.9003334,-0.19038928,9.747219,-1.0610689,0,1683900421.2790613
0.56879586,0.66759884,0.084168315,-0.2104187,0.9555626,2.9003334,0.2784592,9.7495365,-1.0195106,0,1683900421.2842267
0.72035944,0.74033237,0.05684015,-0.2104187,0.9555626,2.9003334,0.2784592,9.7495365,-1.0195106,0,1683900421.2893844
0.72035944,0.74033237,0.05684015,-0.018692017,0.4996109,2.7182198,0.2784592,9.7495365,-1.0195106,0,1683900421.3358943
0.99687135,0.9060454,0.112724885,-0.018692017,0.4996109,2.7182198,0.2784592,9.7495365,-1.0195106,0,1683900421.3359082
0.99687135,0.9060454,0.112724885,-0.018692017,0.4996109,2.7182198,0.8781736,9.717459,-0.98498034,0,1683900421.3410206
0.99687135,0.9060454,0.112724885,-0.018692017,0.4996109,2.7182198,1.1567622,9.688558,-0.98190814,0,1683900421.371819
0.99687135,0.9060454,0.112724885,0.09426117,0.33979416,2.525425,1.1567622,9.688558,-0.98190814,0,1683900421.3769424
1.1401395,0.97071093,0.12541838,0.14112473,0.29079437,2.4092674,1.1567622,9.688558,-0.98190814,0,1683900421.3821797
1.5342898,1.1891391,0.039991323,0.1890564,0.23324966,1.9821548,1.6432394,9.616431,-0.9971958,0,1683900421.3873854
1.6931633,1.3097045,-0.034440767,0.20828247,0.16836166,1.1725235,1.6432394,9.616431,-0.9971958,0,1683900421.3976793
1.6931633,1.3097045,-0.034440767,0.20828247,0.16836166,1.1725235,1.9994634,9.546256,-1.0205506,0,1683900421.4028368
1.7485627,1.3563231,-0.079588346,0.20828247,0.16836166,1.1725235,1.9994634,9.546256,-1.0205506,0,1683900421.4130466
1.7485627,1.3563231,-0.079588346,0.21362305,0.09906769,0.6878662,1.9994634,9.546256,-1.0205506,0,1683900421.4232209
1.7485627,1.3563231,-0.079588346,0.4958725,-1.0120392,-1.9487762,1.9994634,9.546256,-1.0205506,0,1683900421.4283228
1.7485627,1.3563231,-0.079588346,0.4958725,-1.0120392,-1.9487762,1.551766,9.585332,-1.3725209,0,1683900421.4435716
1.1747925,1.009034,-0.16013213,0.4958725,-1.0120392,-1.9487762,1.551766,9.585332,-1.3725209,0,1683900421.4588928
1.0188309,0.90311843,-0.1650154,0.4958725,-1.0120392,-1.9487762,1.551766,9.585332,-1.3725209,0,1683900421.4794526
1.0188309,0.90311843,-0.1650154,0.4958725,-1.0120392,-1.9487762,1.2322167,9.616654,-1.4737729,0,1683900421.4846058
1.0188309,0.90311843,-0.1650154,0.4958725,-1.0120392,-1.9487762,0.9874878,9.634658,-1.5390363,0,1683900421.49495
1.0188309,0.90311843,-0.1650154,0.50655365,-1.4860153,-2.591114,0.9874878,9.634658,-1.5390363,0,1683900421.505256
0.9251236,0.8711345,-0.15256456,0.50655365,-1.4860153,-2.591114,0.9874878,9.634658,-1.5390363,0,1683900421.5104337
0.9251236,0.8711345,-0.15256456,0.49480438,-1.5456963,-2.6997948,0.9874878,9.634658,-1.5390363,0,1683900421.5309732
0.9251236,0.8711345,-0.15256456,0.49480438,-1.5456963,-2.6997948,0.85498494,9.642351,-1.5698535,0,1683900421.5361052
0.87533534,0.8469759,-0.13742942,0.49480438,-1.5456963,-2.6997948,0.85498494,9.642351,-1.5698535,0,1683900421.5412393
0.71523356,0.77694184,-0.08422898,0.49480438,-1.5456963,-2.6997948,0.85498494,9.642351,-1.5698535,0,1683900421.5719411
0.71523356,0.77694184,-0.08422898,0.49480438,-1.5456963,-2.6997948,0.4225037,9.657617,-1.649942,0,1683900421.5822048
0.71523356,0.77694184,-0.08422898,0.43619156,-1.6255379,-3.0034065,0.4225037,9.657617,-1.649942,0,1683900421.5975952
0.60760427,0.72665316,-0.052988127,0.43619156,-1.6255379,-3.0034065,0.4225037,9.657617,-1.649942,0,1683900421.6079302
0.60760427,0.72665316,-0.052988127,0.39787292,-1.626606,-3.1865883,0.4225037,9.657617,-1.649942,0,1683900421.6130595
0.60760427,0.72665316,-0.052988127,0.39787292,-1.626606,-3.1865883,0.10780156,9.659014,-1.6918066,0,1683900421.618177
0.60760427,0.72665316,-0.052988127,0.36596298,-1.6244698,-3.327179,0.10780156,9.659014,-1.6918066,0,1683900421.6438222
0.49557698,0.65686166,-0.033712823,0.36596298,-1.6244698,-3.327179,0.10780156,9.659014,-1.6918066,0,1683900421.6489592
0.49557698,0.65686166,-0.033712823,0.36596298,-1.6244698,-3.327179,-0.22430842,9.651171,-1.7248076,0,1683900421.6693718
0.49557698,0.65686166,-0.033712823,0.36596298,-1.6244698,-3.327179,-0.5683483,9.632633,-1.7492138,0,1683900421.6847346
0.36842975,0.5887687,-0.032727066,0.36596298,-1.6244698,-3.327179,-0.5683483,9.632633,-1.7492138,0,1683900421.6898687
0.36842975,0.5887687,-0.032727066,0.32964706,-1.6212654,-3.4070206,-0.5683483,9.632633,-1.7492138,0,1683900421.695008
0.36842975,0.5887687,-0.032727066,0.3606224,-1.2324715,-1.6653252,-0.5683483,9.632633,-1.7492138,0,1683900421.7001333
-1.7539009,0.37375283,-0.083986335,0.3606224,-1.2324715,-1.6653252,-0.5683483,9.632633,-1.7492138,0,1683900421.705224
-1.8317453,0.39377123,-0.0693365,0.3606224,-1.2324715,-1.6653252,-0.5683483,9.632633,-1.7492138,0,1683900421.7205539
-1.8317453,0.39377123,-0.0693365,0.3606224,-1.2324715,-1.6653252,-6.1700544,7.529062,-1.1891329,0,1683900421.7358692
-1.8317453,0.39377123,-0.0693365,0.24980545,-1.0769272,-1.3340759,-6.1700544,7.529062,-1.1891329,0,1683900421.7410026
-1.8727527,0.4088912,-0.027358495,0.24980545,-1.0769272,-1.3340759,-6.1700544,7.529062,-1.1891329,0,1683900421.7615092
-1.8727527,0.4088912,-0.027358495,0.13792038,-0.8543587,-1.0155106,-6.1700544,7.529062,-1.1891329,0,1683900421.776895
-1.8727527,0.4088912,-0.027358495,0.13792038,-0.8543587,-1.0155106,-6.285112,7.440806,-1.1411229,0,1683900421.7820241
-1.8761649,0.41694406,-0.02590261,0.13792038,-0.8543587,-1.0155106,-6.285112,7.440806,-1.1411229,0,1683900421.7871246
-1.8761649,0.41694406,-0.02590261,0.13792038,-0.8543587,-1.0155106,-6.332448,7.403808,-1.1198763,0,1683900421.812731
-1.8761649,0.41694406,-0.02590261,0.08571625,-0.71590424,-0.86637497,-6.332448,7.403808,-1.1198763,0,1683900421.8178477
-1.8761649,0.41694406,-0.02590261,0.08571625,-0.71590424,-0.86637497,-6.4386897,7.319106,-1.0697397,0,1683900421.8229787
-1.8393128,0.4347635,0.0033818982,0.08571625,-0.71590424,-0.86637497,-6.4386897,7.319106,-1.0697397,0,1683900421.8434997
-1.8363858,0.39645553,0.051714227,0.08571625,-0.71590424,-0.86637497,-6.4386897,7.319106,-1.0697397,0,1683900421.8588748
-1.8363858,0.39645553,0.051714227,-0.058078766,-0.17677307,-0.2965355,-6.4386897,7.319106,-1.0697397,0,1683900421.8742516
-1.8363858,0.39645553,0.051714227,-0.058078766,-0.17677307,-0.2965355,-6.486931,7.27977,-1.0464541,0,1683900421.879357
-1.8363858,0.39645553,0.051714227,-0.058078766,-0.17677307,-0.2965355,-6.519417,7.2523804,-1.034687,0,1683900421.8998768
-1.8593313,0.37815082,0.06927583,-0.058078766,-0.17677307,-0.2965355,-6.519417,7.2523804,-1.034687,0,1683900421.9050322
-1.8593313,0.37815082,0.06927583,-0.047397614,-0.092659,-0.1974678,-6.519417,7.2523804,-1.034687,0,1683900421.9153185
-1.8593313,0.37815082,0.06927583,-0.047397614,-0.092659,-0.1974678,-6.532694,7.24007,-1.0371519,0,1683900421.9204488
-1.8593313,0.37815082,0.06927583,-0.002670288,0.17784119,0.18918991,-6.532694,7.24007,-1.0371519,0,1683900421.9358997
-1.9652468,0.26588088,0.026327243,-0.002670288,0.17784119,0.18918991,-6.532694,7.24007,-1.0371519,0,1683900421.9513984
-1.9652468,0.26588088,0.026327243,-0.002670288,0.17784119,0.18918991,-6.530428,7.2411633,-1.0437664,0,1683900421.961667
0.53121585,0.7652189,0.28844708,-0.002670288,0.17784119,0.18918991,-6.530428,7.2411633,-1.0437664,0,1683900421.992432
0.53121585,0.7652189,0.28844708,-0.002670288,0.17784119,0.18918991,-0.6653087,9.751207,-0.80107147,0,1683900421.9975688
0.53121585,0.7652189,0.28844708,-0.95609665,1.6394234,3.143196,-0.6653087,9.751207,-0.80107147,0,1683900422.0078394
0.53121585,0.7652189,0.28844708,-0.65675735,1.6766739,2.8204918,-0.6653087,9.751207,-0.80107147,0,1683900422.0231948
0.53121585,0.7652189,0.28844708,-0.65675735,1.6766739,2.8204918,-0.19494647,9.78053,-0.68819594,0,1683900422.0283275
0.6244379,0.82061833,0.2569636,-0.65675735,1.6766739,2.8204918,-0.19494647,9.78053,-0.68819594,0,1683900422.0385907
0.7769721,0.9267917,-0.027616307,-0.65675735,1.6766739,2.8204918,-0.19494647,9.78053,-0.68819594,0,1683900422.1001403
0.7769721,0.9267917,-0.027616307,-0.65675735,1.6766739,2.8204918,0.4009512,9.78121,-0.5810036,0,1683900422.1052856
0.7769721,0.9267917,-0.027616307,-0.44473648,1.4136505,2.8258324,0.4009512,9.78121,-0.5810036,0,1683900422.1104007
1.0002836,1.0324647,-0.09960676,-0.44473648,1.4136505,2.8258324,0.4009512,9.78121,-0.5810036,0,1683900422.120655
1.0002836,1.0324647,-0.09960676,-0.39360046,1.0131073,2.9418564,0.4009512,9.78121,-0.5810036,0,1683900422.141343
1.0002836,1.0324647,-0.09960676,-0.39360046,1.0131073,2.9418564,0.7130326,9.765998,-0.53596973,0,1683900422.1466327
1.1479497,1.1205609,-0.10521798,-0.39360046,1.0131073,2.9418564,0.7130326,9.765998,-0.53596973,0,1683900422.1534746
1.1479497,1.1205609,-0.10521798,-0.39360046,1.0131073,2.9418564,0.87357575,9.754035,-0.515788,0,1683900422.1637611
1.1479497,1.1205609,-0.10521798,-0.36169052,0.7723808,2.9781723,0.87357575,9.754035,-0.515788,0,1683900422.1740096
1.6221434,1.408553,0.0024113085,-0.36169052,0.7723808,2.9781723,0.87357575,9.754035,-0.515788,0,1683900422.189597
1.6221434,1.408553,0.0024113085,-0.19973755,0.10974884,2.7479935,0.87357575,9.754035,-0.515788,0,1683900422.2050152
1.6221434,1.408553,0.0024113085,-0.19973755,0.10974884,2.7479935,1.342267,9.702858,-0.47248363,0,1683900422.2101557
1.6221434,1.408553,0.0024113085,-0.13578415,-0.011749268,2.5232887,1.4827266,9.682783,-0.46436086,0,1683900422.225662
1.764183,1.4776165,0.051228933,-0.13578415,-0.011749268,2.5232887,1.4827266,9.682783,-0.46436086,0,1683900422.2359
1.764183,1.4776165,0.051228933,-0.13578415,-0.011749268,2.5232887,1.9876865,9.590231,-0.4969567,0,1683900422.2461982
1.764183,1.4776165,0.051228933,0.3178978,-0.067157745,0.49814224,1.9876865,9.590231,-0.4969567,0,1683900422.251296
1.8212962,1.5845178,0.019745432,0.3178978,-0.067157745,0.49814224,1.9876865,9.590231,-0.4969567,0,1683900422.256407
1.4674102,1.3648612,-0.23407891,0.3178978,-0.067157745,0.49814224,1.9876865,9.590231,-0.4969567,0,1683900422.320219
1.4674102,1.3648612,-0.23407891,0.1678276,-0.23004532,-0.95903397,1.9876865,9.590231,-0.4969567,0,1683900422.3305244
1.3629656,1.2845753,-0.21040563,0.1678276,-0.23004532,-0.95903397,1.9876865,9.590231,-0.4969567,0,1683900422.3460946
1.2985276,1.2462522,-0.19113033,0.08785248,-0.3994751,-1.2690544,1.8651568,9.60772,-0.6191074,0,1683900422.355345
1.2985276,1.2462522,-0.19113033,0.05487442,-0.47718048,-1.4139175,1.8651568,9.60772,-0.6191074,0,1683900422.3605118
1.2985276,1.2462522,-0.19113033,0.05487442,-0.47718048,-1.4139175,1.8086951,9.61798,-0.62726724,0,1683900422.36568
1.2985276,1.2462522,-0.19113033,-0.028305054,-0.65942764,-1.7868233,1.8086951,9.61798,-0.62726724,0,1683900422.3760383
1.0979036,1.1374097,-0.11839677,-0.028305054,-0.65942764,-1.7868233,1.8086951,9.61798,-0.62726724,0,1683900422.4019003
1.0979036,1.1374097,-0.11839677,-0.028305054,-0.65942764,-1.7868233,1.5961223,9.65443,-0.6440052,0,1683900422.4070284
0.665688,0.8933519,0.044874605,0.043125153,-1.2356758,-2.6613426,0.66885173,9.771246,-0.4957552,0,1683900422.42491
0.58929956,0.8660086,0.07611546,0.12830734,-1.3060379,-2.8382492,0.40343833,9.785063,-0.51008683,0,1683900422.4302099
0.58929956,0.8660086,0.07611546,0.17303467,-1.3315392,-2.920227,0.40343833,9.785063,-0.51008683,0,1683900422.4456384
0.58929956,0.8660086,0.07611546,0.17303467,-1.3315392,-2.920227,0.2634436,9.789355,-0.5191356,0,1683900422.4559271
0.58929956,0.8660086,0.07611546,0.31589508,-1.3837433,-3.2217026,0.2634436,9.789355,-0.5191356,0,1683900422.486786
0.4074808,0.7813246,0.0697763,0.31589508,-1.3837433,-3.2217026,0.2634436,9.789355,-0.5191356,0,1683900422.4919243
0.4074808,0.7813246,0.0697763,0.31589508,-1.3837433,-3.2217026,-0.33676967,9.784612,-0.5642236,0,1683900422.5175931
0.30155006,0.7156733,0.04267561,0.34139633,-1.3922882,-3.4337234,-0.33676967,9.784612,-0.5642236,0,1683900422.548428
0.30155006,0.7156733,0.04267561,0.34139633,-1.3922882,-3.4337234,-0.82716405,9.753374,-0.5982334,0,1683900422.5588503
0.30155006,0.7156733,0.04267561,0.31269073,-1.3858795,-3.5614967,-0.82716405,9.753374,-0.5982334,0,1683900422.5845463
0.30155006,0.7156733,0.04267561,0.31269073,-1.3858795,-3.5614967,-1.1708467,9.717135,-0.6138244,0,1683900422.5896943
0.22808856,0.67199683,0.034380104,0.31269073,-1.3858795,-3.5614967,-1.1708467,9.717135,-0.6138244,0,1683900422.594823
0.22808856,0.67199683,0.034380104,0.099601746,-1.3092422,-3.656292,-1.1708467,9.717135,-0.6138244,0,1683900422.6051428
0.22808856,0.67199683,0.034380104,0.099601746,-1.3092422,-3.656292,-4.9953527,8.430693,-0.37450954,0,1683900422.615468
-0.89530826,0.28198662,0.1195645,0.099601746,-1.3092422,-3.656292,-4.9953527,8.430693,-0.37450954,0,1683900422.625779
-0.89530826,0.28198662,0.1195645,0.099601746,-1.3092422,-3.656292,-5.5892334,8.054101,-0.2496428,0,1683900422.6412432
-0.89530826,0.28198662,0.1195645,0.30094147,-1.3837433,-2.989521,-5.5892334,8.054101,-0.2496428,0,1683900422.6619117
-1.2482085,0.24317819,0.18447268,0.30094147,-1.3837433,-2.989521,-5.5892334,8.054101,-0.2496428,0,1683900422.6721785
-1.2482085,0.24317819,0.18447268,0.26903152,-1.409378,-3.1407928,-5.5892334,8.054101,-0.2496428,0,1683900422.6927893
-1.1893969,0.22902882,0.19326866,0.26903152,-1.409378,-3.1407928,-5.5892334,8.054101,-0.2496428,0,1683900422.7031438
-1.3612064,0.24733353,0.15201859,0.26903152,-1.409378,-3.1407928,-5.5892334,8.054101,-0.2496428,0,1683900422.7186131
-1.3612064,0.24733353,0.15201859,0.32644272,-1.288948,-2.6965904,-5.5892334,8.054101,-0.2496428,0,1683900422.7237265
-1.3612064,0.24733353,0.15201859,0.32644272,-1.288948,-2.6965904,-5.958264,7.7873273,-0.16436198,0,1683900422.7340076
-1.3612064,0.24733353,0.15201859,0.25835037,-1.094017,-2.2704124,-5.958264,7.7873273,-0.16436198,0,1683900422.7648354
-1.3612064,0.24733353,0.15201859,0.25835037,-1.094017,-2.2704124,-6.1690087,7.622411,-0.1121311,0,1683900422.7699537
-1.4932369,0.27296317,0.085639365,0.25835037,-1.094017,-2.2704124,-6.1690087,7.622411,-0.1121311,0,1683900422.7751434
-1.4932369,0.27296317,0.085639365,0.25835037,-1.094017,-2.2704124,-6.264591,7.5443854,-0.086879335,0,1683900422.8008852
-1.4932369,0.27296317,0.085639365,0.14539719,-0.9767914,-1.8497086,-6.264591,7.5443854,-0.086879335,0,1683900422.8267388
-1.4932369,0.27296317,0.085639365,0.14539719,-0.9767914,-1.8497086,-6.5879235,7.264247,0.019161237,0,1683900422.8422143
-1.6643337,0.31102848,0.041219726,0.14539719,-0.9767914,-1.8497086,-6.5879235,7.264247,0.019161237,0,1683900422.8473363
-1.7558421,0.32030973,0.050485823,0.14539719,-0.9767914,-1.8497086,-6.5879235,7.264247,0.019161237,0,1683900422.8732367
-1.7558421,0.32030973,0.050485823,0.07089615,-0.93847275,-1.5354156,-6.711609,7.149725,0.078297,0,1683900422.878451
-1.7558421,0.32030973,0.050485823,0.008010864,-0.89481354,-1.1945534,-6.711609,7.149725,0.078297,0,1683900422.8887455
-1.7558421,0.32030973,0.050485823,0.008010864,-0.89481354,-1.1945534,-6.76344,7.1003065,0.10912854,0,1683900422.8939285
-1.8376143,0.3349444,0.10907,0.008010864,-0.89481354,-1.1945534,-6.76344,7.1003065,0.10912854,0,1683900422.899061
-1.873238,0.35447752,0.17227966,0.008010864,-0.89481354,-1.1945534,-6.76344,7.1003065,0.10912854,0,1683900422.9197469
-1.873238,0.35447752,0.17227966,-0.027236938,-0.7925415,-0.82805634,-6.76344,7.1003065,0.10912854,0,1683900422.930058
-1.873238,0.35447752,0.17227966,-0.027236938,-0.7925415,-0.82805634,-6.8467712,7.018781,0.16976902,0,1683900422.9403284
-1.8729953,0.36228773,0.1922829,-0.027236938,-0.7925415,-0.82805634,-6.8467712,7.018781,0.16976902,0,1683900422.9505897
-1.8729953,0.36228773,0.1922829,-0.027236938,-0.7925415,-0.82805634,-6.8784328,6.987019,0.1977644,0,1683900422.9608533
-1.8729953,0.36228773,0.1922829,-0.03671646,-0.7200432,-0.65021515,-6.8784328,6.987019,0.1977644,0,1683900422.9659607
-1.8729953,0.36228773,0.1922829,-0.09426117,-0.1714325,0.15727997,-6.9468617,6.9152083,0.3023338,0,1683900422.9817123
-1.8151542,0.36228773,0.31748897,-0.09426117,-0.1714325,0.15727997,-6.9468617,6.9152083,0.3023338,0,1683900422.9817324
-1.8151542,0.36228773,0.31748897,-0.09426117,-0.1714325,0.15727997,-6.9415207,6.9203577,0.30712014,0,1683900423.002388
-1.8151542,0.36228773,0.31748897,-0.09426117,0.055408478,0.41296005,-6.9415207,6.9203577,0.30712014,0,1683900423.012672
-1.807344,0.34910893,0.32749817,-0.09426117,0.055408478,0.41296005,-6.9415207,6.9203577,0.30712014,0,1683900423.0178087
-1.7905103,0.31005788,0.31309098,-0.09426117,0.055408478,0.41296005,-6.9415207,6.9203577,0.30712014,0,1683900423.033206
-1.7905103,0.31005788,0.31309098,-0.09426117,0.055408478,0.41296005,-6.918126,6.9438787,0.3041025,0,1683900423.038346
-1.7905103,0.31005788,0.31309098,-0.0825119,0.28331757,0.67611694,-6.918126,6.9438787,0.3041025,0,1683900423.04348
-1.7905103,0.31005788,0.31309098,-0.0825119,0.28331757,0.67611694,-6.8764305,6.9859395,0.28590792,0,1683900423.0691447
-1.7546289,0.30224767,0.27722466,-0.0825119,0.28331757,0.67611694,-6.8764305,6.9859395,0.28590792,0,1683900423.0742784
-1.7546289,0.30224767,0.27722466,-0.071964264,0.48038483,0.945549,-6.8764305,6.9859395,0.28590792,0,1683900423.084544
-1.7546289,0.30224767,0.27722466,-0.071964264,0.48038483,0.945549,-6.815473,7.046612,0.254912,0,1683900423.0999026
-1.7341251,0.28759784,0.25672096,-0.071964264,0.48038483,0.945549,-6.815473,7.046612,0.254912,0,1683900423.1101656
-1.7341251,0.28759784,0.25672096,-0.06128311,0.63913345,1.2268639,-6.815473,7.046612,0.254912,0,1683900423.1152585
-1.7341251,0.28759784,0.25672096,-0.074100494,0.77545166,1.5463638,-6.815473,7.046612,0.254912,0,1683900423.151187
-1.6755561,0.2841856,0.21815518,-0.074100494,0.77545166,1.5463638,-6.815473,7.046612,0.254912,0,1683900423.1563213
-1.6755561,0.2841856,0.21815518,-0.074100494,0.77545166,1.5463638,-6.7319226,7.1278048,0.21450906,0,1683900423.1614587
-1.6755561,0.2841856,0.21815518,-0.10707855,0.8980179,1.8882942,-6.7319226,7.1278048,0.21450906,0,1683900423.1716862
-1.5679269,0.30957258,0.17617717,-0.10707855,0.8980179,1.8882942,-6.7319226,7.1278048,0.21450906,0,1683900423.1768317
-1.5679269,0.30957258,0.17617717,-0.10707855,0.8980179,1.8882942,-6.62181,7.231452,0.16769494,0,1683900423.1819565
-1.347785,0.34105608,0.13102959,-0.10707855,0.8980179,1.8882942,-6.62181,7.231452,0.16769494,0,1683900423.1921628
-1.347785,0.34105608,0.13102959,-0.1678276,0.991745,2.3559952,-6.62181,7.231452,0.16769494,0,1683900423.2126474
-1.347785,0.34105608,0.13102959,-0.1678276,0.991745,2.3559952,-6.404509,7.425889,0.093944855,0,1683900423.21778
-1.2740809,0.35569075,0.13102959,-0.1678276,0.991745,2.3559952,-6.404509,7.425889,0.093944855,0,1683900423.2432916
-1.1322838,0.37887874,0.14786325,-0.1678276,0.991745,2.3559952,-6.404509,7.425889,0.093944855,0,1683900423.2688706
-1.1322838,0.37887874,0.14786325,-0.25835037,1.0801315,2.7246284,-6.404509,7.425889,0.093944855,0,1683900423.2792118
-0.9568042,0.36618525,0.19131231,-0.25835037,1.0801315,2.7246284,-6.404509,7.425889,0.093944855,0,1683900423.2894504
-0.9568042,0.36618525,0.19131231,-0.25835037,1.0801315,2.7246284,-6.1301475,7.654475,0.026310638,0,1683900423.2945447
-0.9568042,0.36618525,0.19131231,-0.30735016,1.1930847,2.9078102,-6.1301475,7.654475,0.026310638,0,1683900423.2996778
-0.9568042,0.36618525,0.19131231,-0.30735016,1.1930847,2.9078102,-5.920474,7.817807,-0.016349347,0,1683900423.304813
-0.9568042,0.36618525,0.19131231,-0.3392601,1.3571739,3.0601501,-5.920474,7.817807,-0.016349347,0,1683900423.3458464
-0.9568042,0.36618525,0.19131231,-0.3392601,1.3571739,3.0601501,-5.6922345,7.9853034,-0.061570007,0,1683900423.350987
-0.9075013,0.36667055,0.1830168,-0.3392601,1.3571739,3.0601501,-5.6922345,7.9853034,-0.061570007,0,1683900423.3561223
-0.9075013,0.36667055,0.1830168,-0.37971497,1.5606499,3.2274437,-5.6922345,7.9853034,-0.061570007,0,1683900423.3818383
-0.7598503,0.380092,0.14469367,-0.37971497,1.5606499,3.2274437,-5.6922345,7.9853034,-0.061570007,0,1683900423.386986
-0.7598503,0.380092,0.14469367,-0.37971497,1.5606499,3.2274437,-5.3180766,8.238342,-0.13480933,0,1683900423.3921335
-0.7598503,0.380092,0.14469367,-0.4235077,1.6618538,3.337059,-5.3180766,8.238342,-0.13480933,0,1683900423.3972719
-0.67736536,0.38864532,0.12566102,-0.4235077,1.6618538,3.337059,-5.3180766,8.238342,-0.13480933,0,1683900423.4075298
-0.67736536,0.38864532,0.12566102,-0.4235077,1.6618538,3.337059,-5.0489874,8.405063,-0.18176855,0,1683900423.417804
-0.6302615,0.3974261,0.12810266,-0.4235077,1.6618538,3.337059,-5.0489874,8.405063,-0.18176855,0,1683900423.4382896
-0.6302615,0.3974261,0.12810266,-0.4235077,1.6618538,3.337059,-4.9084067,8.487432,-0.20357595,0,1683900423.458784
-0.39889717,0.40475103,0.0773287,-0.45007706,1.6511726,3.5841942,-4.303943,8.807281,-0.27976415,0,1683900423.4642096
-0.2946801,0.43867618,0.09563341,-0.45007706,1.6511726,3.5841942,-4.303943,8.807281,-0.27976415,0,1683900423.4693246
-0.2946801,0.43867618,0.09563341,-0.45007706,1.6511726,3.5841942,-3.9842396,8.955555,-0.30704936,0,1683900423.4744587
-0.2946801,0.43867618,0.09563341,-0.45007706,1.6511726,3.5841942,-3.822519,9.025402,-0.3175939,0,1683900423.5102952
-0.2946801,0.43867618,0.09563341,-0.4393959,1.57547,3.6598969,-3.822519,9.025402,-0.3175939,0,1683900423.5307696
-0.2946801,0.43867618,0.09563341,-0.4393959,1.57547,3.6598969,-3.3242846,9.219751,-0.34017697,0,1683900423.5358615
-0.26002702,0.41451758,0.052927464,-0.4393959,1.57547,3.6598969,-3.3242846,9.219751,-0.34017697,0,1683900423.5409555
0.7027827,0.94606704,-0.07520553,-0.4393959,1.57547,3.6598969,-3.3242846,9.219751,-0.34017697,0,1683900423.5460901
0.7027827,0.94606704,-0.07520553,-0.65568924,1.1111069,2.3198128,-3.3242846,9.219751,-0.34017697,0,1683900423.5665634
0.7027827,0.94606704,-0.07520553,-0.65568924,1.1111069,2.3198128,0.34819034,9.8003845,-0.04023921,0,1683900423.5767777
0.89047045,1.0549096,0.01754644,-0.65568924,1.1111069,2.3198128,0.34819034,9.8003845,-0.04023921,0,1683900423.5819147
0.89047045,1.0549096,0.01754644,-0.59173584,0.97372055,2.2409058,0.34819034,9.8003845,-0.04023921,0,1683900423.6024463
0.89047045,1.0549096,0.01754644,-0.59173584,0.97372055,2.2409058,0.46862563,9.795443,-0.008930228,0,1683900423.612669
0.94684047,1.1090958,0.040734433,-0.59173584,0.97372055,2.2409058,0.46862563,9.795443,-0.008930228,0,1683900423.6177976
0.94684047,1.1090958,0.040734433,-0.35100937,0.672245,1.8319511,0.46862563,9.795443,-0.008930228,0,1683900423.6228912
1.1391537,1.2318602,0.07563016,-0.35100937,0.672245,1.8319511,0.46862563,9.795443,-0.008930228,0,1683900423.633152
1.1391537,1.2318602,0.07563016,-0.35100937,0.672245,1.8319511,0.7974575,9.773959,0.064610966,0,1683900423.6382818
1.1391537,1.2318602,0.07563016,-0.35100937,0.672245,1.8319511,0.8900095,9.765844,0.08104083,0,1683900423.6792028
1.1391537,1.2318602,0.07563016,-0.1464653,0.4793167,1.2619781,0.8900095,9.765844,0.08104083,0,1683900423.6945975
1.1247617,1.2477232,0.0028966034,-0.1464653,0.4793167,1.2619781,0.8900095,9.765844,0.08104083,0,1683900423.7202344
1.03982,1.1901249,-0.10985861,-0.1464653,0.4793167,1.2619781,0.8900095,9.765844,0.08104083,0,1683900423.7253723
1.03982,1.1901249,-0.10985861,-0.1464653,0.4793167,1.2619781,1.2234334,9.7293,0.11963399,0,1683900423.7509823
1.03982,1.1901249,-0.10985861,-0.09212494,0.25247574,0.89014053,1.2234334,9.7293,0.11963399,0,1683900423.7561145
1.03982,1.1901249,-0.10985861,-0.11348724,-0.38452148,0.78266144,1.2234334,9.7293,0.11963399,0,1683900423.7971923
1.1691813,1.2599163,-0.1628164,-0.11348724,-0.38452148,0.78266144,1.2234334,9.7293,0.11963399,0,1683900423.8125257
1.1691813,1.2599163,-0.1628164,0.64180374,-1.2420845,-4.302902,1.2234334,9.7293,0.11963399,0,1683900423.8279183
0.2107696,0.52969927,0.066348895,0.64180374,-1.2420845,-4.302902,1.2234334,9.7293,0.11963399,0,1683900423.838172
0.2107696,0.52969927,0.066348895,0.64180374,-1.2420845,-4.302902,-1.7851236,9.6368065,-0.34010342,0,1683900423.8483858
0.098014385,0.3927855,0.016560685,0.64180374,-1.2420845,-4.302902,-1.7851236,9.6368065,-0.34010342,0,1683900423.8688314
0.098014385,0.3927855,0.016560685,0.5906677,-1.0854721,-4.549103,-1.7851236,9.6368065,-0.34010342,0,1683900423.8790736
0.098014385,0.3927855,0.016560685,0.5906677,-1.0854721,-4.549103,-2.4242492,9.494265,-0.39029935,0,1683900423.8893373
0.098014385,0.3927855,0.016560685,0.5906677,-1.0854721,-4.549103,-2.6415777,9.435535,-0.4039001,0,1683900423.8995929
0.098014385,0.3927855,0.016560685,0.5587578,-1.0152435,-4.605446,-2.6415777,9.435535,-0.4039001,0,1683900423.904726
0.098014385,0.3927855,0.016560685,0.48732758,-0.93206406,-4.6608543,-2.6415777,9.435535,-0.4039001,0,1683900423.925225
0.098014385,0.3927855,0.016560685,0.48732758,-0.93206406,-4.6608543,-3.080295,9.300583,-0.42583048,0,1683900423.9405494
0.03406163,0.35300648,-0.020291388,0.48732758,-0.93206406,-4.6608543,-3.080295,9.300583,-0.42583048,0,1683900423.9456813
-0.1074928,0.27637538,-0.13230349,0.48732758,-0.93206406,-4.6608543,-3.080295,9.300583,-0.42583048,0,1683900423.9610753
-0.1074928,0.27637538,-0.13230349,0.48732758,-0.93206406,-4.6608543,-2.6415777,9.435535,-0.4039001,0,1683900423.9815311
0.03406163,0.35300648,-0.020291388,0.48732758,-0.93206406,-4.6608543,-2.6415777,9.435535,-0.4039001,0,1683900423.986669
-0.30321825,0.21780637,-0.18356276,0.48732758,-0.93206406,-4.6608543,-2.6415777,9.435535,-0.4039001,0,1683900424.0020556
-0.30321825,0.21780637,-0.18356276,0.2742386,-1.102562,-4.649105,-2.6415777,9.435535,-0.4039001,0,1683900424.0225594
-0.30321825,0.21780637,-0.18356276,0.2742386,-1.102562,-4.649105,-3.9455407,8.96766,-0.429149,0,1683900424.0328135
-0.548004,0.19070569,-0.073491834,0.2742386,-1.102562,-4.649105,-3.9455407,8.96766,-0.429149,0,1683900424.0430737
-0.548004,0.19070569,-0.073491834,0.115623474,-1.3294029,-4.3946266,-3.9455407,8.96766,-0.429149,0,1683900424.0635514
-0.548004,0.19070569,-0.073491834,0.115623474,-1.3294029,-4.3946266,-4.557557,8.675215,-0.37380236,0,1683900424.0686853
-1.669217,0.25587168,0.27111298,0.115623474,-1.3294029,-4.3946266,-4.557557,8.675215,-0.37380236,0,1683900424.1045868
-1.669217,0.25587168,0.27111298,0.115623474,-1.3294029,-4.3946266,-7.1394124,6.6763644,0.7907861,0,1683900424.109714
-1.669217,0.25587168,0.27111298,-0.30094147,0.8777237,1.8595886,-7.1394124,6.6763644,0.7907861,0,1683900424.125103
-1.669217,0.25587168,0.27111298,-0.30094147,0.8777237,1.8595886,-7.007967,6.81868,0.7512658,0,1683900424.140442
-1.4888542,0.27954498,0.24743968,-0.30094147,0.8777237,1.8595886,-7.007967,6.81868,0.7512658,0,1683900424.1609385
-1.4888542,0.27954498,0.24743968,-0.34887314,0.9438133,2.3474503,-7.007967,6.81868,0.7512658,0,1683900424.1660395
-1.4888542,0.27954498,0.24743968,-0.34887314,0.9438133,2.3474503,-6.8529267,6.978504,0.7129244,0,1683900424.1711984
-1.3692592,0.30785888,0.26989973,-0.34887314,0.9438133,2.3474503,-6.8529267,6.978504,0.7129244,0,1683900424.1763296
-1.3692592,0.30785888,0.26989973,-0.3542137,0.9799957,2.608471,-6.8529267,6.978504,0.7129244,0,1683900424.1814723
-1.3143451,0.3134701,0.27819523,-0.3542137,0.9799957,2.608471,-6.8529267,6.978504,0.7129244,0,1683900424.2122247
-1.3143451,0.3134701,0.27819523,-0.34780502,1.0152435,2.7182198,-6.8529267,6.978504,0.7129244,0,1683900424.2173624
-1.3143451,0.3134701,0.27819523,-0.34780502,1.0152435,2.7182198,-6.767273,7.0635834,0.6929678,0,1683900424.2224925
-1.1554718,0.33397382,0.22913498,-0.34780502,1.0152435,2.7182198,-6.767273,7.0635834,0.6929678,0,1683900424.2583113
-1.1554718,0.33397382,0.22913498,-0.34780502,1.0152435,2.7182198,-6.481208,7.333051,0.62505275,0,1683900424.2634382
-1.1554718,0.33397382,0.22913498,-0.30094147,1.1323357,3.027172,-6.481208,7.333051,0.62505275,0,1683900424.2685673
-1.1554718,0.33397382,0.22913498,-0.30094147,1.1323357,3.027172,-6.2629557,7.5242476,0.5757223,0,1683900424.2788148
-1.0641909,0.34251198,0.20570433,-0.30094147,1.1323357,3.027172,-6.2629557,7.5242476,0.5757223,0,1683900424.2890718
-1.0641909,0.34251198,0.20570433,-0.31375885,1.2133789,3.2317162,-6.2629557,7.5242476,0.5757223,0,1683900424.2992883
-1.0641909,0.34251198,0.20570433,-0.3392601,1.3092422,3.4468079,-6.2629557,7.5242476,0.5757223,0,1683900424.3146853
-0.97755057,0.35520548,0.1839874,-0.3392601,1.3092422,3.4468079,-6.2629557,7.5242476,0.5757223,0,1683900424.3249538
-0.97755057,0.35520548,0.1839874,-0.3392601,1.3092422,3.4468079,-6.022515,7.721612,0.52573967,0,1683900424.3454292
-0.97755057,0.35520548,0.1839874,-0.3392601,1.3092422,3.4468079,-5.7581143,7.923838,0.47674003,0,1683900424.3505661
-0.97755057,0.35520548,0.1839874,-0.35741806,1.3635826,3.6534882,-5.7581143,7.923838,0.47674003,0,1683900424.3659098
-0.8938372,0.35155058,0.16348368,-0.35741806,1.3635826,3.6534882,-5.7581143,7.923838,0.47674003,0,1683900424.376181
0.29618147,0.67516637,-0.015650757,-0.35741806,1.3635826,3.6534882,-5.7581143,7.923838,0.47674003,0,1683900424.38128
0.29618147,0.67516637,-0.015650757,-0.35741806,1.3635826,3.6534882,-1.4221777,9.700577,0.21588415,0,1683900424.3915086
0.29618147,0.67516637,-0.015650757,-0.20614624,1.502037,3.6119652,-1.4221777,9.700577,0.21588415,0,1683900424.3966188
0.29618147,0.67516637,-0.015650757,-0.2604866,1.4945602,3.5458755,-1.4221777,9.700577,0.21588415,0,1683900424.4273293
0.3135156,0.6922427,-0.02249038,-0.2604866,1.4945602,3.5458755,-1.4221777,9.700577,0.21588415,0,1683900424.4324648
0.39819956,0.7249546,0.028526235,-0.2604866,1.4945602,3.5458755,-1.4221777,9.700577,0.21588415,0,1683900424.4529207
0.39819956,0.7249546,0.028526235,-0.34246445,1.4402199,3.4234428,-1.4221777,9.700577,0.21588415,0,1683900424.4580066
0.39819956,0.7249546,0.028526235,-0.34246445,1.4402199,3.4234428,-0.9030552,9.762175,0.23414044,0,1683900424.4732785
0.47263163,0.74130297,0.096376516,-0.34246445,1.4402199,3.4234428,-0.9030552,9.762175,0.23414044,0,1683900424.488569
0.47263163,0.74130297,0.096376516,-0.34246445,1.4402199,3.4234428,-0.4095369,9.794281,0.2733771,0,1683900424.493654
0.47263163,0.74130297,0.096376516,-0.33391953,1.3507652,3.2050133,-0.4095369,9.794281,0.2733771,0,1683900424.5038133
0.50802785,0.7605783,0.10931265,-0.33391953,1.3507652,3.2050133,-0.4095369,9.794281,0.2733771,0,1683900424.5190582
0.50802785,0.7605783,0.10931265,-0.31162262,1.3209915,3.1528091,-0.4095369,9.794281,0.2733771,0,1683900424.524133
0.50802785,0.7605783,0.10931265,-0.31162262,1.3209915,3.1528091,-0.25119498,9.799217,0.2874516,0,1683900424.5342853
0.7105929,0.86992127,0.11589447,-0.31162262,1.3209915,3.1528091,-0.25119498,9.799217,0.2874516,0,1683900424.5596824
0.7105929,0.86992127,0.11589447,-0.19866943,1.1845398,3.0004692,-0.25119498,9.799217,0.2874516,0,1683900424.5698469
0.7105929,0.86992127,0.11589447,-0.19866943,1.1845398,3.0004692,0.21589233,9.79885,0.32605177,0,1683900424.5749345
0.76819134,0.90311843,0.11516652,-0.19866943,1.1845398,3.0004692,0.21589233,9.79885,0.32605177,0,1683900424.585098
0.76819134,0.90311843,0.11516652,-0.14005661,1.0961533,2.9184914,0.21589233,9.79885,0.32605177,0,1683900424.5901754
0.76819134,0.90311843,0.11516652,-0.14005661,1.0961533,2.9184914,0.79248834,9.768422,0.34681705,0,1683900424.6155505
0.8863151,0.9568042,0.07246058,-0.14005661,1.0961533,2.9184914,0.79248834,9.768422,0.34681705,0,1683900424.6257093
0.8863151,0.9568042,0.07246058,0.051670074,0.7925415,2.659607,0.79248834,9.768422,0.34681705,0,1683900424.646044
0.8863151,0.9568042,0.07246058,0.051670074,0.7925415,2.659607,-0.5250241,9.792485,0.044343393,0,1683900424.6612887
0.36720136,0.6790639,0.121263035,0.051670074,0.7925415,2.659607,-0.5250241,9.792485,0.044343393,0,1683900424.6714683
0.36720136,0.6790639,0.121263035,0.29453278,-1.3646507,-3.5946083,-0.5250241,9.792485,0.044343393,0,1683900424.6765492
0.36720136,0.6790639,0.121263035,0.31269073,-1.371994,-3.665905,-0.5250241,9.792485,0.044343393,0,1683900424.7070231
0.31864154,0.6485662,0.11809345,0.31269073,-1.371994,-3.665905,-0.5250241,9.792485,0.044343393,0,1683900424.7172022
0.31864154,0.6485662,0.11809345,0.31269073,-1.371994,-3.665905,-0.69987917,9.781582,0.03466864,0,1683900424.7222846
0.1692769,0.5633818,0.0763581,0.31269073,-1.371994,-3.665905,-0.69987917,9.781582,0.03466864,0,1683900424.7273672
0.1692769,0.5633818,0.0763581,0.31269073,-1.371994,-3.665905,-1.2396555,9.72798,0.008195244,0,1683900424.7527695
0.1692769,0.5633818,0.0763581,0.3542137,-1.3837433,-3.8012886,-1.2396555,9.72798,0.008195244,0,1683900424.7578576
0.1692769,0.5633818,0.0763581,0.35741806,-1.4295387,-3.8214493,-1.2396555,9.72798,0.008195244,0,1683900424.7680137
0.09434434,0.5316556,0.026327243,0.35741806,-1.4295387,-3.8214493,-1.2396555,9.72798,0.008195244,0,1683900424.7731001
0.09434434,0.5316556,0.026327243,0.35741806,-1.4295387,-3.8214493,-1.6049536,9.674424,-0.005446508,0,1683900424.7781785
0.06871471,0.524088,0.0043676533,0.35741806,-1.4295387,-3.8214493,-1.6049536,9.674424,-0.005446508,0,1683900424.8137279
0.06871471,0.524088,0.0043676533,0.35741806,-1.4295387,-3.8214493,-1.7866437,9.64252,-0.009844357,0,1683900424.8238778
0.06871471,0.524088,0.0043676533,0.35207748,-1.4753342,-3.8214493,-1.7866437,9.64252,-0.009844357,0,1683900424.8289542
-0.03572983,0.5009001,-0.0141797075,0.35207748,-1.4753342,-3.8214493,-1.7866437,9.64252,-0.009844357,0,1683900424.8391206
-0.03572983,0.5009001,-0.0141797075,0.28598785,-1.5914917,-3.8171768,-1.7866437,9.64252,-0.009844357,0,1683900424.8543742
-0.03572983,0.5009001,-0.0141797075,0.28598785,-1.5914917,-3.8171768,-2.3319082,9.525364,-0.00722215,0,1683900424.8594599
-0.0742956,0.4913913,0.0033818982,0.28598785,-1.5914917,-3.8171768,-2.3319082,9.525364,-0.00722215,0,1683900424.874727
-0.0742956,0.4913913,0.0033818982,0.25835037,-1.6139221,-3.8064957,-2.3319082,9.525364,-0.00722215,0,1683900424.8798175
-0.0742956,0.4913913,0.0033818982,0.25835037,-1.6139221,-3.8064957,-2.5123317,9.479377,0.000103019556,0,1683900424.8899803
-0.1709451,0.47722676,0.08027079,0.25835037,-1.6139221,-3.8064957,-2.5123317,9.479377,0.000103019556,0,1683900424.905218
-0.1709451,0.47722676,0.08027079,0.20614624,-1.5957642,-3.7938118,-2.5123317,9.479377,0.000103019556,0,1683900424.9153876
-0.1709451,0.47722676,0.08027079,0.20614624,-1.5957642,-3.7938118,-3.0452998,9.3217535,0.038010497,0,1683900424.9204664
-1.724859,0.33518705,0.23938683,0.20614624,-1.5957642,-3.7938118,-3.0452998,9.3217535,0.038010497,0,1683900424.930628
-1.724859,0.33518705,0.23938683,-0.46823502,0.89588165,1.0159111,-3.0452998,9.3217535,0.038010497,0,1683900424.9357061
-1.724859,0.33518705,0.23938683,-0.46823502,0.89588165,1.0159111,-6.8748074,6.9251246,0.9747043,0,1683900424.9560268
-1.724859,0.33518705,0.23938683,-0.47250748,0.9342003,1.176796,-6.8748074,6.9251246,0.9747043,0,1683900424.97127
-1.706797,0.3344591,0.2259654,-0.47250748,0.9342003,1.176796,-6.8748074,6.9251246,0.9747043,0,1683900424.9763496
-1.706797,0.3344591,0.2259654,-0.47250748,0.9342003,1.176796,-6.847158,6.954485,0.9601848,0,1683900424.9916031
-1.6116185,0.33324587,0.24134317,-0.47250748,0.9342003,1.176796,-6.847158,6.954485,0.9601848,0,1683900425.0220814
-1.6116185,0.33324587,0.24134317,-0.44473648,0.9427452,1.70084,-6.847158,6.954485,0.9601848,0,1683900425.027117
-1.6116185,0.33324587,0.24134317,-0.44473648,0.9427452,1.70084,-6.7250824,7.0784807,0.91584206,0,1683900425.0321991
-1.5747665,0.33006114,0.24963868,-0.44473648,0.9427452,1.70084,-6.7250824,7.0784807,0.91584206,0,1683900425.0372937
-1.5747665,0.33006114,0.24963868,-0.35528183,0.97572327,2.3794937,-6.7250824,7.0784807,0.91584206,0,1683900425.083023
-1.4046555,0.35300648,0.27892318,-0.35528183,0.97572327,2.3794937,-6.7250824,7.0784807,0.91584206,0,1683900425.0931845
-1.4046555,0.35300648,0.27892318,-0.35528183,0.97572327,2.3794937,-6.466368,7.323175,0.8529884,0,1683900425.0982635
-1.4046555,0.35300648,0.27892318,-0.28705597,1.001358,2.642517,-6.466368,7.323175,0.8529884,0,1683900425.1185856
-1.4046555,0.35300648,0.27892318,-0.28705597,1.001358,2.642517,-6.298035,7.47247,0.8169082,0,1683900425.1236644
-1.4046555,0.35300648,0.27892318,-0.24980545,1.0227203,2.753334,-6.298035,7.47247,0.8169082,0,1683900425.1541092
-1.2272196,0.37375283,0.29064608,-0.24980545,1.0227203,2.753334,-6.298035,7.47247,0.8169082,0,1683900425.1591847
-1.2272196,0.37375283,0.29064608,-0.24980545,1.0227203,2.753334,-6.205179,7.5519047,0.79678977,0,1683900425.164272
-1.2272196,0.37375283,0.29064608,-0.24980545,1.0227203,2.753334,-5.8971386,7.8016186,0.72724825,0,1683900425.1693563
-1.2272196,0.37375283,0.29064608,-0.15821457,1.1111069,3.0303764,-5.8971386,7.8016186,0.72724825,0,1683900425.1795192
-1.0593076,0.37399548,0.25012398,-0.15821457,1.1111069,3.0303764,-5.8971386,7.8016186,0.72724825,0,1683900425.1896715
-1.0122036,0.36398625,0.2259654,-0.15821457,1.1111069,3.0303764,-5.8971386,7.8016186,0.72724825,0,1683900425.199834
0.5714801,0.8045126,-0.00491361,-0.15821457,1.1111069,3.0303764,-5.8971386,7.8016186,0.72724825,0,1683900425.2150705
0.5714801,0.8045126,-0.00491361,-0.4383278,1.1962891,2.998333,-5.8971386,7.8016186,0.72724825,0,1683900425.220158
0.5714801,0.8045126,-0.00491361,-0.4383278,1.1962891,2.998333,-0.1650474,9.795125,0.44573498,0,1683900425.2354012
0.9055904,1.0366049,0.13835451,-0.4383278,1.1962891,2.998333,-0.1650474,9.795125,0.44573498,0,1683900425.2913096
0.9055904,1.0366049,0.13835451,-0.2604866,0.73820114,2.5371742,-0.1650474,9.795125,0.44573498,0,1683900425.2963889
0.9055904,1.0366049,0.13835451,-0.2604866,0.73820114,2.5371742,0.5507883,9.776114,0.54276806,0,1683900425.3014708
0.9055904,1.0366049,0.13835451,-0.14753342,0.61683655,2.3336983,0.5507883,9.776114,0.54276806,0,1683900425.3167033
0.98833317,1.1000723,0.10687102,-0.14753342,0.61683655,2.3336983,0.5507883,9.776114,0.54276806,0,1683900425.321785
0.98833317,1.1000723,0.10687102,-0.14753342,0.61683655,2.3336983,0.8012154,9.757499,0.56538945,0,1683900425.3420968
0.98833317,1.1000723,0.10687102,-0.14753342,0.61683655,2.3336983,1.0359867,9.734754,0.5759219,0,1683900425.3624256
1.0874091,1.1552291,0.058781333,-0.14753342,0.61683655,2.3336983,1.0359867,9.734754,0.5759219,0,1683900425.3675117
1.0874091,1.1552291,0.058781333,-0.03458023,0.4292488,2.1610641,1.0359867,9.734754,0.5759219,0,1683900425.3725991
1.0874091,1.1552291,0.058781333,0.03030777,0.29079437,2.0833588,1.0359867,9.734754,0.5759219,0,1683900425.377711
1.0874091,1.1552291,0.058781333,0.03030777,0.29079437,2.0833588,1.1488804,9.7221,0.5755296,0,1683900425.387881
1.1442796,1.1806009,0.037064392,0.03030777,0.29079437,2.0833588,1.1488804,9.7221,0.5755296,0,1683900425.4031222
1.337336,1.2674838,-0.011495421,0.03030777,0.29079437,2.0833588,1.1488804,9.7221,0.5755296,0,1683900425.4132738
1.337336,1.2674838,-0.011495421,0.22630692,-0.2141571,1.8319511,1.1488804,9.7221,0.5755296,0,1683900425.4335897
1.337336,1.2674838,-0.011495421,0.22630692,-0.2141571,1.8319511,1.7407176,9.638661,0.48630628,0,1683900425.4488323
1.337336,1.2674838,-0.011495421,0.31589508,-0.48999786,1.5613174,1.7407176,9.638661,0.48630628,0,1683900425.4640856
1.4654539,1.3392469,-0.05030384,0.31589508,-0.48999786,1.5613174,1.7407176,9.638661,0.48630628,0,1683900425.4691758
-0.05721929,0.6100004,0.025356654,0.31589508,-0.48999786,1.5613174,1.7407176,9.638661,0.48630628,0,1683900425.4844637
-0.05721929,0.6100004,0.025356654,-0.071964264,-1.2729263,-3.2835197,1.7407176,9.638661,0.48630628,0,1683900425.4895425
-0.05721929,0.6100004,0.025356654,-0.071964264,-1.2729263,-3.2835197,-2.1612992,9.561984,0.26006192,0,1683900425.4946163
-0.106992334,0.6200096,0.07026159,-0.071964264,-1.2729263,-3.2835197,-2.1612992,9.561984,0.26006192,0,1683900425.5200295
-0.106992334,0.6200096,0.07026159,-0.071964264,-1.2729263,-3.2835197,-2.3158388,9.525199,0.27904627,0,1683900425.5301816
-0.106992334,0.6200096,0.07026159,-0.0825119,-1.3060379,-3.2899284,-2.3158388,9.525199,0.27904627,0,1683900425.5403342
-0.106992334,0.6200096,0.07026159,-0.053806305,-1.3678551,-3.328247,-2.3158388,9.525199,0.27904627,0,1683900425.555557
-0.16581917,0.61219937,0.10735631,-0.053806305,-1.3678551,-3.328247,-2.3158388,9.525199,0.27904627,0,1683900425.575879
-0.16581917,0.61219937,0.10735631,-0.053806305,-1.3678551,-3.328247,-2.7788124,9.398465,0.34269744,0,1683900425.5809598
-0.18021119,0.5897393,0.14152409,-0.053806305,-1.3678551,-3.328247,-2.7788124,9.398465,0.34269744,0,1683900425.5860395
-0.18021119,0.5897393,0.14152409,-0.0005340576,-1.3976288,-3.3399963,-2.7788124,9.398465,0.34269744,0,1683900425.5911217
-0.18021119,0.5897393,0.14152409,-0.0005340576,-1.3976288,-3.3399963,-3.0848098,9.300757,0.38760814,0,1683900425.6114545
-0.18509448,0.5843708,0.1393251,-0.0005340576,-1.3976288,-3.3399963,-3.0848098,9.300757,0.38760814,0,1683900425.631774
-0.18509448,0.5843708,0.1393251,0.023899078,-1.3858795,-3.3496094,-3.0848098,9.300757,0.38760814,0,1683900425.6368592
-0.18509448,0.5843708,0.1393251,0.023899078,-1.3858795,-3.3496094,-3.2363665,9.24816,0.40969357,0,1683900425.6470168
-0.20656876,0.5624112,0.12761737,0.023899078,-1.3858795,-3.3496094,-3.2363665,9.24816,0.40969357,0,1683900425.657169
-0.20656876,0.5624112,0.12761737,0.040988922,-1.3475609,-3.4634972,-3.2363665,9.24816,0.40969357,0,1683900425.6775074
-0.20656876,0.5624112,0.12761737,0.040988922,-1.3475609,-3.4634972,-3.694956,9.071335,0.47808328,0,1683900425.68259
-0.20656876,0.5624112,0.12761737,0.024967194,-1.316719,-3.5263824,-3.694956,9.071335,0.47808328,0,1683900425.69783
-0.2321984,0.53581095,0.14493632,0.024967194,-1.316719,-3.5263824,-3.694956,9.071335,0.47808328,0,1683900425.7130697
-0.2321984,0.53581095,0.14493632,0.024967194,-1.316719,-3.5263824,-3.85125,9.004722,0.503229,0,1683900425.723243
-0.41304654,0.45673823,0.13175754,0.024967194,-1.316719,-3.5263824,-3.85125,9.004722,0.503229,0,1683900425.7435544
-0.41304654,0.45673823,0.13175754,0.024967194,-1.316719,-3.5263824,-4.3307924,8.77907,0.5853007,0,1683900425.7486408
-0.41304654,0.45673823,0.13175754,0.024967194,-1.316719,-3.5263824,-7.2333765,6.414977,1.642169,0,1683900425.7638628
-0.41304654,0.45673823,0.13175754,-0.4532814,0.5411339,1.1757278,-7.2333765,6.414977,1.642169,0,1683900425.7791219
-1.5828193,0.47381455,0.42388985,-0.4532814,0.5411339,1.1757278,-7.2333765,6.414977,1.642169,0,1683900425.7842035
-1.5828193,0.47381455,0.42388985,-0.42243958,0.68920135,1.3525009,-7.2333765,6.414977,1.642169,0,1683900425.7892888
-1.5181386,0.4874786,0.43488482,-0.42243958,0.68920135,1.3525009,-7.2333765,6.414977,1.642169,0,1683900425.8095856
-1.5181386,0.4874786,0.43488482,-0.38505554,0.73286057,1.4472961,-7.2333765,6.414977,1.642169,0,1683900425.8197377
-1.4827424,0.4935903,0.43951026,-0.38505554,0.73286057,1.4472961,-7.2333765,6.414977,1.642169,0,1683900425.8298974
-1.4827424,0.4935903,0.43951026,-0.38505554,0.73286057,1.4472961,-7.1342754,6.531519,1.616091,0,1683900425.8502326
-1.3907336,0.4723435,0.44073868,-0.38505554,0.73286057,1.4472961,-7.1342754,6.531519,1.616091,0,1683900425.865482
-1.3907336,0.4723435,0.44073868,-0.38505554,0.73286057,1.4472961,-7.004011,6.681962,1.570226,0,1683900425.880832
-1.3907336,0.4723435,0.44073868,-0.2104187,0.76704025,1.7498398,-7.004011,6.681962,1.570226,0,1683900425.8910656
-1.3907336,0.4723435,0.44073868,-0.06448746,0.7488823,1.9607925,-7.004011,6.681962,1.570226,0,1683900425.9013321
-1.3516977,0.45282555,0.41658008,-0.06448746,0.7488823,1.9607925,-7.004011,6.681962,1.570226,0,1683900425.911591
-1.3516977,0.45282555,0.41658008,-0.06448746,0.7488823,1.9607925,-6.8370786,6.8668594,1.5069789,0,1683900425.9166896
-1.3131319,0.45282555,0.38850883,-0.06448746,0.7488823,1.9607925,-6.8370786,6.8668594,1.5069789,0,1683900425.9421928
-1.3131319,0.45282555,0.38850883,-0.06448746,0.7488823,1.9607925,-6.77221,6.936079,1.4826869,0,1683900425.9524233
-1.3131319,0.45282555,0.38850883,0.0676918,0.7191086,2.1951103,-6.77221,6.936079,1.4826869,0,1683900425.957556
-1.2486938,0.4455006,0.35506898,0.0676918,0.7191086,2.1951103,-6.77221,6.936079,1.4826869,0,1683900425.9729197
-1.2486938,0.4455006,0.35506898,0.15501022,0.7116318,2.4422455,-6.77221,6.936079,1.4826869,0,1683900425.9780176
-1.2486938,0.4455006,0.35506898,0.15501022,0.7116318,2.4422455,-6.62634,7.0864367,1.4298321,0,1683900425.9933813
-1.2486938,0.4455006,0.35506898,0.15501022,0.7116318,2.4422455,-6.5449505,7.1671705,1.4020213,0,1683900426.0087867
-1.2040316,0.45111185,0.35654002,0.15501022,0.7116318,2.4422455,-6.5449505,7.1671705,1.4020213,0,1683900426.0139248
-1.2040316,0.45111185,0.35654002,0.1890564,0.7084274,2.5626755,-6.5449505,7.1671705,1.4020213,0,1683900426.0241196
-1.0751706,0.45623776,0.34067696,0.1890564,0.7084274,2.5626755,-6.5449505,7.1671705,1.4020213,0,1683900426.0343375
0.47166106,0.8150071,0.10735631,0.1890564,0.7084274,2.5626755,-6.5449505,7.1671705,1.4020213,0,1683900426.0496638
0.47166106,0.8150071,0.10735631,-0.27650833,1.163311,2.781105,-6.5449505,7.1671705,1.4020213,0,1683900426.065069
0.47166106,0.8150071,0.10735631,-0.27650833,1.163311,2.781105,-0.66232365,9.776379,0.3925976,0,1683900426.0702047
0.47410268,0.8198904,0.1271169,-0.27650833,1.163311,2.781105,-0.66232365,9.776379,0.3925976,0,1683900426.0855627
0.47410268,0.8198904,0.1271169,-0.23591995,1.1813354,2.5008583,-0.66232365,9.776379,0.3925976,0,1683900426.0907135
0.47410268,0.8198904,0.1271169,-0.23591995,1.1813354,2.5008583,-0.2830396,9.793472,0.4221074,0,1683900426.1061382
0.47410268,0.8198904,0.1271169,-0.23591995,1.1813354,2.5008583,-0.16840985,9.795766,0.43011656,0,1683900426.1163359
0.4596955,0.8352682,0.114195935,-0.23591995,1.1813354,2.5008583,-0.16840985,9.795766,0.43011656,0,1683900426.1214693
0.4596955,0.8352682,0.114195935,-0.17210007,1.1749268,2.2836304,-0.16840985,9.795766,0.43011656,0,1683900426.1368215
0.44286183,0.8108518,0.10247303,-0.17210007,1.1749268,2.2836304,-0.16840985,9.795766,0.43011656,0,1683900426.1419518
0.44286183,0.8108518,0.10247303,-0.115623474,1.1419487,2.136631,-0.16840985,9.795766,0.43011656,0,1683900426.1675692
0.44286183,0.8108518,0.10247303,-0.115623474,1.1419487,2.136631,0.04958078,9.796487,0.44360292,0,1683900426.1727068
0.44237655,0.80329937,0.06537831,-0.115623474,1.1419487,2.136631,0.04958078,9.796487,0.44360292,0,1683900426.188097
0.44237655,0.80329937,0.06537831,-0.101737976,1.1312675,2.1013832,0.04958078,9.796487,0.44360292,0,1683900426.2034929
0.44237655,0.80329937,0.06537831,-0.101737976,1.1312675,2.1013832,0.15532567,9.795095,0.44985738,0,1683900426.2086253
0.44237655,0.80329937,0.06537831,-0.08785248,1.0599709,2.0641327,0.15532567,9.795095,0.44985738,0,1683900426.223974
0.44237655,0.80329937,0.06537831,-0.08785248,1.0599709,2.0641327,0.46837744,9.784265,0.46816173,0,1683900426.2342348
0.49923185,0.8330692,0.027555645,-0.08785248,1.0599709,2.0641327,0.46837744,9.784265,0.46816173,0,1683900426.2393253
0.6022357,0.8848137,-0.030785888,-0.08785248,1.0599709,2.0641327,0.46837744,9.784265,0.46816173,0,1683900426.254701
0.6022357,0.8848137,-0.030785888,-0.12523651,0.9119034,1.9905663,0.46837744,9.784265,0.46816173,0,1683900426.2649274
0.6022357,0.8848137,-0.030785888,-0.12523651,0.9119034,1.9905663,0.7754084,9.763602,0.49113622,0,1683900426.280311
0.6022357,0.8848137,-0.030785888,-0.14432907,0.8351326,1.9629288,0.7754084,9.763602,0.49113622,0,1683900426.2854414
0.6022357,0.8848137,-0.030785888,-0.14432907,0.8351326,1.9629288,0.8760526,9.754608,0.5005359,0,1683900426.2957084
0.638102,0.908487,-0.038838748,-0.14432907,0.8351326,1.9629288,0.8760526,9.754608,0.5005359,0,1683900426.3059936
0.638102,0.908487,-0.038838748,0.4106903,-1.307106,-2.5453186,0.8760526,9.754608,0.5005359,0,1683900426.3213959
0.5360991,0.8843133,0.026812539,0.4106903,-1.307106,-2.5453186,0.8760526,9.754608,0.5005359,0,1683900426.3316581
0.5360991,0.8843133,0.026812539,0.4106903,-1.307106,-2.5453186,0.6091439,9.787688,-0.022182496,0,1683900426.3367922
0.43797857,0.8076822,0.013876398,0.4106903,-1.307106,-2.5453186,0.6091439,9.787688,-0.022182496,0,1683900426.3624873
0.43797857,0.8076822,0.013876398,0.4106903,-1.307106,-2.5453186,0.095610425,9.805483,-0.117257394,0,1683900426.3778362
0.41113567,0.782553,0.0077798823,0.4106903,-1.307106,-2.5453186,0.095610425,9.805483,-0.117257394,0,1683900426.3932393
0.41113567,0.782553,0.0077798823,0.45114517,-1.4573097,-2.8382492,0.095610425,9.805483,-0.117257394,0,1683900426.3983743
0.41113567,0.782553,0.0077798823,0.4458046,-1.5116501,-3.0278397,0.095610425,9.805483,-0.117257394,0,1683900426.4342277
0.3532946,0.74178827,-0.012723823,0.4458046,-1.5116501,-3.0278397,0.095610425,9.805483,-0.117257394,0,1683900426.439324
0.3532946,0.74178827,-0.012723823,0.4458046,-1.5116501,-3.0278397,-0.3289485,9.799472,-0.18041521,0,1683900426.4444556
0.3532946,0.74178827,-0.012723823,0.417099,-1.5296745,-3.1311798,-0.3289485,9.799472,-0.18041521,0,1683900426.454683
0.27860472,0.6954123,-0.03175648,0.417099,-1.5296745,-3.1311798,-0.3289485,9.799472,-0.18041521,0,1683900426.4648573
0.27860472,0.6954123,-0.03175648,0.417099,-1.5296745,-3.1311798,-0.7795588,9.772932,-0.22905071,0,1683900426.4699883
0.27860472,0.6954123,-0.03175648,0.39253235,-1.5382195,-3.1673622,-0.7795588,9.772932,-0.22905071,0,1683900426.485409
0.24687856,0.68004966,-0.048605308,0.39253235,-1.5382195,-3.1673622,-0.7795588,9.772932,-0.22905071,0,1683900426.4956236
0.24687856,0.68004966,-0.048605308,0.28385162,-1.6287422,-3.276043,-0.7795588,9.772932,-0.22905071,0,1683900426.5468814
0.24687856,0.68004966,-0.048605308,0.28385162,-1.6287422,-3.276043,-1.404652,9.7020445,-0.26014116,0,1683900426.5520113
0.1465742,0.6485662,-0.06860855,0.28385162,-1.6287422,-3.276043,-1.404652,9.7020445,-0.26014116,0,1683900426.5571463
0.1465742,0.6485662,-0.06860855,0.24019241,-1.6969681,-3.3229065,-1.404652,9.7020445,-0.26014116,0,1683900426.5725117
0.1465742,0.6485662,-0.06860855,0.24019241,-1.6969681,-3.3229065,-1.7241675,9.650421,-0.25884002,0,1683900426.5776358
-1.9611067,0.09625519,0.22279581,0.24019241,-1.6969681,-3.3229065,-1.7241675,9.650421,-0.25884002,0,1683900426.5930438
-1.9611067,0.09625519,0.22279581,-0.047397614,-0.46022415,-1.079464,-1.7241675,9.650421,-0.25884002,0,1683900426.6084228
-1.9611067,0.09625519,0.22279581,-0.047397614,-0.46022415,-1.079464,-7.467665,6.2645926,1.0766767,0,1683900426.613555
-2.0045404,0.08967338,0.27331197,-0.047397614,-0.46022415,-1.079464,-7.467665,6.2645926,1.0766767,0,1683900426.6237829
-2.0045404,0.08967338,0.27331197,-0.101737976,-0.43886185,-0.44460297,-7.467665,6.2645926,1.0766767,0,1683900426.64433
-2.0045404,0.08967338,0.27331197,-0.101737976,-0.43886185,-0.44460297,-7.5490255,6.1555705,1.1364626,0,1683900426.6494253
-2.0084531,0.089188084,0.34556022,-0.101737976,-0.43886185,-0.44460297,-7.5490255,6.1555705,1.1364626,0,1683900426.690332
-2.0084531,0.089188084,0.34556022,-0.11669159,-0.37277222,0.15087128,-7.5490255,6.1555705,1.1364626,0,1683900426.700588
-2.0084531,0.089188084,0.34556022,-0.11669159,-0.37277222,0.15087128,-7.5733137,6.113879,1.1982416,0,1683900426.710888
-1.938404,0.117729485,0.35581207,-0.11669159,-0.37277222,0.15087128,-7.5733137,6.113879,1.1982416,0,1683900426.7159958
-1.938404,0.117729485,0.35581207,-0.11669159,-0.37277222,0.15087128,-7.5509777,6.1338534,1.2365162,0,1683900426.7313604
-1.938404,0.117729485,0.35581207,-0.21362305,-0.0064086914,0.6590271,-7.5509777,6.1338534,1.2365162,0,1683900426.7518659
-1.9164443,0.12896709,0.34140489,-0.21362305,-0.0064086914,0.6590271,-7.5509777,6.1338534,1.2365162,0,1683900426.7621343
-1.9164443,0.12896709,0.34140489,-0.2679634,0.14379501,0.80495834,-7.5509777,6.1338534,1.2365162,0,1683900426.7774813
-1.9164443,0.12896709,0.34140489,-0.2679634,0.14379501,0.80495834,-7.535713,6.151687,1.2410297,0,1683900426.7877293
-1.9164443,0.12896709,0.34140489,-0.45755386,0.59013367,1.2438202,-7.535713,6.151687,1.2410297,0,1683900426.8031209
-1.8341869,0.16239177,0.29161668,-0.45755386,0.59013367,1.2438202,-7.535713,6.151687,1.2410297,0,1683900426.8082466
-1.8341869,0.16239177,0.29161668,-0.45755386,0.59013367,1.2438202,-7.466954,6.2368364,1.2316072,0,1683900426.8236027
-1.8341869,0.16239177,0.29161668,-0.45755386,0.59013367,1.2438202,-2.1996522,9.5307665,0.7045629,0,1683900426.8696902
0.14193356,0.5999912,0.20961702,-0.45755386,0.59013367,1.2438202,-2.1996522,9.5307665,0.7045629,0,1683900426.8748283
0.14193356,0.5999912,0.20961702,-0.05701065,1.1749268,3.795147,-2.1996522,9.5307665,0.7045629,0,1683900426.8902314
0.2288165,0.5882835,0.19423924,-0.05701065,1.1749268,3.795147,-2.1996522,9.5307665,0.7045629,0,1683900426.8953557
0.2288165,0.5882835,0.19423924,-0.05701065,1.1749268,3.795147,-1.6500875,9.642856,0.6803833,0,1683900426.9107049
0.39600056,0.65831757,0.19571029,-0.05701065,1.1749268,3.795147,-1.6500875,9.642856,0.6803833,0,1683900426.9260674
0.39600056,0.65831757,0.19571029,-0.05701065,1.1749268,3.795147,-1.1111822,9.719722,0.6801919,0,1683900426.936279
0.39600056,0.65831757,0.19571029,-0.18692017,1.3741302,3.6492157,-1.1111822,9.719722,0.6801919,0,1683900426.9516897
0.46506408,0.6954123,0.19815193,-0.18692017,1.3741302,3.6492157,-1.1111822,9.719722,0.6801919,0,1683900426.9721768
0.46506408,0.6954123,0.19815193,-0.22964478,1.4380836,3.5544205,-1.1111822,9.719722,0.6801919,0,1683900426.9824166
0.46506408,0.6954123,0.19815193,-0.22964478,1.4380836,3.5544205,-0.93649924,9.737707,0.68586254,0,1683900426.9875185
0.55658764,0.7674179,0.19375394,-0.22964478,1.4380836,3.5544205,-0.93649924,9.737707,0.68586254,0,1683900427.0028908
0.55658764,0.7674179,0.19375394,-0.3328514,1.5818787,3.1943321,-0.93649924,9.737707,0.68586254,0,1683900427.0080304
0.55658764,0.7674179,0.19375394,-0.3328514,1.5818787,3.1943321,-0.44736114,9.769973,0.7196488,0,1683900427.0234761
0.55658764,0.7674179,0.19375394,-0.3328514,1.5818787,3.1943321,-0.2944846,9.774626,0.7350945,0,1683900427.0542748
0.59662443,0.7915765,0.1917976,-0.3328514,1.5818787,3.1943321,-0.2944846,9.774626,0.7350945,0,1683900427.0593715
0.68740493,0.8374672,0.19716617,-0.3328514,1.5818787,3.1943321,-0.2944846,9.774626,0.7350945,0,1683900427.069588
0.68740493,0.8374672,0.19716617,-0.3328514,1.5818787,3.1943321,0.0038516566,9.776549,0.76775235,0,1683900427.0798244
0.68740493,0.8374672,0.19716617,-0.3105545,1.492424,2.974968,0.0038516566,9.776549,0.76775235,0,1683900427.095247
0.8172516,0.8943225,0.14396574,-0.3105545,1.492424,2.974968,0.0038516566,9.776549,0.76775235,0,1683900427.1003945
0.8172516,0.8943225,0.14396574,-0.3105545,1.492424,2.974968,0.4379272,9.764011,0.8016774,0,1683900427.1055162
0.8172516,0.8943225,0.14396574,-0.10494232,1.0993576,2.8301048,0.4379272,9.764011,0.8016774,0,1683900427.1157413
0.40284017,0.72251296,0.082712434,-0.10494232,1.0993576,2.8301048,0.4379272,9.764011,0.8016774,0,1683900427.1362116
0.40284017,0.72251296,0.082712434,0.045261383,-1.6351509,-3.184452,0.4379272,9.764011,0.8016774,0,1683900427.1413448
0.40284017,0.72251296,0.082712434,0.045261383,-1.6351509,-3.184452,0.09216632,9.799255,0.36945772,0,1683900427.1464806
0.40284017,0.72251296,0.082712434,0.053806305,-1.6852188,-3.3036804,0.09216632,9.799255,0.36945772,0,1683900427.1772244
0.2593294,0.6695552,0.13030165,0.053806305,-1.6852188,-3.3036804,0.09216632,9.799255,0.36945772,0,1683900427.1977239
0.2593294,0.6695552,0.13030165,0.053806305,-1.6852188,-3.3036804,-0.36597562,9.792895,0.36831188,0,1683900427.2028453
0.2593294,0.6695552,0.13030165,0.040988922,-1.6415596,-3.3474731,-0.36597562,9.792895,0.36831188,0,1683900427.2232697
0.2593294,0.6695552,0.13030165,0.040988922,-1.6415596,-3.3474731,-0.68088186,9.775771,0.37561634,0,1683900427.2335112
0.14364725,0.62830514,0.14786325,0.040988922,-1.6415596,-3.3474731,-0.68088186,9.775771,0.37561634,0,1683900427.2386336
0.101183966,0.6114563,0.13712612,0.040988922,-1.6415596,-3.3474731,-0.68088186,9.775771,0.37561634,0,1683900427.248894
0.101183966,0.6114563,0.13712612,0.03458023,-1.6064453,-3.3548164,-0.68088186,9.775771,0.37561634,0,1683900427.264281
0.101183966,0.6114563,0.13712612,0.03458023,-1.6064453,-3.3548164,-0.83903337,9.763245,0.38140094,0,1683900427.269414
0.0013648917,0.6156116,0.10394408,0.03458023,-1.6064453,-3.3548164,-0.83903337,9.763245,0.38140094,0,1683900427.2848067
0.0013648917,0.6156116,0.10394408,0.03458023,-1.6064453,-3.3548164,-1.3146086,9.709498,0.40967762,0,1683900427.295067
0.0013648917,0.6156116,0.10394408,-0.016555786,-1.5563774,-3.3442688,-1.3146086,9.709498,0.40967762,0,1683900427.3053231
0.0013648917,0.6156116,0.10394408,-0.016555786,-1.5563774,-3.3442688,-1.9412403,9.600896,0.47409934,0,1683900427.3566053
-0.053791896,0.6200096,0.12590367,-0.016555786,-1.5563774,-3.3442688,-1.9412403,9.600896,0.47409934,0,1683900427.3668125
-0.053791896,0.6200096,0.12590367,-0.051670074,-1.6000366,-3.346405,-1.9412403,9.600896,0.47409934,0,1683900427.3770623
-0.053791896,0.6200096,0.12590367,-0.051670074,-1.6000366,-3.346405,-2.255905,9.529757,0.5148015,0,1683900427.3923855
-0.08991603,0.6173253,0.13664082,-0.051670074,-1.6000366,-3.346405,-2.255905,9.529757,0.5148015,0,1683900427.3975163
-0.08991603,0.6173253,0.13664082,-0.031375885,-1.6713333,-3.4028816,-2.255905,9.529757,0.5148015,0,1683900427.402615
-1.8405412,0.19754532,0.34848717,-0.031375885,-1.6713333,-3.4028816,-2.255905,9.529757,0.5148015,0,1683900427.4128704
-1.8405412,0.19754532,0.34848717,-0.06128311,0.21629333,0.89868546,-2.255905,9.529757,0.5148015,0,1683900427.4282267
-1.8405412,0.19754532,0.34848717,-0.06128311,0.21629333,0.89868546,-6.539815,7.1145606,1.6686034,0,1683900427.4333518
-1.8405412,0.19754532,0.34848717,-0.06128311,0.21629333,0.89868546,-6.4421062,7.208498,1.6453617,0,1683900427.4435375
-1.7287565,0.2422076,0.28941768,-0.06128311,0.21629333,0.89868546,-6.4421062,7.208498,1.6453617,0,1683900427.4537926
-1.7287565,0.2422076,0.28941768,-0.0815773,0.41122437,1.4718628,-6.4421062,7.208498,1.6453617,0,1683900427.4589272
-1.7287565,0.2422076,0.28941768,-0.0815773,0.41122437,1.4718628,-6.395791,7.2520757,1.6345141,0,1683900427.509786
-1.5659705,0.32176563,0.24499805,-0.0815773,0.41122437,1.4718628,-6.395791,7.2520757,1.6345141,0,1683900427.5250275
-1.5659705,0.32176563,0.24499805,-0.19973755,0.5869293,2.0427704,-6.395791,7.2520757,1.6345141,0,1683900427.535189
-1.5659705,0.32176563,0.24499805,-0.19973755,0.5869293,2.0427704,-6.2814784,7.3561234,1.6127177,0,1683900427.5656772
-1.5659705,0.32176563,0.24499805,-0.19973755,0.5869293,2.0427704,-5.663638,7.852354,1.5601691,0,1683900427.6063323
-1.5659705,0.32176563,0.24499805,-0.31482697,0.829792,2.9461288,-5.663638,7.852354,1.5601691,0,1683900427.611414
-0.98316175,0.5714346,0.43292844,-0.31482697,0.829792,2.9461288,-5.663638,7.852354,1.5601691,0,1683900427.6215818
-0.98316175,0.5714346,0.43292844,-0.26475906,0.86717606,2.9929924,-5.663638,7.852354,1.5601691,0,1683900427.6266644
-0.98316175,0.5714346,0.43292844,-0.26475906,0.86717606,2.9929924,-5.556455,7.930564,1.5499473,0,1683900427.6368432
-0.90457433,0.60023385,0.46221298,-0.26475906,0.86717606,2.9929924,-5.556455,7.930564,1.5499473,0,1683900427.6724436
-0.90457433,0.60023385,0.46221298,-0.26475906,0.86717606,2.9929924,-0.67736006,9.777671,0.3297287,0,1683900427.6978447
-0.90457433,0.60023385,0.46221298,-0.33605576,1.8631935,2.965355,-0.67736006,9.777671,0.3297287,0,1683900427.7029245
-0.90457433,0.60023385,0.46221298,-0.24126053,1.5489006,2.9855156,-0.67736006,9.777671,0.3297287,0,1683900427.7080142
0.2566451,0.6822335,0.009736227,-0.24126053,1.5489006,2.9855156,-0.67736006,9.777671,0.3297287,0,1683900427.7130976
0.2566451,0.6822335,0.009736227,-0.24126053,1.5489006,2.9855156,-0.37976813,9.793089,0.34867707,0,1683900427.7232728
0.4631229,0.7688738,0.09076529,-0.24126053,1.5489006,2.9855156,-0.37976813,9.793089,0.34867707,0,1683900427.7283542
0.57269335,0.778155,0.11760816,-0.24126053,1.5489006,2.9855156,-0.37976813,9.793089,0.34867707,0,1683900427.7740836
0.57269335,0.778155,0.11760816,-0.24126053,1.5489006,2.9855156,-0.087625794,9.7996435,0.36013833,0,1683900427.779127
0.57269335,0.778155,0.11760816,-0.08998871,1.2762642,2.8534698,-0.087625794,9.7996435,0.36013833,0,1683900427.7842011
0.57269335,0.778155,0.11760816,-0.08998871,1.2762642,2.8534698,0.19145824,9.798074,0.36260313,0,1683900427.794359
0.57269335,0.778155,0.11760816,0.03030777,1.0749245,2.7246284,0.19145824,9.798074,0.36260313,0,1683900427.799434
0.5768487,0.8049979,0.12346203,0.03030777,1.0749245,2.7246284,0.19145824,9.798074,0.36260313,0,1683900427.804515
0.5768487,0.8049979,0.12346203,0.07396698,1.0120392,2.6947212,0.19145824,9.798074,0.36260313,0,1683900427.8299062
0.5978377,0.8198904,0.112239584,0.07396698,1.0120392,2.6947212,0.19145824,9.798074,0.36260313,0,1683900427.840074
0.5978377,0.8198904,0.112239584,0.07396698,1.0120392,2.6947212,0.32879403,9.794476,0.36127448,0,1683900427.8553343
0.5978377,0.8198904,0.112239584,0.07396698,1.0120392,2.6947212,0.7350289,9.772736,0.35180247,0,1683900427.8706007
0.5978377,0.8198904,0.112239584,0.13471603,0.88947296,2.6116753,0.7350289,9.772736,0.35180247,0,1683900427.8757405
0.8399391,0.9575321,0.002653956,0.115623474,0.8213806,2.5413132,0.99918854,9.749457,0.3465315,0,1683900427.880902
0.9090178,1.0070777,-0.0068699545,0.115623474,0.8213806,2.5413132,0.99918854,9.749457,0.3465315,0,1683900427.8860264
0.3796522,0.5885261,0.10931265,0.05273819,-1.9963074,-3.8054276,1.255753,9.719849,0.34349552,0,1683900427.8912158
0.3796522,0.5885261,0.10931265,0.05273819,-1.9963074,-3.8054276,-0.70763916,9.779273,-0.18828806,0,1683900427.8963377
0.3796522,0.5885261,0.10931265,0.05273819,-1.9963074,-3.8054276,-1.0841093,9.745009,-0.17286626,0,1683900427.901466
0.3796522,0.5885261,0.10931265,0.040988922,-1.9611931,-3.953495,-1.0841093,9.745009,-0.17286626,0,1683900427.9065528
0.3796522,0.5885261,0.10931265,0.040988922,-1.9611931,-3.953495,-1.4731393,9.694271,-0.14608952,0,1683900427.9270515
0.2791052,0.53995115,0.07758651,0.040988922,-1.9611931,-3.953495,-1.4731393,9.694271,-0.14608952,0,1683900427.932178
0.2791052,0.53995115,0.07758651,-0.033512115,-1.872673,-4.0760612,-1.4731393,9.694271,-0.14608952,0,1683900427.942433
0.17854299,0.487236,0.05000053,-0.033512115,-1.872673,-4.0760612,-1.4731393,9.694271,-0.14608952,0,1683900427.9629378
0.17854299,0.487236,0.05000053,-0.033512115,-1.872673,-4.0760612,-1.6705571,9.662481,-0.1268101,0,1683900427.9783432
0.12681359,0.46332005,0.03853544,-0.033512115,-1.872673,-4.0760612,-1.6705571,9.662481,-0.1268101,0,1683900427.9937224
0.005505063,0.43843353,0.063179314,-0.033512115,-1.872673,-4.0760612,-1.6705571,9.662481,-0.1268101,0,1683900427.998851
0.005505063,0.43843353,0.063179314,-0.033512115,-1.872673,-4.0760612,-2.272002,9.539746,-0.040339176,0,1683900428.0142155
0.005505063,0.43843353,0.063179314,-0.31482697,-1.6319466,-4.2198563,-2.272002,9.539746,-0.040339176,0,1683900428.029566
-0.025978437,0.43623453,0.08489626,-0.31482697,-1.6319466,-4.2198563,-2.272002,9.539746,-0.040339176,0,1683900428.0449553
-0.025978437,0.43623453,0.08489626,-0.31482697,-1.6319466,-4.2198563,-2.4728112,9.489762,-0.0030197229,0,1683900428.0500908
-0.025978437,0.43623453,0.08489626,-0.3670311,-1.5893555,-4.236946,-2.4728112,9.489762,-0.0030197229,0,1683900428.065454
-0.062587865,0.42598268,0.11637976,-0.3670311,-1.5893555,-4.236946,-2.4728112,9.489762,-0.0030197229,0,1683900428.0808349
-0.062587865,0.42598268,0.11637976,-0.3670311,-1.5893555,-4.236946,-3.0737307,9.311637,0.1263566,0,1683900428.091093
-0.062587865,0.42598268,0.11637976,-0.4607582,-1.552105,-4.350834,-3.0737307,9.311637,0.1263566,0,1683900428.0962255
-0.12261277,0.4311086,0.15787247,-0.4607582,-1.552105,-4.350834,-3.0737307,9.311637,0.1263566,0,1683900428.1013505
-0.12261277,0.4311086,0.15787247,-0.46930313,-1.561718,-4.4883537,-3.0737307,9.311637,0.1263566,0,1683900428.1167343
-0.12261277,0.4311086,0.15787247,-0.46930313,-1.561718,-4.4883537,-3.480151,9.165627,0.22410311,0,1683900428.1218636
-0.12261277,0.4311086,0.15787247,-0.46930313,-1.561718,-4.4883537,-7.099737,6.5799074,1.5712883,0,1683900428.1630478
-1.5696405,0.44086,0.48368725,-0.46930313,-1.561718,-4.4883537,-7.099737,6.5799074,1.5712883,0,1683900428.1682267
-1.5696405,0.44086,0.48368725,-0.14432907,0.6637001,0.9157753,-7.099737,6.5799074,1.5712883,0,1683900428.1734052
-1.4822571,0.48041153,0.43853968,-0.14432907,0.6637001,0.9157753,-7.099737,6.5799074,1.5712883,0,1683900428.1888113
-1.4822571,0.48041153,0.43853968,-0.14432907,0.6637001,0.9157753,-7.019205,6.680162,1.5088367,0,1683900428.2043235
-1.4822571,0.48041153,0.43853968,-0.122032166,0.83940506,1.2758636,-7.019205,6.680162,1.5088367,0,1683900428.214633
-1.4041702,0.50554067,0.45807278,-0.122032166,0.83940506,1.2758636,-7.019205,6.680162,1.5088367,0,1683900428.2249072
-1.4041702,0.50554067,0.45807278,-0.09853363,0.93847275,1.4836121,-7.019205,6.680162,1.5088367,0,1683900428.2454808
-1.346314,0.509696,0.48491567,-0.09853363,0.93847275,1.4836121,-7.019205,6.680162,1.5088367,0,1683900428.2713087
-1.346314,0.509696,0.48491567,-0.09853363,0.93847275,1.4836121,-6.860462,6.866547,1.3982027,0,1683900428.276445
-1.346314,0.509696,0.48491567,-0.025100708,1.0460854,1.6625214,-6.860462,6.866547,1.3982027,0,1683900428.2816253
-1.346314,0.509696,0.48491567,0.07823944,1.1845398,1.8403625,-6.860462,6.866547,1.3982027,0,1683900428.2919552
-1.346314,0.509696,0.48491567,0.07823944,1.1845398,1.8403625,-6.761486,6.978694,1.3230747,0,1683900428.2971423
-1.268227,0.5258018,0.42658928,0.07823944,1.1845398,1.8403625,-6.761486,6.978694,1.3230747,0,1683900428.302289
-1.268227,0.5258018,0.42658928,0.11455536,1.2506294,1.9342232,-6.761486,6.978694,1.3230747,0,1683900428.3125675
-1.268227,0.5258018,0.42658928,0.11455536,1.2506294,1.9342232,-6.706365,7.0396395,1.2800492,0,1683900428.327978
-1.1125079,0.5487471,0.39022252,0.11455536,1.2506294,1.9342232,-6.706365,7.0396395,1.2800492,0,1683900428.3536978
-1.1125079,0.5487471,0.39022252,0.11455536,1.2506294,1.9342232,-6.5179706,7.2387524,1.134419,0,1683900428.3639765
-1.1125079,0.5487471,0.39022252,0.20614624,1.4295387,2.1908379,-6.5179706,7.2387524,1.134419,0,1683900428.3691387
-1.1125079,0.5487471,0.39022252,0.29132843,1.4573097,2.313404,-6.5179706,7.2387524,1.134419,0,1683900428.3846018
-1.0268534,0.545805,0.36190858,0.29132843,1.4573097,2.313404,-6.5179706,7.2387524,1.134419,0,1683900428.3949108
-0.30810153,0.78767896,1.1836492,0.29132843,1.4573097,2.313404,-6.5179706,7.2387524,1.134419,0,1683900428.405243
-0.30810153,0.78767896,1.1836492,-0.908165,-1.9259453,-0.8089638,-6.5179706,7.2387524,1.134419,0,1683900428.410407
-0.30810153,0.78767896,1.1836492,-0.7654381,-1.8663979,-0.8813286,-6.5179706,7.2387524,1.134419,0,1683900428.4207137
-0.30810153,0.78767896,1.1836492,-0.7654381,-1.8663979,-0.8813286,-4.2182255,6.1753263,6.3436823,0,1683900428.4412863
-0.31225687,0.79694504,1.1848624,-0.7654381,-1.8663979,-0.8813286,-4.2182255,6.1753263,6.3436823,0,1683900428.446426
-0.39986774,0.77644134,1.1663151,-0.5459404,-1.6565132,-1.0358047,-4.194765,6.1347427,6.39838,0,1683900428.4568214
-0.54434913,0.7149454,1.0957805,-0.5459404,-1.6565132,-1.0358047,-4.167355,6.056819,6.489876,0,1683900428.46721
-0.54434913,0.7149454,1.0957805,-0.4032135,-1.3773346,-1.1338043,-4.167355,6.056819,6.489876,0,1683900428.4723365
-0.54434913,0.7149454,1.0957805,-0.4032135,-1.3773346,-1.1338043,-4.161116,6.0194216,6.5285583,0,1683900428.4878168
-0.7359344,0.5982775,1.1402001,-0.4032135,-1.3773346,-1.1338043,-4.161116,6.0194216,6.5285583,0,1683900428.503231
-0.7359344,0.5982775,1.1402001,-0.36489487,-1.2570381,-1.1327362,-4.161116,6.0194216,6.5285583,0,1683900428.5084388
-0.78596526,0.511895,1.0728503,-0.36489487,-1.2570381,-1.1327362,-4.161116,6.0194216,6.5285583,0,1683900428.5340192
-0.78596526,0.511895,1.0728503,-0.5384636,-0.11508942,-0.65862656,-4.161116,6.0194216,6.5285583,0,1683900428.5391865
-0.78596526,0.511895,1.0728503,-0.5384636,-0.11508942,-0.65862656,-4.193209,5.8703475,6.642771,0,1683900428.5443559
-0.67321,0.5489897,0.92372835,-0.66957474,0.39520264,-0.3199005,-4.239462,5.806182,6.669752,0,1683900428.5598207
-0.64880884,0.5838855,0.87638175,-0.66957474,0.39520264,-0.3199005,-4.26267,5.7760353,6.681127,0,1683900428.5649989
-0.5880408,0.67101103,0.88516253,-0.78666687,0.4356575,-0.054740906,-4.29999,5.7185802,6.706588,0,1683900428.57012
-0.5880408,0.67101103,0.88516253,-0.7718468,0.36115646,-0.030174255,-4.29999,5.7185802,6.706588,0,1683900428.5957866
-0.5880408,0.67101103,0.88516253,-0.7718468,0.36115646,-0.030174255,-4.3134317,5.691291,6.721153,0,1683900428.6009326
-0.5880408,0.67101103,0.88516253,-0.5534172,0.13097763,-0.025901794,-4.3134317,5.691291,6.721153,0,1683900428.6163478
-0.57778895,0.62390715,0.94154775,-0.5534172,0.13097763,-0.025901794,-4.3134317,5.691291,6.721153,0,1683900428.6215274
-0.5614406,0.5775463,0.9474016,-0.5534172,0.13097763,-0.025901794,-4.3134317,5.691291,6.721153,0,1683900428.6522837
-0.5614406,0.5775463,0.9474016,-0.34780502,-0.0010681152,0.028438568,-4.3134317,5.691291,6.721153,0,1683900428.6574266
-0.5614406,0.5775463,0.9474016,-0.34780502,-0.0010681152,0.028438568,-4.3371234,5.621504,6.7644978,0,1683900428.6625276
-0.5614406,0.5775463,0.9474016,-0.34780502,-0.0010681152,0.028438568,-4.339032,5.5920386,6.7876573,0,1683900428.6676607
-0.5614406,0.5775463,0.9474016,-0.34780502,-0.0010681152,0.028438568,-4.327644,5.5800223,6.804795,0,1683900428.6882443
-0.5606975,0.57167727,0.94080466,-0.34780502,-0.0010681152,0.028438568,-4.327644,5.5800223,6.804795,0,1683900428.6985323
-0.5606975,0.57167727,0.94080466,-0.12830734,-0.14165878,0.09973526,-4.327644,5.5800223,6.804795,0,1683900428.703698
-0.5838855,0.57875955,0.90982157,-0.12830734,-0.14165878,0.09973526,-4.327644,5.5800223,6.804795,0,1683900428.7140362
-0.5838855,0.57875955,0.90982157,0.15928268,-0.32056808,0.21909714,-4.327644,5.5800223,6.804795,0,1683900428.7242908
-0.5838855,0.57875955,0.90982157,0.15928268,-0.32056808,0.21909714,-4.303955,5.585386,6.8154106,0,1683900428.734534
-0.5838855,0.57875955,0.90982157,0.15928268,-0.32056808,0.21909714,-4.2875175,5.5941014,6.818621,0,1683900428.76019
-0.5677798,0.58632714,0.88394934,0.15928268,-0.32056808,0.21909714,-4.2875175,5.5941014,6.818621,0,1683900428.775645
-0.5677798,0.58632714,0.88394934,0.3328514,-0.39413452,0.33952713,-4.2875175,5.5941014,6.818621,0,1683900428.7808127
-0.5677798,0.58632714,0.88394934,0.3328514,-0.39413452,0.33952713,-4.2250433,5.638472,6.821072,0,1683900428.7962418
-0.4972452,0.62439245,0.84197134,0.3328514,-0.39413452,0.33952713,-4.2250433,5.638472,6.821072,0,1683900428.8065858
-0.4972452,0.62439245,0.84197134,0.3328514,-0.39413452,0.33952713,-4.1804137,5.677122,6.8165107,0,1683900428.8221304
-0.4972452,0.62439245,0.84197134,0.33712387,-0.2428627,0.44380188,-4.1804137,5.677122,6.8165107,0,1683900428.822146
-0.4972452,0.62439245,0.84197134,0.33712387,-0.2428627,0.44380188,-4.1409116,5.7170687,6.80723,0,1683900428.8324091
-0.45917988,0.6468525,0.8287925,0.33712387,-0.2428627,0.44380188,-4.1409116,5.7170687,6.80723,0,1683900428.8375616
-0.45917988,0.6468525,0.8287925,0.3105545,-0.1566124,0.45555115,-4.1409116,5.7170687,6.80723,0,1683900428.8427265
-0.45917988,0.6468525,0.8287925,0.23805618,0.016021729,0.4225731,-4.1409116,5.7170687,6.80723,0,1683900428.853129
-0.38840267,0.69200003,0.8214676,0.23805618,0.016021729,0.4225731,-4.1409116,5.7170687,6.80723,0,1683900428.8685477
-0.38840267,0.69200003,0.8214676,0.20080566,0.10547638,0.37570953,-4.1037855,5.7677283,6.786947,0,1683900428.878952
-0.36569998,0.7120185,0.82268083,0.20080566,0.10547638,0.37570953,-4.1037855,5.7677283,6.786947,0,1683900428.8789659
-0.34935158,0.70786315,0.8234239,0.20080566,0.10547638,0.37570953,-4.1037855,5.7677283,6.786947,0,1683900428.8892796
-0.34935158,0.70786315,0.8234239,0.20080566,0.10547638,0.37570953,-4.1084743,5.7992244,6.7572055,0,1683900428.9046717
-0.34935158,0.70786315,0.8234239,0.120830536,0.4144287,0.18291473,-4.1084743,5.7992244,6.7572055,0,1683900428.9201398
-0.34935158,0.70786315,0.8234239,0.120830536,0.4144287,0.18291473,-4.1378827,5.8113875,6.7287507,0,1683900428.9304953
-0.34935158,0.70786315,0.8234239,0.11455536,0.59654236,0.077438354,-4.1378827,5.8113875,6.7287507,0,1683900428.9408073
-0.3847326,0.65734696,0.7899841,0.11455536,0.59654236,0.077438354,-4.1378827,5.8113875,6.7287507,0,1683900428.951175
-0.3847326,0.65734696,0.7899841,0.14219284,0.6765175,0.03911972,-4.1791205,5.8218937,6.694095,0,1683900428.9563534
-0.4333076,0.608044,0.74385077,0.14219284,0.6765175,0.03911972,-4.1791205,5.8218937,6.694095,0,1683900428.9666874
-0.4333076,0.608044,0.74385077,0.14219284,0.6765175,0.03911972,-4.2363777,5.8458333,6.6369967,0,1683900428.9718444
-0.4442874,0.60366124,0.66380745,0.14219284,0.6765175,0.03911972,-4.2363777,5.8458333,6.6369967,0,1683900428.976998
-0.4442874,0.60366124,0.66380745,0.22951126,0.583725,0.096530914,-4.2363777,5.8458333,6.6369967,0,1683900428.9924717
-0.4442874,0.60366124,0.66380745,0.20401001,-1.1654472,0.10721207,-4.2363777,5.8458333,6.6369967,0,1683900429.00278
-0.4442874,0.60366124,0.66380745,0.10387421,-1.2634468,0.096530914,-4.2363777,5.8458333,6.6369967,0,1683900429.0079126
