acc_x,acc_y,acc_z,gyr_x,gyr_y,gyr_z,grav_x,grav_y,grav_z,label,timestamp
-0.0062808543,0.6494891,0.7977295,1.3639094,-0.33383787,-1.3168727,-3.3583398,5.7874923,7.1737432,0,1683969419.5495453
-0.01103723,0.6015595,0.7934609,1.379181,-0.24953845,-1.4416419,-3.3583398,5.7874923,7.1737432,0,1683969419.5930798
-0.040429186,0.5374704,0.76004434,1.3691018,-0.08307768,-1.5438092,-3.458827,5.87954,7.050081,0,1683969419.5982606
-0.040429186,0.5374704,0.76004434,1.3843733,0.03863723,-1.5344934,-3.6094604,5.9536996,6.91096,0,1683969419.6034632
-0.10701844,0.45374596,0.45533144,1.3843733,0.03863723,-1.5344934,-3.6094604,5.9536996,6.91096,0,1683969419.6034718
-0.10701844,0.45374596,0.45533144,1.449125,-0.205098,-1.5012014,-3.6094604,5.9536996,6.91096,0,1683969419.6085942
-0.10701844,0.45374596,0.45533144,1.449125,-0.205098,-1.5012014,-3.6876748,5.9909167,6.837111,0,1683969419.618842
-0.10701844,0.45374596,0.45533144,1.5522085,-0.63514715,-1.5059355,-3.6876748,5.9909167,6.837111,0,1683969419.6393535
-0.12153149,0.45002624,0.38648596,1.5522085,-0.63514715,-1.5059355,-3.6876748,5.9909167,6.837111,0,1683969419.6444833
-0.12153149,0.45002624,0.38648596,1.5522085,-0.63514715,-1.5059355,-3.7804275,6.05351,6.7304907,0,1683969419.6547396
-0.13293459,0.43923298,0.3515449,1.5522085,-0.63514715,-1.5059355,-3.7804275,6.05351,6.7304907,0,1683969419.6598685
-0.13293459,0.43923298,0.3515449,1.5522085,-0.63514715,-1.5059355,-3.8183706,6.100298,6.6665225,0,1683969419.6650004
-0.13293459,0.43923298,0.3515449,1.6565138,-1.0261009,-1.5460999,-3.8183706,6.100298,6.6665225,0,1683969419.6751828
-0.1510454,0.41380462,0.30550563,1.6565138,-1.0261009,-1.5460999,-3.8183706,6.100298,6.6665225,0,1683969419.6956556
-0.1510454,0.41380462,0.30550563,1.6565138,-1.0261009,-1.5460999,-3.8374178,6.150784,6.6089478,0,1683969419.7059126
-0.1510454,0.41380462,0.30550563,1.7560849,-1.4110987,-1.6194037,-3.8374178,6.150784,6.6089478,0,1683969419.7161653
-0.1510454,0.41380462,0.30550563,1.7560849,-1.4110987,-1.6194037,-3.8403919,6.2032413,6.557995,0,1683969419.7366855
-0.18299848,0.3758756,0.2807481,1.7560849,-1.4110987,-1.6194037,-3.8403919,6.2032413,6.557995,0,1683969419.7418194
-0.18299848,0.3758756,0.2807481,1.8235855,-1.7644843,-1.6928604,-3.8403919,6.2032413,6.557995,0,1683969419.7469459
-0.18299848,0.3758756,0.2807481,1.8235855,-1.7644843,-1.6928604,-3.821331,6.280016,6.495764,0,1683969419.7725604
-0.23019636,0.32440916,0.2719061,1.8235855,-1.7644843,-1.6928604,-3.821331,6.280016,6.495764,0,1683969419.7828157
-0.23019636,0.32440916,0.2719061,1.8396207,-2.1230621,-1.7484491,-3.821331,6.280016,6.495764,0,1683969419.7879567
-0.23019636,0.32440916,0.2719061,1.7806722,-2.3235786,-1.7478381,-3.821331,6.280016,6.495764,0,1683969419.8135178
-0.2570272,0.29148042,0.27568683,1.7806722,-2.3235786,-1.7478381,-3.821331,6.280016,6.495764,0,1683969419.8237734
-0.2570272,0.29148042,0.27568683,1.7806722,-2.3235786,-1.7478381,-3.7957373,6.3268876,6.465214,0,1683969419.8340342
-0.2570272,0.29148042,0.27568683,1.591304,-2.4452937,-1.7214183,-3.7957373,6.3268876,6.465214,0,1683969419.8391652
-0.26019812,0.26208845,0.3081887,1.591304,-2.4452937,-1.7214183,-3.7957373,6.3268876,6.465214,0,1683969419.8494272
-0.26019812,0.26208845,0.3081887,1.591304,-2.4452937,-1.7214183,-3.7617476,6.3674965,6.445181,0,1683969419.8698997
-0.26019812,0.26208845,0.3081887,1.3591752,-2.377182,-1.7096591,-3.7617476,6.3674965,6.445181,0,1683969419.8903656
-0.26019812,0.26208845,0.3081887,1.3591752,-2.377182,-1.7096591,-3.7225456,6.397853,6.437875,0,1683969419.89545
-0.2497097,0.25422215,0.3910594,1.3591752,-2.377182,-1.7096591,-3.7225456,6.397853,6.437875,0,1683969419.9057145
-0.24501431,0.245868,0.47734493,1.3591752,-2.377182,-1.7096591,-3.7225456,6.397853,6.437875,0,1683969419.9211066
-0.24501431,0.245868,0.47734493,1.0919216,-2.1313088,-1.7136297,-3.7225456,6.397853,6.437875,0,1683969419.9262395
-0.24501431,0.245868,0.47734493,1.0919216,-2.1313088,-1.7136297,-3.6865199,6.413745,6.4427905,0,1683969419.9415858
-0.2566613,0.21922012,0.47295445,1.0919216,-2.1313088,-1.7136297,-3.6865199,6.413745,6.4427905,0,1683969419.9518518
-0.2566613,0.21922012,0.47295445,1.0919216,-2.1313088,-1.7136297,-3.662913,6.4066296,6.463303,0,1683969419.9671805
-0.2566613,0.21922012,0.47295445,0.75487673,-1.6858354,-1.7261524,-3.662913,6.4066296,6.463303,0,1683969419.9774337
-0.2566613,0.21922012,0.47295445,0.4700608,-1.3982705,-1.7182112,-3.662913,6.4066296,6.463303,0,1683969420.0030963
-0.2566613,0.21922012,0.47295445,0.4700608,-1.3982705,-1.7182112,-3.6734595,6.3820186,6.48164,0,1683969420.0082483
-0.36526522,0.17696154,0.3901447,0.4700608,-1.3982705,-1.7182112,-3.6734595,6.3820186,6.48164,0,1683969420.0286949
-0.36526522,0.17696154,0.3901447,0.4700608,-1.3982705,-1.7182112,-3.6964731,6.3447948,6.5050583,0,1683969420.0338032
-0.36526522,0.17696154,0.3901447,0.3199407,-1.3709344,-1.6545285,-3.6964731,6.3447948,6.5050583,0,1683969420.03889
-0.36526522,0.17696154,0.3901447,0.3199407,-1.3709344,-1.6545285,-3.7167623,6.300805,6.53618,0,1683969420.0644913
-0.43228132,0.19836523,0.45264837,0.3199407,-1.3709344,-1.6545285,-3.7167623,6.300805,6.53618,0,1683969420.0696216
-0.43228132,0.19836523,0.45264837,0.27305678,-1.5438092,-1.4978416,-3.7167623,6.300805,6.53618,0,1683969420.0798707
-0.43228132,0.19836523,0.45264837,0.35643986,-1.6815593,-1.4051428,-3.7167623,6.300805,6.53618,0,1683969420.0951831
-0.43228132,0.19836523,0.45264837,0.35643986,-1.6815593,-1.4051428,-3.721032,6.2589626,6.5738435,0,1683969420.1002698
-0.4999072,0.25416118,0.53198224,0.35643986,-1.6815593,-1.4051428,-3.721032,6.2589626,6.5738435,0,1683969420.1155126
-0.4999072,0.25416118,0.53198224,0.35643986,-1.6815593,-1.4051428,-3.69874,6.2128053,6.6299686,0,1683969420.1205926
-0.4999072,0.25416118,0.53198224,0.50976706,-1.8382462,-1.3096951,-3.69874,6.2128053,6.6299686,0,1683969420.1256719
-0.48661375,0.26910108,0.5107005,0.50976706,-1.8382462,-1.3096951,-3.69874,6.2128053,6.6299686,0,1683969420.1461391
-0.4548436,0.27885774,0.50942,0.50976706,-1.8382462,-1.3096951,-3.69874,6.2128053,6.6299686,0,1683969420.1665826
-0.46856394,0.29721245,0.5073467,0.50976706,-1.8382462,-1.3096951,-3.69874,6.2128053,6.6299686,0,1683969420.181944
-0.46856394,0.29721245,0.5073467,0.5729916,-2.0352502,-1.2449434,-3.69874,6.2128053,6.6299686,0,1683969420.187079
-0.46856394,0.29721245,0.5073467,0.5729916,-2.0352502,-1.2449434,-3.6177654,6.1886163,6.6969333,0,1683969420.1922145
-0.46856394,0.29721245,0.5073467,0.5729916,-2.0352502,-1.2449434,-3.5516288,6.1660867,6.752883,0,1683969420.2281299
-0.51411533,0.31044495,0.46832004,0.5729916,-2.0352502,-1.2449434,-3.5516288,6.1660867,6.752883,0,1683969420.233265
-0.51411533,0.31044495,0.46832004,0.26053402,-1.8901697,-1.1972959,-3.5516288,6.1660867,6.752883,0,1683969420.2384038
-0.5519834,0.3240433,0.4966753,0.26053402,-1.8901697,-1.1972959,-3.5516288,6.1660867,6.752883,0,1683969420.253761
-0.5519834,0.3240433,0.4966753,0.26053402,-1.8901697,-1.1972959,-3.5316758,6.151711,6.7764163,0,1683969420.2640293
-0.5519834,0.3240433,0.4966753,0.00580322,-1.8034269,-1.1296426,-3.5316758,6.151711,6.7764163,0,1683969420.269158
-0.5519834,0.3240433,0.4966753,0.00580322,-1.8034269,-1.1296426,-3.492211,6.1095734,6.834741,0,1683969420.2999265
-0.59722996,0.3550207,0.64302534,0.00580322,-1.8034269,-1.1296426,-3.492211,6.1095734,6.834741,0,1683969420.305019
-0.59722996,0.3550207,0.64302534,-0.37858373,-1.6328428,-0.98624194,-3.492211,6.1095734,6.834741,0,1683969420.3101575
-0.59722996,0.3550207,0.64302534,-0.37858373,-1.6328428,-0.98624194,-3.4329789,6.0188055,6.9444046,0,1683969420.3203845
-0.61088926,0.3679483,0.74894613,-0.37858373,-1.6328428,-0.98624194,-3.4329789,6.0188055,6.9444046,0,1683969420.3255203
-0.61088926,0.3679483,0.74894613,-0.5852089,-1.4682146,-0.86620694,-3.4329789,6.0188055,6.9444046,0,1683969420.3357413
-0.61088926,0.3679483,0.74894613,-0.61407226,-1.4043792,-0.82527894,-3.4329789,6.0188055,6.9444046,0,1683969420.3665514
-0.6246096,0.38825434,0.86456263,-0.61407226,-1.4043792,-0.82527894,-3.4329789,6.0188055,6.9444046,0,1683969420.3716798
-0.6246096,0.38825434,0.86456263,-0.61407226,-1.4043792,-0.82527894,-3.3935473,5.948967,7.023514,0,1683969420.381903
-0.6246096,0.38825434,0.86456263,-0.5558874,-1.3179418,-0.80573124,-3.3935473,5.948967,7.023514,0,1683969420.4024315
-0.6478427,0.41758534,0.94426244,-0.5558874,-1.3179418,-0.80573124,-3.3537655,5.878758,7.101308,0,1683969420.4076173
-0.6478427,0.41758534,0.94426244,-0.5558874,-1.3179418,-0.80573124,-3.315797,5.811578,7.1740623,0,1683969420.423
-0.6993701,0.4666126,1.1404324,-0.5558874,-1.3179418,-0.80573124,-3.315797,5.811578,7.1740623,0,1683969420.4332762
-0.6993701,0.4666126,1.1404324,-0.5357288,-1.0157162,-0.7838928,-3.315797,5.811578,7.1740623,0,1683969420.4384165
-0.7027239,0.5161277,1.1761053,-0.5357288,-1.0157162,-0.7838928,-3.315797,5.811578,7.1740623,0,1683969420.4487033
-0.7027239,0.5161277,1.1761053,-0.5357288,-1.0157162,-0.7838928,-3.2856047,5.7147484,7.265161,0,1683969420.4692361
-0.7027239,0.5161277,1.1761053,-0.54626626,-0.7246389,-0.753655,-3.2856047,5.7147484,7.265161,0,1683969420.474375
-0.7027239,0.5161277,1.1761053,-0.54626626,-0.7246389,-0.753655,-3.2871242,5.6506324,7.314456,0,1683969420.4897764
-0.7027239,0.5161277,1.1761053,-0.54321194,-0.41034874,-0.74296486,-3.2871242,5.6506324,7.314456,0,1683969420.4949114
-0.75162923,0.55856913,1.2885509,-0.54321194,-0.41034874,-0.74296486,-3.2871242,5.6506324,7.314456,0,1683969420.5103168
-0.75162923,0.55856913,1.2885509,-0.47525316,-0.08200866,-0.74174315,-3.2871242,5.6506324,7.314456,0,1683969420.5256886
-0.75162923,0.55856913,1.2885509,-0.47525316,-0.08200866,-0.74174315,-3.30817,5.587542,7.353332,0,1683969420.530852
-0.82834107,0.5683259,1.3539205,-0.47525316,-0.08200866,-0.74174315,-3.30817,5.587542,7.353332,0,1683969420.546267
-0.82834107,0.5683259,1.3539205,-0.47525316,-0.08200866,-0.74174315,-3.3456647,5.5288014,7.380718,0,1683969420.561649
-0.82834107,0.5683259,1.3539205,-0.34315357,0.08979719,-0.6881397,-3.3456647,5.5288014,7.380718,0,1683969420.5667796
-0.88066113,0.5599717,1.3623966,-0.34315357,0.08979719,-0.6881397,-3.3456647,5.5288014,7.380718,0,1683969420.5770557
-0.980606,0.56643546,1.343371,-0.34315357,0.08979719,-0.6881397,-3.3456647,5.5288014,7.380718,0,1683969420.5872664
-0.980606,0.56643546,1.343371,-0.11789699,0.14370605,-0.54321194,-3.3456647,5.5288014,7.380718,0,1683969420.5974486
-0.980606,0.56643546,1.343371,-0.11789699,0.14370605,-0.54321194,-3.413317,5.4624696,7.399108,0,1683969420.6127105
-0.980606,0.56643546,1.343371,0.055283304,0.10644327,-0.40042216,-3.413317,5.4624696,7.399108,0,1683969420.6382723
-0.980606,0.56643546,1.343371,0.055283304,0.10644327,-0.40042216,-3.4343238,5.448201,7.399908,0,1683969420.6433978
-1.0093882,0.58613175,1.3325168,0.055283304,0.10644327,-0.40042216,-3.4343238,5.448201,7.399908,0,1683969420.6536634
-1.0093882,0.58613175,1.3325168,0.1966986,0.061391957,-0.27137688,-3.4343238,5.448201,7.399908,0,1683969420.6792712
-1.0093882,0.58613175,1.3325168,0.1966986,0.061391957,-0.27137688,-3.482641,5.4288044,7.391577,0,1683969420.6844118
-1.0197546,0.6171092,1.3420295,0.1966986,0.061391957,-0.27137688,-3.482641,5.4288044,7.391577,0,1683969420.6895525
-1.0197546,0.6171092,1.3420295,0.1966986,0.061391957,-0.27137688,-3.5037577,5.4324384,7.3789167,0,1683969420.7049708
-1.0132298,0.61534077,1.3808123,0.1966986,0.061391957,-0.27137688,-3.5037577,5.4324384,7.3789167,0,1683969420.7100863
-1.0132298,0.61534077,1.3808123,0.33001995,0.0852157,-0.109650314,-3.5037577,5.4324384,7.3789167,0,1683969420.7254658
-1.0132298,0.61534077,1.3808123,0.41890085,0.21410827,0.030543262,-3.5037577,5.4324384,7.3789167,0,1683969420.7511744
-1.0132298,0.61534077,1.3808123,0.41890085,0.21410827,0.030543262,-3.520804,5.4467688,7.3602147,0,1683969420.756309
-1.0057294,0.59229064,1.4211196,0.41890085,0.21410827,0.030543262,-3.520804,5.4467688,7.3602147,0,1683969420.7614136
-1.0057294,0.59229064,1.4211196,0.41890085,0.21410827,0.030543262,-3.5394397,5.4711275,7.33316,0,1683969420.7871032
-1.0057294,0.59229064,1.4211196,0.5334381,0.47723848,0.22999077,-3.5394397,5.4711275,7.33316,0,1683969420.7922337
-1.0057294,0.59229064,1.4211196,0.5334381,0.47723848,0.22999077,-3.647739,5.6534147,7.139259,0,1683969420.8077164
-0.8812099,0.503444,1.2685496,0.5334381,0.47723848,0.22999077,-3.647739,5.6534147,7.139259,0,1683969420.8128502
-0.8812099,0.503444,1.2685496,1.0126618,1.0894781,0.712727,-3.647739,5.6534147,7.139259,0,1683969420.817991
-0.8812099,0.503444,1.2685496,1.1456778,1.2223413,0.8410087,-3.647739,5.6534147,7.139259,0,1683969420.8488302
-0.85535485,0.47935724,1.1583602,1.1456778,1.2223413,0.8410087,-3.647739,5.6534147,7.139259,0,1683969420.853972
-0.85535485,0.47935724,1.1583602,1.1456778,1.2223413,0.8410087,-3.6866024,5.7372746,7.051862,0,1683969420.8642592
-0.85535485,0.47935724,1.1583602,1.1456778,1.2223413,0.8410087,-3.7257001,5.8328714,6.952185,0,1683969420.8694015
-0.85535485,0.47935724,1.1583602,1.2539536,1.3405437,1.0118983,-3.7257001,5.8328714,6.952185,0,1683969420.8796854
-0.8336462,0.456612,1.0234743,1.2539536,1.3405437,1.0118983,-3.7257001,5.8328714,6.952185,0,1683969420.8951168
-0.8336462,0.456612,1.0234743,1.2977833,1.4004086,1.1557571,-3.7257001,5.8328714,6.952185,0,1683969420.9053464
-0.8336462,0.456612,1.0234743,1.2977833,1.4004086,1.1557571,-3.7918797,6.814054,5.95201,0,1683969420.9155903
-0.500761,0.42526874,0.48551616,1.2977833,1.4004086,1.1557571,-3.7918797,6.814054,5.95201,0,1683969420.9360864
-0.500761,0.42526874,0.48551616,1.2977833,1.4004086,1.1557571,-3.764419,6.9088283,5.8594675,0,1683969420.941233
-0.45685592,0.41618282,0.48630884,1.2977833,1.4004086,1.1557571,-3.764419,6.9088283,5.8594675,0,1683969420.9565694
-0.45685592,0.41618282,0.48630884,0.6899723,1.1942415,1.7742581,-3.764419,6.9088283,5.8594675,0,1683969420.9617167
-0.45685592,0.41618282,0.48630884,0.6899723,1.1942415,1.7742581,-3.7280784,7.0015883,5.7719407,0,1683969420.972001
-0.45685592,0.41618282,0.48630884,0.6640105,1.1905763,1.8107573,-3.7280784,7.0015883,5.7719407,0,1683969421.0028052
-0.45685592,0.41618282,0.48630884,0.6640105,1.1905763,1.8107573,-3.6819558,7.092944,5.6894164,0,1683969421.0079439
-0.41697556,0.42215878,0.509298,0.6640105,1.1905763,1.8107573,-3.6819558,7.092944,5.6894164,0,1683969421.0130818
-0.3793514,0.4242321,0.5041757,0.6640105,1.1905763,1.8107573,-3.6819558,7.092944,5.6894164,0,1683969421.0285077
-0.3793514,0.4242321,0.5041757,0.6046039,1.2907583,1.8208365,-3.6819558,7.092944,5.6894164,0,1683969421.0438805
-0.3793514,0.4242321,0.5041757,0.6046039,1.2907583,1.8208365,-3.6045141,7.2264147,5.569787,0,1683969421.054123
-0.3793514,0.4242321,0.5041757,0.6046039,1.2907583,1.8208365,-3.5546477,7.3106103,5.491409,0,1683969421.064353
-0.3793514,0.4242321,0.5041757,0.4972443,1.4249959,1.8196149,-3.5546477,7.3106103,5.491409,0,1683969421.0797913
-0.36831418,0.41490227,0.4679541,0.4972443,1.4249959,1.8196149,-3.5546477,7.3106103,5.491409,0,1683969421.0849214
-0.36831418,0.41490227,0.4679541,0.37033707,1.5283848,1.8330538,-3.5546477,7.3106103,5.491409,0,1683969421.110551
-0.36831418,0.41490227,0.4679541,0.37033707,1.5283848,1.8330538,-3.4865768,7.4261746,5.378833,0,1683969421.115687
-0.37374133,0.39916962,0.42191488,0.37033707,1.5283848,1.8330538,-3.4865768,7.4261746,5.378833,0,1683969421.1208313
-0.37374133,0.39916962,0.42191488,0.37033707,1.5283848,1.8330538,-3.4416106,7.4965925,5.309665,0,1683969421.1412663
-0.37746105,0.39087647,0.4059383,0.37033707,1.5283848,1.8330538,-3.4416106,7.4965925,5.309665,0,1683969421.1463923
-0.37746105,0.39087647,0.4059383,0.28160888,1.5499178,1.8715384,-3.4416106,7.4965925,5.309665,0,1683969421.1515253
-0.28849244,0.33379996,0.34800813,0.28160888,1.5499178,1.8715384,-3.4416106,7.4965925,5.309665,0,1683969421.1720512
-0.28849244,0.33379996,0.34800813,0.08903361,1.3863586,2.165212,-3.4416106,7.4965925,5.309665,0,1683969421.1771932
-0.28849244,0.33379996,0.34800813,0.07315111,1.3874277,2.174833,-3.4416106,7.4965925,5.309665,0,1683969421.1874654
-0.28849244,0.33379996,0.34800813,0.07315111,1.3874277,2.174833,-2.0655558,8.079742,5.165981,0,1683969421.2079768
-0.28849244,0.33379996,0.34800813,-1.1511755,1.3197744,2.068237,-2.0655558,8.079742,5.165981,0,1683969421.2130816
-0.07744354,0.33623913,0.3352025,-1.1511755,1.3197744,2.068237,-2.0655558,8.079742,5.165981,0,1683969421.2284322
-0.07744354,0.33623913,0.3352025,-1.1511755,1.3197744,2.068237,-1.9762602,8.0597315,5.2317524,0,1683969421.2386506
-0.10445731,0.31666481,0.30020046,-1.1511755,1.3197744,2.068237,-1.9762602,8.0597315,5.2317524,0,1683969421.2489107
-0.10445731,0.31666481,0.30020046,-1.3423764,1.345278,2.058463,-1.9762602,8.0597315,5.2317524,0,1683969421.2592092
-0.08567573,0.30959123,0.33038515,-1.3423764,1.345278,2.058463,-1.9762602,8.0597315,5.2317524,0,1683969421.2797956
-0.08567573,0.30959123,0.33038515,-1.3423764,1.345278,2.058463,-1.8447864,8.007947,5.357766,0,1683969421.2849452
-0.08567573,0.30959123,0.33038515,-1.5790867,1.264033,2.149024,-1.8447864,8.007947,5.357766,0,1683969421.2900984
-0.08567573,0.30959123,0.33038515,-1.5790867,1.264033,2.149024,-1.7454144,7.9601,5.4613605,0,1683969421.3260593
-0.020184105,0.33678794,0.43331796,-1.5790867,1.264033,2.149024,-1.7454144,7.9601,5.4613605,0,1683969421.331156
-0.020184105,0.33678794,0.43331796,-1.711339,1.1036807,2.2441661,-1.7454144,7.9601,5.4613605,0,1683969421.336262
-0.020184105,0.33678794,0.43331796,-1.711339,1.1036807,2.2441661,-1.5757782,7.875612,5.632741,0,1683969421.3465543
-0.020184105,0.33678794,0.43331796,-1.7168368,0.98349303,2.2592852,-1.5757782,7.875612,5.632741,0,1683969421.3568432
0.041953668,0.38038805,0.5250916,-1.7168368,0.98349303,2.2592852,-1.5757782,7.875612,5.632741,0,1683969421.372272
0.112872444,0.4564291,0.6100356,-1.7168368,0.98349303,2.2592852,-1.5757782,7.875612,5.632741,0,1683969421.3928366
0.112872444,0.4564291,0.6100356,-1.7151569,0.97585726,2.199573,-1.5757782,7.875612,5.632741,0,1683969421.3979845
0.112872444,0.4564291,0.6100356,-1.7151569,0.97585726,2.199573,-1.4594221,7.814086,5.7485876,0,1683969421.4031074
0.16183871,0.5147861,0.6368055,-1.7151569,0.97585726,2.199573,-1.4594221,7.814086,5.7485876,0,1683969421.4288323
0.16183871,0.5147861,0.6368055,-1.7698293,1.0277808,2.097864,-1.4594221,7.814086,5.7485876,0,1683969421.4339726
0.16183871,0.5147861,0.6368055,-1.7698293,1.0277808,2.097864,-1.3505595,7.747216,5.864532,0,1683969421.439129
0.16183871,0.5147861,0.6368055,-1.7698293,1.0277808,2.097864,-1.2535349,7.6720347,5.9836974,0,1683969421.4596713
0.20586567,0.58472925,0.67564917,-1.7698293,1.0277808,2.097864,-1.2535349,7.6720347,5.9836974,0,1683969421.4648225
0.20586567,0.58472925,0.67564917,1.4665347,-0.68600166,-1.1670581,-1.2535349,7.6720347,5.9836974,0,1683969421.4751124
0.20586567,0.58472925,0.67564917,1.4665347,-0.68600166,-1.1670581,-1.4485129,7.1191773,6.5920577,0,1683969421.480253
0.20586567,0.58472925,0.67564917,1.6378825,-0.8940013,-1.3028228,-1.4485129,7.1191773,6.5920577,0,1683969421.4956758
0.20586567,0.58472925,0.67564917,1.6378825,-0.8940013,-1.3028228,-1.4856334,7.2304,6.461448,0,1683969421.5111148
0.2432459,0.7952293,0.77358174,1.6378825,-0.8940013,-1.3028228,-1.4856334,7.2304,6.461448,0,1683969421.5162642
0.22836697,0.7660813,0.7455313,1.6378825,-0.8940013,-1.3028228,-1.4856334,7.2304,6.461448,0,1683969421.536751
0.22836697,0.7660813,0.7455313,1.7201965,-0.98715824,-1.4202617,-1.4856334,7.2304,6.461448,0,1683969421.5418537
0.22836697,0.7660813,0.7455313,1.7201965,-0.98715824,-1.4202617,-1.510944,7.3095074,6.365866,0,1683969421.5469594
0.20043853,0.7290669,0.7125416,1.7201965,-0.98715824,-1.4202617,-1.510944,7.3095074,6.365866,0,1683969421.5674927
0.20043853,0.7290669,0.7125416,1.7201965,-0.98715824,-1.4202617,-1.5254083,7.3492837,6.316428,0,1683969421.572639
0.20043853,0.7290669,0.7125416,1.7411187,-1.0525209,-1.5357152,-1.5254083,7.3492837,6.316428,0,1683969421.5880208
0.15281379,0.6910769,0.6905281,1.7411187,-1.0525209,-1.5357152,-1.5254083,7.3492837,6.316428,0,1683969421.6085606
0.15281379,0.6910769,0.6905281,1.7234036,-1.1032226,-1.5893186,-1.5254083,7.3492837,6.316428,0,1683969421.6137044
0.15281379,0.6910769,0.6905281,1.7234036,-1.1032226,-1.5893186,-1.5766807,7.464643,6.1667886,0,1683969421.623981
0.11488476,0.6474158,0.67930794,1.7234036,-1.1032226,-1.5893186,-1.5766807,7.464643,6.1667886,0,1683969421.6291223
0.11488476,0.6474158,0.67930794,1.7234036,-1.1032226,-1.5893186,-1.6158743,7.536668,6.068253,0,1683969421.6495767
0.11488476,0.6474158,0.67930794,1.7241671,-1.157437,-1.6391041,-1.6158743,7.536668,6.068253,0,1683969421.65467
0.09018819,0.61631644,0.6642461,1.7241671,-1.157437,-1.6391041,-1.6158743,7.536668,6.068253,0,1683969421.670082
0.09018819,0.61631644,0.6642461,1.7589865,-1.2223413,-1.6665931,-1.6158743,7.536668,6.068253,0,1683969421.6803308
0.09018819,0.61631644,0.6642461,1.7589865,-1.2223413,-1.6665931,-1.6796981,7.6390057,5.921175,0,1683969421.685477
0.07329696,0.5905222,0.64436686,1.7589865,-1.2223413,-1.6665931,-1.6796981,7.6390057,5.921175,0,1683969421.7112045
0.07329696,0.5905222,0.64436686,1.809841,-1.3078625,-1.6829338,-1.6796981,7.6390057,5.921175,0,1683969421.7214897
0.07329696,0.5905222,0.64436686,1.809841,-1.3078625,-1.6829338,-1.7227682,7.7059603,5.821198,0,1683969421.726636
0.07329696,0.5905222,0.64436686,1.8521434,-1.3947581,-1.6994271,-1.7227682,7.7059603,5.821198,0,1683969421.7369218
0.07329696,0.5905222,0.64436686,0.73899424,-1.3921618,-2.2632558,-1.7227682,7.7059603,5.821198,0,1683969421.747197
0.07329696,0.5905222,0.64436686,0.73899424,-1.3921618,-2.2632558,-3.5601013,8.072929,4.28831,0,1683969421.7574854
-0.31459153,0.36959475,0.24903892,0.73899424,-1.3921618,-2.2632558,-3.5601013,8.072929,4.28831,0,1683969421.7677736
-0.3945962,0.3345317,0.25300255,0.73899424,-1.3921618,-2.2632558,-3.5601013,8.072929,4.28831,0,1683969421.7729125
-0.3945962,0.3345317,0.25300255,0.50671273,-1.272585,-2.276084,-3.5601013,8.072929,4.28831,0,1683969421.7832005
-0.3945962,0.3345317,0.25300255,0.50671273,-1.272585,-2.276084,-3.681393,8.019804,4.28558,0,1683969421.7883446
-0.46295384,0.30099317,0.25653934,0.50671273,-1.272585,-2.276084,-3.681393,8.019804,4.28558,0,1683969421.814048
-0.46295384,0.30099317,0.25653934,0.50671273,-1.272585,-2.276084,-3.8067956,7.955264,4.2962995,0,1683969421.8346262
-0.46295384,0.30099317,0.25653934,0.35643986,-1.231657,-2.207667,-3.8067956,7.955264,4.2962995,0,1683969421.8397765
-0.46295384,0.30099317,0.25653934,0.26251933,-1.2773192,-2.0615175,-3.8067956,7.955264,4.2962995,0,1683969421.8603356
-0.46295384,0.30099317,0.25653934,0.26251933,-1.2773192,-2.0615175,-3.9262078,7.885511,4.3173723,0,1683969421.865479
-0.50246835,0.2713573,0.25885656,0.26251933,-1.2773192,-2.0615175,-3.9262078,7.885511,4.3173723,0,1683969421.8706324
-0.5191157,0.26702777,0.2626373,0.26251933,-1.2773192,-2.0615175,-3.9262078,7.885511,4.3173723,0,1683969421.886022
-0.5191157,0.26702777,0.2626373,0.22892176,-1.3629931,-1.9320141,-3.9262078,7.885511,4.3173723,0,1683969421.8911707
-0.5191157,0.26702777,0.2626373,0.22892176,-1.3629931,-1.9320141,-4.033899,7.8149667,4.346272,0,1683969421.9065568
-0.5202133,0.27721128,0.2775772,0.22892176,-1.3629931,-1.9320141,-4.033899,7.8149667,4.346272,0,1683969421.9168432
-0.5202133,0.27721128,0.2775772,0.22892176,-1.3629931,-1.9320141,-4.168204,7.712823,4.4016542,0,1683969421.9374056
-0.5202133,0.27721128,0.2775772,0.22220223,-1.4937183,-1.7741054,-4.168204,7.712823,4.4016542,0,1683969421.9476476
-0.5202133,0.27721128,0.2775772,0.21578814,-1.5731307,-1.6650659,-4.168204,7.712823,4.4016542,0,1683969421.9528017
-0.5164326,0.29952967,0.2876997,0.21578814,-1.5731307,-1.6650659,-4.168204,7.712823,4.4016542,0,1683969421.9578965
-0.5164326,0.29952967,0.2876997,0.21578814,-1.5731307,-1.6650659,-4.239084,7.6489663,4.445176,0,1683969421.9835176
-0.52375007,0.34203213,0.27739424,0.21578814,-1.5731307,-1.6650659,-4.239084,7.6489663,4.445176,0,1683969421.9937532
-0.52375007,0.34203213,0.27739424,0.21578814,-1.5731307,-1.6650659,-4.297507,7.5882883,4.4928203,0,1683969422.00918
-0.52375007,0.34203213,0.27739424,0.18829921,-1.6514742,-1.5538884,-4.297507,7.5882883,4.4928203,0,1683969422.014285
-1.1545795,0.51112735,0.968715,0.18829921,-1.6514742,-1.5538884,-4.297507,7.5882883,4.4928203,0,1683969422.0348594
-1.1545795,0.51112735,0.968715,0.5768095,0.95737857,0.7658723,-4.297507,7.5882883,4.4928203,0,1683969422.0400095
-1.1545795,0.51112735,0.968715,0.5768095,0.95737857,0.7658723,-4.84117,6.3063135,5.747137,0,1683969422.0451553
-1.1545795,0.51112735,0.968715,0.7058548,0.9691377,1.0056369,-4.84117,6.3063135,5.747137,0,1683969422.0708227
-1.1545795,0.51112735,0.968715,0.7058548,0.9691377,1.0056369,-4.852979,6.364002,5.6731114,0,1683969422.0759676
-1.0936004,0.47173482,0.8737705,0.7058548,0.9691377,1.0056369,-4.852979,6.364002,5.6731114,0,1683969422.0811138
-1.0936004,0.47173482,0.8737705,0.8002335,0.95707315,1.1867584,-4.852979,6.364002,5.6731114,0,1683969422.1016579
-1.0936004,0.47173482,0.8737705,0.8002335,0.95707315,1.1867584,-4.8486986,6.475201,5.549595,0,1683969422.1068003
-1.0159739,0.47222266,0.8204747,0.8002335,0.95707315,1.1867584,-4.8486986,6.475201,5.549595,0,1683969422.1170955
-0.91639495,0.49252874,0.76138586,0.8002335,0.95707315,1.1867584,-4.8486986,6.475201,5.549595,0,1683969422.127337
-0.91639495,0.49252874,0.76138586,0.8002335,0.95707315,1.1867584,-4.830243,6.564147,5.460479,0,1683969422.132479
-0.91639495,0.49252874,0.76138586,0.8918633,0.9757045,1.3567317,-4.830243,6.564147,5.460479,0,1683969422.153045
-0.8432809,0.50027305,0.71626127,0.8918633,0.9757045,1.3567317,-4.830243,6.564147,5.460479,0,1683969422.1735573
-0.8432809,0.50027305,0.71626127,0.8918633,0.9757045,1.3567317,-4.803037,6.661391,5.3658953,0,1683969422.1787045
-0.8432809,0.50027305,0.71626127,0.91904676,1.0302242,1.4482088,-4.803037,6.661391,5.3658953,0,1683969422.1941328
-0.8432809,0.50027305,0.71626127,0.88086766,1.1763737,1.5228871,-4.803037,6.661391,5.3658953,0,1683969422.2197998
-0.8432809,0.50027305,0.71626127,0.88086766,1.1763737,1.5228871,-4.7542124,6.81399,5.215661,0,1683969422.2249482
-0.76114196,0.49978524,0.6543065,0.88086766,1.1763737,1.5228871,-4.7542124,6.81399,5.215661,0,1683969422.230088
-0.76114196,0.49978524,0.6543065,0.88086766,1.1763737,1.5228871,-4.7212605,6.9146895,5.1120324,0,1683969422.250612
-0.76114196,0.49978524,0.6543065,0.7654142,1.351234,1.575116,-4.7212605,6.9146895,5.1120324,0,1683969422.260899
-0.6896744,0.49283364,0.57436275,0.7654142,1.351234,1.575116,-4.7212605,6.9146895,5.1120324,0,1683969422.2660465
-0.6896744,0.49283364,0.57436275,0.6592763,1.457219,1.6019942,-4.7212605,6.9146895,5.1120324,0,1683969422.2763267
-0.64528155,0.48454046,0.52234757,0.6592763,1.457219,1.6019942,-4.7212605,6.9146895,5.1120324,0,1683969422.2866135
0.0102445,0.41807315,0.28806558,0.6592763,1.457219,1.6019942,-4.7212605,6.9146895,5.1120324,0,1683969422.3020365
0.0102445,0.41807315,0.28806558,0.6592763,1.457219,1.6019942,-2.2695296,8.557029,4.2264185,0,1683969422.3071804
0.0102445,0.41807315,0.28806558,-1.690875,1.3164146,2.2908974,-2.2695296,8.557029,4.2264185,0,1683969422.3174634
0.0102445,0.41807315,0.28806558,-1.690875,1.3164146,2.2908974,-2.135968,8.53634,4.336433,0,1683969422.343096
0.0102445,0.41807315,0.28806558,-1.7664696,1.2863295,2.2624922,-2.135968,8.53634,4.336433,0,1683969422.348228
0.054210484,0.45996585,0.33465368,-1.7664696,1.2863295,2.2624922,-2.135968,8.53634,4.336433,0,1683969422.3533669
0.11640923,0.51228595,0.4133168,-1.7664696,1.2863295,2.2624922,-2.135968,8.53634,4.336433,0,1683969422.3738918
0.11640923,0.51228595,0.4133168,-1.9211712,1.3432927,2.1003075,-2.135968,8.53634,4.336433,0,1683969422.378984
0.11640923,0.51228595,0.4133168,-1.9211712,1.3432927,2.1003075,-2.00642,8.505829,4.456598,0,1683969422.3840642
0.12592198,0.5274088,0.44484302,-1.9211712,1.3432927,2.1003075,-2.00642,8.505829,4.456598,0,1683969422.4097657
0.12592198,0.5274088,0.44484302,-2.1445951,1.5468636,1.8529071,-2.00642,8.505829,4.456598,0,1683969422.414909
0.12592198,0.5274088,0.44484302,-2.1445951,1.5468636,1.8529071,-1.8445894,8.434918,4.656796,0,1683969422.420053
0.09433477,0.51905465,0.42770788,-2.1445951,1.5468636,1.8529071,-1.8445894,8.434918,4.656796,0,1683969422.445761
0.09433477,0.51905465,0.42770788,-2.1445951,1.5468636,1.8529071,-1.7674991,8.368015,4.8050385,0,1683969422.450908
0.09433477,0.51905465,0.42770788,-2.427273,1.6864462,1.6895006,-1.7674991,8.368015,4.8050385,0,1683969422.466231
0.060125455,0.5160667,0.4318545,-2.427273,1.6864462,1.6895006,-1.7674991,8.368015,4.8050385,0,1683969422.4918356
0.060125455,0.5160667,0.4318545,-2.611907,1.6003143,1.7035505,-1.7674991,8.368015,4.8050385,0,1683969422.496979
0.060125455,0.5160667,0.4318545,-2.611907,1.6003143,1.7035505,-1.7062097,8.285382,4.9676356,0,1683969422.5021186
0.060125455,0.5160667,0.4318545,-2.611907,1.6003143,1.7035505,-1.6430007,8.190302,5.1435027,0,1683969422.5225966
0.08335852,0.5551544,0.5050295,-2.611907,1.6003143,1.7035505,-1.6430007,8.190302,5.1435027,0,1683969422.5277233
0.08335852,0.5551544,0.5050295,-2.6787968,1.3388638,1.8264871,-1.6430007,8.190302,5.1435027,0,1683969422.5328424
0.17061971,0.643879,0.61668235,-2.6787968,1.3388638,1.8264871,-1.6430007,8.190302,5.1435027,0,1683969422.548214
0.17061971,0.643879,0.61668235,-2.6177104,0.9947941,1.9637791,-1.6430007,8.190302,5.1435027,0,1683969422.5635786
0.17061971,0.643879,0.61668235,-2.6177104,0.9947941,1.9637791,-1.0729885,6.730527,7.0558352,0,1683969422.594348
0.17061971,0.643879,0.61668235,-0.77396625,1.0361801,0.11010846,-1.0729885,6.730527,7.0558352,0,1683969422.5994792
0.44490403,1.3062958,1.2392796,-0.77396625,1.0361801,0.11010846,-1.0729885,6.730527,7.0558352,0,1683969422.6046202
0.44490403,1.3062958,1.2392796,-0.78022766,1.108415,0.07788532,-1.0729885,6.730527,7.0558352,0,1683969422.6251833
0.44392833,1.3058689,1.2426335,-0.78022766,1.108415,0.07788532,-1.0729885,6.730527,7.0558352,0,1683969422.6303284
0.44392833,1.3058689,1.2426335,-0.78022766,1.108415,0.07788532,-1.1247332,6.683446,7.0924344,0,1683969422.640606
0.45752668,1.3126985,1.2485484,-0.78022766,1.108415,0.07788532,-1.1247332,6.683446,7.0924344,0,1683969422.6508932
0.45752668,1.3126985,1.2485484,-0.78022766,1.108415,0.07788532,-1.185247,6.6361427,7.126915,0,1683969422.666206
0.45752668,1.3126985,1.2485484,-0.7113526,1.1749994,-0.007330383,-1.185247,6.6361427,7.126915,0,1683969422.676411
0.4622221,1.3120888,1.2185466,-0.7113526,1.1749994,-0.007330383,-1.185247,6.6361427,7.126915,0,1683969422.6866996
0.4622221,1.3120888,1.2185466,-0.50518554,1.0937542,-0.14004086,-1.185247,6.6361427,7.126915,0,1683969422.6918423
0.4622221,1.3120888,1.2185466,-0.50518554,1.0937542,-0.14004086,-1.2527732,6.5929103,7.1554317,0,1683969422.6969879
0.45033115,1.3031858,1.1811665,-0.50518554,1.0937542,-0.14004086,-1.2527732,6.5929103,7.1554317,0,1683969422.7225873
0.45033115,1.3031858,1.1811665,-0.19608775,0.82436264,-0.28328875,-1.2527732,6.5929103,7.1554317,0,1683969422.7328799
0.45033115,1.3031858,1.1811665,-0.19608775,0.82436264,-0.28328875,-1.3553196,6.54727,7.1786137,0,1683969422.743177
0.45033115,1.3031858,1.1811665,0.07223482,0.57543504,-0.40515637,-1.3553196,6.54727,7.1786137,0,1683969422.7534738
0.4291104,1.2643421,1.1579335,0.07223482,0.57543504,-0.40515637,-1.3553196,6.54727,7.1786137,0,1683969422.7689047
0.4291104,1.2643421,1.1579335,0.07223482,0.57543504,-0.40515637,-1.4151376,6.5351963,7.1780715,0,1683969422.784279
0.4291104,1.2643421,1.1579335,0.3303254,0.3585779,-0.5123632,-1.4151376,6.5351963,7.1780715,0,1683969422.7996593
0.4291104,1.2643421,1.1579335,0.3303254,0.3585779,-0.5123632,-1.4660429,6.538733,7.1646223,0,1683969422.8048043
0.40880433,1.2143391,1.1404933,0.3303254,0.3585779,-0.5123632,-1.4660429,6.538733,7.1646223,0,1683969422.8151052
0.40880433,1.2143391,1.1404933,0.58108556,0.18081611,-0.6247624,-1.4660429,6.538733,7.1646223,0,1683969422.8253946
0.3764244,1.1512867,1.1167725,0.58108556,0.18081611,-0.6247624,-1.4660429,6.538733,7.1646223,0,1683969422.8356786
0.3764244,1.1512867,1.1167725,0.58108556,0.18081611,-0.6247624,-1.5293258,6.570198,7.1224833,0,1683969422.840825
-0.18019344,0.34117845,0.3041031,0.58108556,0.18081611,-0.6247624,-2.8295076,8.050965,4.838591,0,1683969422.8563144
-0.2455631,0.33758068,0.2935537,1.0312933,-2.0097466,-1.9023871,-3.0152268,8.087605,4.662099,0,1683969422.8616567
-0.25806385,0.34489816,0.32538486,1.0312933,-2.0097466,-1.9023871,-3.0152268,8.087605,4.662099,0,1683969422.871936
-0.25806385,0.34489816,0.32538486,1.0312933,-2.0097466,-1.9023871,-3.074856,8.073851,4.6469684,0,1683969422.877075
-0.25806385,0.34489816,0.32538486,0.7643451,-1.9034561,-1.8361082,-3.074856,8.073851,4.6469684,0,1683969422.8976007
-0.26001516,0.36642382,0.37861964,0.7643451,-1.9034561,-1.8361082,-3.074856,8.073851,4.6469684,0,1683969422.9078972
-0.26001516,0.36642382,0.37861964,0.7643451,-1.9034561,-1.8361082,-3.132786,8.049916,4.6497974,0,1683969422.9181774
-0.26001516,0.36642382,0.37861964,0.5881105,-1.8248072,-1.7631098,-3.132786,8.049916,4.6497974,0,1683969422.9232924
-0.2628202,0.39508402,0.41532913,0.5881105,-1.8248072,-1.7631098,-3.132786,8.049916,4.6497974,0,1683969422.93872
-0.2628202,0.39508402,0.41532913,0.5881105,-1.8248072,-1.7631098,-3.1875284,8.019737,4.664717,0,1683969422.959323
-0.2628202,0.39508402,0.41532913,0.5149594,-1.762499,-1.7150042,-3.1875284,8.019737,4.664717,0,1683969422.9696095
-0.25995418,0.43289113,0.41813415,0.5149594,-1.762499,-1.7150042,-3.1875284,8.019737,4.664717,0,1683969422.9901688
-0.25995418,0.43289113,0.41813415,0.5149594,-1.762499,-1.7150042,-3.2657397,7.971555,4.69312,0,1683969422.9952672
-0.25995418,0.43289113,0.41813415,0.5122105,-1.7281377,-1.7017179,-3.2657397,7.971555,4.69312,0,1683969423.0004106
-0.9085896,0.8474275,1.1459814,0.5122105,-1.7281377,-1.7017179,-3.2657397,7.971555,4.69312,0,1683969423.005551
-0.9085896,0.8474275,1.1459814,0.5122105,-1.7281377,-1.7017179,-3.7121618,6.49067,6.3503666,0,1683969423.015824
-0.9085896,0.8474275,1.1459814,0.5122105,-1.7281377,-1.7017179,-3.7237463,6.4279737,6.407103,0,1683969423.0465863
-0.9085896,0.8474275,1.1459814,-0.4989242,-0.5729916,-0.6553057,-3.7237463,6.4279737,6.407103,0,1683969423.0517192
-0.9445673,0.8382807,1.1864717,-0.4989242,-0.5729916,-0.6553057,-3.7237463,6.4279737,6.407103,0,1683969423.0568607
-0.9445673,0.8382807,1.1864717,-0.4989242,-0.5729916,-0.6553057,-3.7321563,6.3767595,6.4532213,0,1683969423.067144
-0.98981386,0.8127304,1.2269619,-0.4989242,-0.5729916,-0.6553057,-3.7321563,6.3767595,6.4532213,0,1683969423.072287
-0.98981386,0.8127304,1.2269619,-0.26389378,-0.5004513,-0.50671273,-3.7321563,6.3767595,6.4532213,0,1683969423.087716
-0.98981386,0.8127304,1.2269619,-0.16401732,-0.35811976,-0.3848451,-3.7321563,6.3767595,6.4532213,0,1683969423.1134188
-0.98981386,0.8127304,1.2269619,-0.16401732,-0.35811976,-0.3848451,-3.7402365,6.32185,6.502381,0,1683969423.1236894
-1.0106688,0.807974,1.2719035,-0.16401732,-0.35811976,-0.3848451,-3.7402365,6.32185,6.502381,0,1683969423.13397
-0.9966435,0.8047421,1.2889166,-0.16401732,-0.35811976,-0.3848451,-3.7402365,6.32185,6.502381,0,1683969423.1545484
-0.9966435,0.8047421,1.2889166,-0.16401732,-0.35811976,-0.3848451,-3.747652,6.2966847,6.5224977,0,1683969423.1596904
-0.9966435,0.8047421,1.2889166,-0.11148291,-0.10170906,-0.24556783,-3.747652,6.2966847,6.5224977,0,1683969423.1648128
-0.98761857,0.790351,1.3223943,-0.11148291,-0.10170906,-0.24556783,-3.747652,6.2966847,6.5224977,0,1683969423.1854005
-0.98761857,0.790351,1.3223943,-0.071776666,0.13698652,-0.16707164,-3.747652,6.2966847,6.5224977,0,1683969423.1956854
-0.98761857,0.790351,1.3223943,-0.071776666,0.13698652,-0.16707164,-3.7613347,6.2773466,6.533253,0,1683969423.2008271
-0.98761857,0.790351,1.3223943,-0.00015271631,0.39080104,-0.0983493,-3.7613347,6.2773466,6.533253,0,1683969423.221393
-0.98780155,0.7555929,1.3442857,-0.00015271631,0.39080104,-0.0983493,-3.7613347,6.2773466,6.533253,0,1683969423.2316763
-0.98780155,0.7555929,1.3442857,-0.00015271631,0.39080104,-0.0983493,-3.7844877,6.2628665,6.5337796,0,1683969423.2419536
-0.98780155,0.7555929,1.3442857,0.1516473,0.6956228,0.008399397,-3.7844877,6.2628665,6.5337796,0,1683969423.252231
-0.98780155,0.7555929,1.3442857,0.1516473,0.6956228,0.008399397,-3.8398662,6.2542744,6.509654,0,1683969423.2573164
-1.0124371,0.6911379,1.3297727,0.1516473,0.6956228,0.008399397,-3.8398662,6.2542744,6.509654,0,1683969423.267615
-0.336544,0.447892,0.34941062,0.1516473,0.6956228,0.008399397,-3.8398662,6.2542744,6.509654,0,1683969423.277906
-0.336544,0.447892,0.34941062,0.33261612,1.4556919,1.8527542,-3.8398662,6.2542744,6.509654,0,1683969423.293325
-0.336544,0.447892,0.34941062,0.33261612,1.4556919,1.8527542,-3.9359043,7.7155356,4.606004,0,1683969423.3036158
-0.336544,0.447892,0.34941062,0.30085114,1.45783,1.828167,-3.9359043,7.7155356,4.606004,0,1683969423.3138993
-0.336544,0.447892,0.34941062,0.30085114,1.45783,1.828167,-3.8688898,7.7920856,4.533344,0,1683969423.3190403
-0.3100181,0.4551485,0.32916555,0.30085114,1.45783,1.828167,-3.8688898,7.7920856,4.533344,0,1683969423.339614
-0.30953026,0.44618458,0.27306473,0.30085114,1.45783,1.828167,-3.8688898,7.7920856,4.533344,0,1683969423.3550398
-0.30953026,0.44618458,0.27306473,0.18936823,1.5059355,1.7832683,-3.8688898,7.7920856,4.533344,0,1683969423.3601847
-0.30953026,0.44618458,0.27306473,0.18936823,1.5059355,1.7832683,-3.8027961,7.8646703,4.4633856,0,1683969423.370475
-0.32434818,0.43630594,0.24007498,0.18936823,1.5059355,1.7832683,-3.8027961,7.8646703,4.4633856,0,1683969423.3910356
-0.32434818,0.43630594,0.24007498,0.041996986,1.5465581,1.7970128,-3.8027961,7.8646703,4.4633856,0,1683969423.3961813
-0.32434818,0.43630594,0.24007498,0.041996986,1.5465581,1.7970128,-3.7392993,7.9312234,4.3988028,0,1683969423.411608
-0.32434818,0.43630594,0.24007498,0.041996986,1.5465581,1.7970128,-3.6402807,8.019743,4.320672,0,1683969423.4270241
-0.3134939,0.4416111,0.22556195,0.041996986,1.5465581,1.7970128,-3.6402807,8.019743,4.320672,0,1683969423.4321752
-0.3134939,0.4416111,0.22556195,-0.17088956,1.5636623,1.9017762,-3.6402807,8.019743,4.320672,0,1683969423.4373143
-0.2769064,0.4586853,0.22818404,-0.17088956,1.5636623,1.9017762,-3.6402807,8.019743,4.320672,0,1683969423.4578767
-0.2769064,0.4586853,0.22818404,-0.29275718,1.5520558,1.9792033,-3.6402807,8.019743,4.320672,0,1683969423.478442
-0.2769064,0.4586853,0.22818404,-0.29275718,1.5520558,1.9792033,-3.6028452,8.04709,4.3011584,0,1683969423.4835923
-0.18830366,0.49240676,0.2523318,-0.29275718,1.5520558,1.9792033,-3.6028452,8.04709,4.3011584,0,1683969423.4938722
-0.18830366,0.49240676,0.2523318,-0.29275718,1.5520558,1.9792033,-3.5194829,8.099079,4.2725015,0,1683969423.5041142
-0.18830366,0.49240676,0.2523318,-0.44257188,1.509448,2.045635,-3.5194829,8.099079,4.2725015,0,1683969423.5092616
-0.18830366,0.49240676,0.2523318,-0.44257188,1.509448,2.045635,-3.3783014,8.169817,4.25174,0,1683969423.5400963
-0.18830366,0.49240676,0.2523318,-0.505491,1.4399621,2.0005836,-3.3783014,8.169817,4.25174,0,1683969423.5503778
0.07476046,0.63601273,0.5192986,-0.505491,1.4399621,2.0005836,-3.3783014,8.169817,4.25174,0,1683969423.560665
0.07476046,0.63601273,0.5192986,-0.505491,1.4399621,2.0005836,-1.6369085,8.1463785,5.2147055,0,1683969423.5658073
0.07476046,0.63601273,0.5192986,-1.2560917,1.1294898,1.0621419,-1.6369085,8.1463785,5.2147055,0,1683969423.576086
0.07476046,0.63601273,0.5192986,-1.2560917,1.1294898,1.0621419,-1.5995296,8.073487,5.3382053,0,1683969423.5914974
0.07476046,0.63601273,0.5192986,-1.4982997,1.3190107,1.0170907,-1.5995296,8.073487,5.3382053,0,1683969423.6119046
-0.031892106,0.585522,0.44472107,-1.4982997,1.3190107,1.0170907,-1.5995296,8.073487,5.3382053,0,1683969423.6170132
-0.031892106,0.585522,0.44472107,-1.7629571,1.3200798,1.1705705,-1.5995296,8.073487,5.3382053,0,1683969423.647604
-0.050246835,0.5800948,0.42045137,-1.7629571,1.3200798,1.1705705,-1.5995296,8.073487,5.3382053,0,1683969423.6527493
-0.050246835,0.5800948,0.42045137,-1.7629571,1.3200798,1.1705705,-1.5855694,8.011243,5.4352636,0,1683969423.6578934
-0.050246835,0.5800948,0.42045137,-1.8710803,1.1724031,1.3206906,-1.5855694,8.011243,5.4352636,0,1683969423.6784694
-0.050246835,0.5800948,0.42045137,-1.8710803,1.1724031,1.3206906,-1.5614446,7.9400463,5.5455995,0,1683969423.6836243
0.023476979,0.6249755,0.46673456,-1.8710803,1.1724031,1.3206906,-1.5614446,7.9400463,5.5455995,0,1683969423.6887705
0.1348859,0.705529,0.5582033,-1.8710803,1.1724031,1.3206906,-1.5614446,7.9400463,5.5455995,0,1683969423.699048
0.1348859,0.705529,0.5582033,-1.8710803,1.1724031,1.3206906,-1.5190152,7.8639183,5.664584,0,1683969423.7093
0.1348859,0.705529,0.5582033,-1.8535179,0.98990715,1.3912456,-1.5190152,7.8639183,5.664584,0,1683969423.7143936
0.24812423,0.8243164,0.65637976,-1.8535179,0.98990715,1.3912456,-1.5190152,7.8639183,5.664584,0,1683969423.7400942
0.24812423,0.8243164,0.65637976,-1.7270688,0.8323039,1.3243558,-1.5190152,7.8639183,5.664584,0,1683969423.7452435
0.24812423,0.8243164,0.65637976,-1.7270688,0.8323039,1.3243558,-1.4328301,7.749985,5.841306,0,1683969423.7503932
0.24812423,0.8243164,0.65637976,-1.6852245,0.8539896,1.1305588,-1.4328301,7.749985,5.841306,0,1683969423.7606845
0.32197002,0.89188135,0.68467414,-1.6852245,0.8539896,1.1305588,-1.4328301,7.749985,5.841306,0,1683969423.7658305
0.32197002,0.89188135,0.68467414,-1.6852245,0.8539896,1.1305588,-1.3786998,7.675764,5.951298,0,1683969423.7709744
0.3217261,0.9427989,0.7058948,-1.6852245,0.8539896,1.1305588,-1.3786998,7.675764,5.951298,0,1683969423.7863972
0.3217261,0.9427989,0.7058948,-1.8225164,1.052979,0.82986045,-1.3786998,7.675764,5.951298,0,1683969423.801821
0.3217261,0.9427989,0.7058948,-1.8225164,1.052979,0.82986045,-1.3446506,7.596945,6.059245,0,1683969423.8069646
0.3217261,0.9427989,0.7058948,-2.042886,1.2825116,0.6275113,-1.3446506,7.596945,6.059245,0,1683969423.8172505
0.3217261,0.9427989,0.7058948,-2.042886,1.2825116,0.6275113,-1.3387446,7.5057898,6.173087,0,1683969423.8223937
0.3217261,0.9427989,0.7058948,-0.68203104,0.1965459,-0.052534413,-1.3387446,7.5057898,6.173087,0,1683969423.8378248
0.48423555,1.3120888,1.4380107,-0.68203104,0.1965459,-0.052534413,-1.3387446,7.5057898,6.173087,0,1683969423.8429673
0.48423555,1.3120888,1.4380107,-0.68203104,0.1965459,-0.052534413,-1.6462957,6.2739716,7.359558,0,1683969423.8481078
0.44923353,1.2915998,1.4209366,-0.68203104,0.1965459,-0.052534413,-1.6462957,6.2739716,7.359558,0,1683969423.8635113
0.44923353,1.2915998,1.4209366,-0.47876564,0.21471913,-0.20525073,-1.6462957,6.2739716,7.359558,0,1683969423.873786
0.44923353,1.2915998,1.4209366,-0.47876564,0.21471913,-0.20525073,-1.6527377,6.2302694,7.3951545,0,1683969423.8789253
0.44923353,1.2915998,1.4209366,-0.47876564,0.21471913,-0.20525073,-1.6823846,6.183807,7.427397,0,1683969423.9096797
0.39233997,1.250256,1.4061795,-0.47876564,0.21471913,-0.20525073,-1.6823846,6.183807,7.427397,0,1683969423.9148223
0.39233997,1.250256,1.4061795,-0.30298916,0.2941316,-0.33628133,-1.6823846,6.183807,7.427397,0,1683969423.9250944
0.39233997,1.250256,1.4061795,-0.30298916,0.2941316,-0.33628133,-1.6973048,6.17217,7.433679,0,1683969423.9302366
0.36947277,1.2197053,1.3978864,-0.30298916,0.2941316,-0.33628133,-1.6973048,6.17217,7.433679,0,1683969423.9456277
0.36947277,1.2197053,1.3978864,-0.19486602,0.3315471,-0.39080104,-1.6973048,6.17217,7.433679,0,1683969423.961046
0.3459348,1.1846423,1.3629454,-0.19486602,0.3315471,-0.39080104,-1.6973048,6.17217,7.433679,0,1683969423.9661787
0.3459348,1.1846423,1.3629454,-0.19486602,0.3315471,-0.39080104,-1.7517859,6.1512876,7.438348,0,1683969423.976414
0.3459348,1.1846423,1.3629454,0.03359759,0.34284812,-0.4700608,-1.7517859,6.1512876,7.438348,0,1683969423.986689
0.32995826,1.1610433,1.2898313,0.03359759,0.34284812,-0.4700608,-1.7517859,6.1512876,7.438348,0,1683969424.0123246
0.32995826,1.1610433,1.2898313,0.03359759,0.34284812,-0.4700608,-1.7719095,6.1500063,7.43464,0,1683969424.0174646
0.32995826,1.1610433,1.2898313,0.2947425,0.25121832,-0.5656612,-1.7719095,6.1500063,7.43464,0,1683969424.0277374
0.30513975,1.1249437,1.235072,0.2947425,0.25121832,-0.5656612,-1.7719095,6.1500063,7.43464,0,1683969424.0482233
0.30513975,1.1249437,1.235072,0.5908594,0.022296581,-0.67149365,-1.7719095,6.1500063,7.43464,0,1683969424.06362
0.30513975,1.1249437,1.235072,0.5908594,0.022296581,-0.67149365,-1.8472036,6.1780176,7.3929734,0,1683969424.0687637
0.27129632,1.0796971,1.2034848,0.5908594,0.022296581,-0.67149365,-1.8472036,6.1780176,7.3929734,0,1683969424.0893028
0.27129632,1.0796971,1.2034848,0.5908594,0.022296581,-0.67149365,-1.861723,6.193821,7.376088,0,1683969424.0943992
0.27129632,1.0796971,1.2034848,0.84528476,-0.19211712,-0.7629707,-1.861723,6.193821,7.376088,0,1683969424.1046128
-0.06274756,0.5149081,0.46411243,0.84528476,-0.19211712,-0.7629707,-1.861723,6.193821,7.376088,0,1683969424.1148925
-0.06274756,0.5149081,0.46411243,1.8658879,-1.2197452,-1.8501581,-1.861723,6.193821,7.376088,0,1683969424.12004
-0.06274756,0.5149081,0.46411243,1.8658879,-1.2197452,-1.8501581,-2.5781784,7.479246,5.80086,0,1683969424.1251805
-0.06274756,0.5149081,0.46411243,1.7463111,-1.2551754,-1.9019289,-2.5781784,7.479246,5.80086,0,1683969424.1560178
-0.11250656,0.47100312,0.4145364,1.7463111,-1.2551754,-1.9019289,-2.5781784,7.479246,5.80086,0,1683969424.1611676
-0.11250656,0.47100312,0.4145364,1.7463111,-1.2551754,-1.9019289,-2.6377752,7.5306435,5.706809,0,1683969424.1714435
-0.13769096,0.44520888,0.39410836,1.7463111,-1.2551754,-1.9019289,-2.6377752,7.5306435,5.706809,0,1683969424.1920176
-0.13769096,0.44520888,0.39410836,1.7463111,-1.2551754,-1.9019289,-2.7012706,7.572911,5.6205225,0,1683969424.207436
-0.13769096,0.44520888,0.39410836,1.6142114,-1.2918273,-1.9025398,-2.7012706,7.572911,5.6205225,0,1683969424.2125852
-0.13964228,0.42728102,0.3975232,1.6142114,-1.2918273,-1.9025398,-2.7012706,7.572911,5.6205225,0,1683969424.233133
-0.13964228,0.42728102,0.3975232,1.4340062,-1.3165673,-1.8765781,-2.7012706,7.572911,5.6205225,0,1683969424.2382808
-0.13964228,0.42728102,0.3975232,1.4340062,-1.3165673,-1.8765781,-2.7968595,7.618708,5.5108047,0,1683969424.2434163
-0.13964228,0.42728102,0.3975232,1.3063353,-1.3051136,-1.8614591,-2.7968595,7.618708,5.5108047,0,1683969424.269114
-0.13964228,0.42728102,0.3975232,1.3063353,-1.3051136,-1.8614591,-2.8596153,7.638224,5.4512615,0,1683969424.2742574
-0.13732508,0.42398816,0.4072189,1.3063353,-1.3051136,-1.8614591,-2.8596153,7.638224,5.4512615,0,1683969424.2845047
-0.13732508,0.42398816,0.4072189,1.3063353,-1.3051136,-1.8614591,-2.9234378,7.6499705,5.400702,0,1683969424.3050735
-0.13732508,0.42398816,0.4072189,1.1997393,-1.2728904,-1.8756617,-2.9234378,7.6499705,5.400702,0,1683969424.3102195
-0.13250773,0.424476,0.41648772,1.1997393,-1.2728904,-1.8756617,-2.9234378,7.6499705,5.400702,0,1683969424.320467
-0.13250773,0.424476,0.41648772,1.099252,-1.2136365,-1.9191859,-2.9234378,7.6499705,5.400702,0,1683969424.3307555
-0.16269243,0.41520718,0.41051176,1.099252,-1.2136365,-1.9191859,-2.9234378,7.6499705,5.400702,0,1683969424.3359077
-0.16269243,0.41520718,0.41051176,1.099252,-1.2136365,-1.9191859,-2.9916801,7.654507,5.3567233,0,1683969424.346185
-0.19714566,0.39325467,0.38855925,1.099252,-1.2136365,-1.9191859,-2.9916801,7.654507,5.3567233,0,1683969424.3718631
-0.19714566,0.39325467,0.38855925,1.0355693,-1.1823297,-1.9478966,-2.9916801,7.654507,5.3567233,0,1683969424.3770068
-0.6476597,0.4078287,0.8144987,1.0355693,-1.1823297,-1.9478966,-2.9916801,7.654507,5.3567233,0,1683969424.4078293
-0.6476597,0.4078287,0.8144987,1.0355693,-1.1823297,-1.9478966,-3.872361,6.037274,6.6927013,0,1683969424.4129653
-0.6476597,0.4078287,0.8144987,-1.1297953,-1.5169312,-1.2362386,-3.872361,6.037274,6.6927013,0,1683969424.4181085
-0.6476597,0.4078287,0.8144987,-1.1297953,-1.5169312,-1.2362386,-3.8511512,5.9197845,6.8088837,0,1683969424.4437315
-0.66967326,0.4561242,0.9202976,-1.1297953,-1.5169312,-1.2362386,-3.8511512,5.9197845,6.8088837,0,1683969424.4488783
-0.66967326,0.4561242,0.9202976,-1.106277,-1.4538593,-1.1632402,-3.8511512,5.9197845,6.8088837,0,1683969424.45401
-0.66967326,0.4561242,0.9202976,-1.0102184,-1.3718506,-1.1155926,-3.8511512,5.9197845,6.8088837,0,1683969424.4745846
-0.66967326,0.4561242,0.9202976,-1.0102184,-1.3718506,-1.1155926,-3.8145652,5.7504873,6.9725966,0,1683969424.4848716
-0.7134563,0.5096029,1.009998,-1.0102184,-1.3718506,-1.1155926,-3.8145652,5.7504873,6.9725966,0,1683969424.4900148
-0.76272744,0.5556422,1.0521955,-1.0102184,-1.3718506,-1.1155926,-3.8145652,5.7504873,6.9725966,0,1683969424.5105946
-0.76272744,0.5556422,1.0521955,-0.91415983,-1.2825116,-1.0800097,-3.8145652,5.7504873,6.9725966,0,1683969424.5208387
-0.76272744,0.5556422,1.0521955,-0.91415983,-1.2825116,-1.0800097,-3.7901933,5.645672,7.070851,0,1683969424.5259833
-0.81754774,0.6033889,1.0590253,-0.8538369,-1.1985176,-1.0398453,-3.7682645,5.54749,7.1597233,0,1683969424.5312395
-0.9473723,0.69174767,1.1998872,-0.82253003,-1.1586586,-0.9825767,-3.724183,5.3634663,7.321189,0,1683969424.5364466
-0.9473723,0.69174767,1.1998872,-0.79045963,-1.0893254,-0.90576047,-3.724183,5.3634663,7.321189,0,1683969424.541569
-0.9473723,0.69174767,1.1998872,-0.74174315,-0.9560041,-0.817185,-3.724183,5.3634663,7.321189,0,1683969424.546713
-1.0159739,0.6950405,1.3408709,-0.74174315,-0.9560041,-0.817185,-3.724183,5.3634663,7.321189,0,1683969424.5621226
-0.47075918,0.35026434,0.4679541,-0.74174315,-0.9560041,-0.817185,-3.724183,5.3634663,7.321189,0,1683969424.582621
-0.47075918,0.35026434,0.4679541,0.6079636,1.701107,1.5615243,-3.724183,5.3634663,7.321189,0,1683969424.5877626
-0.47075918,0.35026434,0.4679541,0.6079636,1.701107,1.5615243,-4.510378,6.460011,5.844728,0,1683969424.5929048
-0.4159389,0.3653262,0.45325816,0.6079636,1.701107,1.5615243,-4.510378,6.460011,5.844728,0,1683969424.6288474
-0.4159389,0.3653262,0.45325816,0.51923543,1.7446312,1.5937474,-4.510378,6.460011,5.844728,0,1683969424.633989
-0.4159389,0.3653262,0.45325816,0.51923543,1.7446312,1.5937474,-4.5114594,6.5511518,5.741539,0,1683969424.6391351
-0.377583,0.37691224,0.42148802,0.51923543,1.7446312,1.5937474,-4.5114594,6.5511518,5.741539,0,1683969424.6494195
-0.377583,0.37691224,0.42148802,0.51923543,1.7446312,1.5937474,-4.508218,6.6820626,5.591256,0,1683969424.6647878
-0.377583,0.37691224,0.42148802,0.42439863,1.807703,1.5917621,-4.508218,6.6820626,5.591256,0,1683969424.6801717
-0.377583,0.37691224,0.42148802,0.42439863,1.807703,1.5917621,-4.5053897,6.76436,5.4937253,0,1683969424.6956031
-0.3523986,0.3802661,0.3901447,0.42439863,1.807703,1.5917621,-4.5053897,6.76436,5.4937253,0,1683969424.7058847
-0.3523986,0.3802661,0.3901447,0.3397938,1.847562,1.5824465,-4.5053897,6.76436,5.4937253,0,1683969424.7161403
-0.3523986,0.3802661,0.3901447,0.236863,1.866346,1.5622878,-4.5053897,6.76436,5.4937253,0,1683969424.7315161
-0.33209255,0.37679026,0.35538658,0.236863,1.866346,1.5622878,-4.5053897,6.76436,5.4937253,0,1683969424.7418075
-0.33209255,0.37679026,0.35538658,0.236863,1.866346,1.5622878,-4.501627,6.842093,5.3997436,0,1683969424.7520943
-0.32886064,0.3635578,0.32105532,0.236863,1.866346,1.5622878,-4.501627,6.842093,5.3997436,0,1683969424.7571929
-0.32886064,0.3635578,0.32105532,0.14859296,1.8901697,1.5494597,-4.501627,6.842093,5.3997436,0,1683969424.7777495
-0.32886064,0.3635578,0.32105532,0.14859296,1.8901697,1.5494597,-4.4974833,6.9148026,5.3098273,0,1683969424.782892
-0.32886064,0.3635578,0.32105532,0.033444874,1.8843665,1.5525141,-4.4974833,6.9148026,5.3098273,0,1683969424.8034523
-0.32886064,0.3635578,0.32105532,0.033444874,1.8843665,1.5525141,-4.49308,6.9827733,5.2239084,0,1683969424.818871
-0.31867713,0.35081315,0.27660152,0.033444874,1.8843665,1.5525141,-4.49308,6.9827733,5.2239084,0,1683969424.8240151
-0.31867713,0.35081315,0.27660152,-0.0571159,1.8553505,1.5593863,-4.49308,6.9827733,5.2239084,0,1683969424.834291
-0.31867713,0.35081315,0.27660152,-0.0571159,1.8553505,1.5593863,-4.4818535,7.076883,5.1055684,0,1683969424.8496988
-0.31867713,0.35081315,0.27660152,-0.0571159,1.8553505,1.5593863,-3.4777796,7.030944,5.8912635,0,1683969424.8548765
-0.2541002,0.49887055,0.6843082,-0.0571159,1.8553505,1.5593863,-3.4777796,7.030944,5.8912635,0,1683969424.8548849
-0.2541002,0.49887055,0.6843082,-0.0571159,1.8553505,1.5593863,-3.4289591,6.9406576,6.025415,0,1683969424.8600087
-0.2541002,0.49887055,0.6843082,-2.4405594,0.9437868,1.4442382,-3.4289591,6.9406576,6.025415,0,1683969424.8651142
-0.077809416,0.6600385,0.822487,-2.4405594,0.9437868,1.4442382,-3.4289591,6.9406576,6.025415,0,1683969424.875353
0.0033538544,0.74705577,0.85517186,-2.4405594,0.9437868,1.4442382,-3.4289591,6.9406576,6.025415,0,1683969424.8907723
0.0033538544,0.74705577,0.85517186,-2.39337,0.9964739,1.3234396,-3.4289591,6.9406576,6.025415,0,1683969424.9010592
0.0033538544,0.74705577,0.85517186,-2.39337,0.9964739,1.3234396,-3.384731,6.8494186,6.1534667,0,1683969424.9164453
0.0033538544,0.74705577,0.85517186,-2.2883012,1.0181596,1.0250319,-3.384731,6.8494186,6.1534667,0,1683969424.9318602
0.0033538544,0.74705577,0.85517186,-2.2883012,1.0181596,1.0250319,-3.355857,6.7549396,6.272569,0,1683969424.9421244
0.03445323,0.82748735,0.8570622,-2.2883012,1.0181596,1.0250319,-3.355857,6.7549396,6.272569,0,1683969424.9471831
0.03445323,0.82748735,0.8570622,-2.2883012,1.0181596,1.0250319,-3.3439245,6.65602,6.383703,0,1683969424.9728773
0.03445323,0.82748735,0.8570622,-2.201253,0.91599244,0.7796168,-3.3439245,6.65602,6.383703,0,1683969424.9780185
-0.028233355,0.82669455,0.8218162,-2.201253,0.91599244,0.7796168,-3.3439245,6.65602,6.383703,0,1683969424.9831672
-0.028233355,0.82669455,0.8218162,-2.201253,0.91599244,0.7796168,-3.3399298,6.50087,6.543675,0,1683969425.0037289
-0.095615335,0.81053513,0.8253531,-2.201253,0.91599244,0.7796168,-3.3399298,6.50087,6.543675,0,1683969425.0139787
-0.095615335,0.81053513,0.8253531,-2.1481075,0.68554354,0.7480045,-3.3399298,6.50087,6.543675,0,1683969425.0190823
-0.10342067,0.83754885,0.9274322,-2.1481075,0.68554354,0.7480045,-3.3399298,6.50087,6.543675,0,1683969425.0292864
-0.10342067,0.83754885,0.9274322,-2.045635,0.31612277,0.906524,-3.3399298,6.50087,6.543675,0,1683969425.0446477
-0.10342067,0.83754885,0.9274322,-2.045635,0.31612277,0.906524,-3.3224828,6.3987026,6.6523547,0,1683969425.049784
-0.051771317,0.90737003,1.0418291,-2.045635,0.31612277,0.906524,-3.3224828,6.3987026,6.6523547,0,1683969425.0652246
-0.051771317,0.90737003,1.0418291,-2.045635,0.31612277,0.906524,-3.280353,6.3037186,6.763026,0,1683969425.0806417
0.022257395,1.0004852,1.16208,-1.898111,0.056505036,1.0512991,-3.280353,6.3037186,6.763026,0,1683969425.0909662
0.022257395,1.0004852,1.16208,-1.7128662,-0.10751228,1.1435398,-3.280353,6.3037186,6.763026,0,1683969425.0961041
0.022257395,1.0004852,1.16208,-0.25030205,0.33078352,0.11881329,-3.280353,6.3037186,6.763026,0,1683969425.1063774
0.022257395,1.0004852,1.16208,-0.25030205,0.33078352,0.11881329,-2.8218524,5.8148417,7.379761,0,1683969425.1217942
0.26416174,1.2541586,1.3748974,-0.25030205,0.33078352,0.11881329,-2.8218524,5.8148417,7.379761,0,1683969425.1269283
0.25513685,1.2153147,1.3536766,-0.25030205,0.33078352,0.11881329,-2.8218524,5.8148417,7.379761,0,1683969425.1371694
0.25513685,1.2153147,1.3536766,-0.09025534,0.29856038,0.04184427,-2.8218524,5.8148417,7.379761,0,1683969425.142318
0.25513685,1.2153147,1.3536766,-0.09025534,0.29856038,0.04184427,-2.8271506,5.8053546,7.3852015,0,1683969425.1577363
0.25513685,1.2153147,1.3536766,0.16340645,0.20937407,-0.042913284,-2.8271506,5.8053546,7.3852015,0,1683969425.1937146
0.24214828,1.1798859,1.3328216,0.16340645,0.20937407,-0.042913284,-2.8271506,5.8053546,7.3852015,0,1683969425.19886
0.24214828,1.1798859,1.3328216,0.16340645,0.20937407,-0.042913284,-2.8341534,5.80475,7.3829913,0,1683969425.2040048
0.24214828,1.1798859,1.3328216,0.16340645,0.20937407,-0.042913284,-2.8417966,5.8267064,7.36273,0,1683969425.2246146
0.24214828,1.1798859,1.3328216,0.4269948,0.082161374,-0.12018774,-2.8417966,5.8267064,7.36273,0,1683969425.2348113
0.23806266,1.1429935,1.3087349,0.4269948,0.082161374,-0.12018774,-2.8417966,5.8267064,7.36273,0,1683969425.239919
0.23806266,1.1429935,1.3087349,0.729984,-0.070554934,-0.21410827,-2.8417966,5.8267064,7.36273,0,1683969425.255186
0.23806266,1.1429935,1.3087349,0.729984,-0.070554934,-0.21410827,-2.8412604,5.861103,7.3355856,0,1683969425.2603343
0.24861206,1.1114062,1.2754403,0.729984,-0.070554934,-0.21410827,-2.8412604,5.861103,7.3355856,0,1683969425.270579
0.24861206,1.1114062,1.2754403,1.1122329,-0.26832256,-0.37201694,-2.8412604,5.861103,7.3355856,0,1683969425.2859874
0.23909931,1.0660988,1.2043386,1.1122329,-0.26832256,-0.37201694,-2.8412604,5.861103,7.3355856,0,1683969425.3014185
0.23909931,1.0660988,1.2043386,1.1122329,-0.26832256,-0.37201694,-2.8359215,5.912851,7.2960157,0,1683969425.3117115
0.23909931,1.0660988,1.2043386,1.3715452,-0.41401392,-0.50640726,-2.8359215,5.912851,7.2960157,0,1683969425.332217
0.23909931,1.0660988,1.2043386,1.3715452,-0.41401392,-0.50640726,-2.827403,5.980844,7.2437153,0,1683969425.3373227
0.22111045,1.0246329,1.1432985,1.3715452,-0.41401392,-0.50640726,-2.827403,5.980844,7.2437153,0,1683969425.3475845
0.1864743,0.95493376,1.0401217,1.3715452,-0.41401392,-0.50640726,-2.827403,5.980844,7.2437153,0,1683969425.3526952
0.1864743,0.95493376,1.0401217,1.5583172,-0.56153786,-0.61315596,-2.827403,5.980844,7.2437153,0,1683969425.3629766
0.1864743,0.95493376,1.0401217,1.575116,-1.3362677,-1.8842138,-2.827403,5.980844,7.2437153,0,1683969425.3835425
0.1864743,0.95493376,1.0401217,1.575116,-1.3362677,-1.8842138,-3.6889155,7.3371544,5.36602,0,1683969425.3886878
-0.18342534,0.37368035,0.33154374,1.575116,-1.3362677,-1.8842138,-3.6889155,7.3371544,5.36602,0,1683969425.3989732
-0.18342534,0.37368035,0.33154374,1.4262177,-1.3927728,-1.915368,-3.6889155,7.3371544,5.36602,0,1683969425.4297762
-0.20171909,0.357033,0.30245668,1.4262177,-1.3927728,-1.915368,-3.6889155,7.3371544,5.36602,0,1683969425.4349024
-0.20171909,0.357033,0.30245668,1.4262177,-1.3927728,-1.915368,-3.7798183,7.3503737,5.2840424,0,1683969425.440008
-0.23416002,0.33556834,0.27422333,1.4262177,-1.3927728,-1.915368,-3.7798183,7.3503737,5.2840424,0,1683969425.4451456
-0.23416002,0.33556834,0.27422333,1.4262177,-1.3927728,-1.915368,-3.8427854,7.348035,5.241707,0,1683969425.450289
-0.23416002,0.33556834,0.27422333,1.223105,-1.4068227,-1.9420934,-3.8427854,7.348035,5.241707,0,1683969425.4708178
-0.23416002,0.33556834,0.27422333,1.052979,-1.4425583,-1.951409,-3.8427854,7.348035,5.241707,0,1683969425.4913373
-0.26330805,0.31270117,0.25867364,1.052979,-1.4425583,-1.951409,-3.8427854,7.348035,5.241707,0,1683969425.5016327
-0.26330805,0.31270117,0.25867364,1.052979,-1.4425583,-1.951409,-3.9083683,7.3351,5.211246,0,1683969425.5067768
-0.26330805,0.31270117,0.25867364,1.052979,-1.4425583,-1.951409,-3.974379,7.3116884,5.1941915,0,1683969425.5273032
-0.29989552,0.28404096,0.2614177,1.052979,-1.4425583,-1.951409,-3.974379,7.3116884,5.1941915,0,1683969425.5324218
-0.29989552,0.28404096,0.2614177,0.90133166,-1.5088371,-1.9445368,-3.974379,7.3116884,5.1941915,0,1683969425.537524
-0.29989552,0.28404096,0.2614177,0.75441855,-1.6030631,-1.8924606,-3.974379,7.3116884,5.1941915,0,1683969425.5580878
-0.29989552,0.28404096,0.2614177,0.75441855,-1.6030631,-1.8924606,-4.067842,7.2601557,5.194124,0,1683969425.56841
-0.35075217,0.25592956,0.2771503,0.75441855,-1.6030631,-1.8924606,-4.067842,7.2601557,5.194124,0,1683969425.5838406
-0.38398582,0.24037987,0.2842849,0.75441855,-1.6030631,-1.8924606,-4.067842,7.2601557,5.194124,0,1683969425.609483
-0.38398582,0.24037987,0.2842849,0.75441855,-1.6030631,-1.8924606,-4.0960755,7.240095,5.1999316,0,1683969425.6146324
-0.38398582,0.24037987,0.2842849,0.6598872,-1.666135,-1.8231273,-4.0960755,7.240095,5.1999316,0,1683969425.6197784
-0.38398582,0.24037987,0.2842849,0.56398135,-1.7168368,-1.744173,-4.0960755,7.240095,5.1999316,0,1683969425.635163
-0.39673045,0.23794071,0.2924561,0.56398135,-1.7168368,-1.744173,-4.0960755,7.240095,5.1999316,0,1683969425.6454484
-0.9210293,0.629244,1.0471952,0.56398135,-1.7168368,-1.744173,-4.0960755,7.240095,5.1999316,0,1683969425.6557386
-0.9210293,0.629244,1.0471952,-1.0112875,-1.3449726,-0.8509353,-4.0960755,7.240095,5.1999316,0,1683969425.676264
-0.9210293,0.629244,1.0471952,-1.0112875,-1.3449726,-0.8509353,-4.0277967,5.5716577,6.9978275,0,1683969425.6814067
-0.95743394,0.6582701,1.1887889,-1.0112875,-1.3449726,-0.8509353,-4.0277967,5.5716577,6.9978275,0,1683969425.7019851
-0.95743394,0.6582701,1.1887889,-1.0199922,-1.1559098,-0.80557853,-4.0277967,5.5716577,6.9978275,0,1683969425.7122767
-0.95743394,0.6582701,1.1887889,-1.0199922,-1.1559098,-0.80557853,-3.9920113,5.4723873,7.0959806,0,1683969425.7174256
-0.95743394,0.6582701,1.1887889,-0.9842566,-1.0155635,-0.7852673,-3.9920113,5.4723873,7.0959806,0,1683969425.7429829
-0.95743394,0.6582701,1.1887889,-0.9842566,-1.0155635,-0.7852673,-3.9761899,5.422635,7.142903,0,1683969425.7481065
-0.9740813,0.66186786,1.2492192,-0.9842566,-1.0155635,-0.7852673,-3.9761899,5.422635,7.142903,0,1683969425.7532284
-0.9740813,0.66186786,1.2492192,-0.8940013,-0.79611015,-0.7357872,-3.9761899,5.422635,7.142903,0,1683969425.7583811
-1.0200596,0.6540016,1.3729459,-0.8940013,-0.79611015,-0.7357872,-3.9761899,5.422635,7.142903,0,1683969425.763526
-1.0200596,0.6540016,1.3729459,-0.8940013,-0.79611015,-0.7357872,-3.942361,5.278986,7.268164,0,1683969425.7738156
-1.0200596,0.6540016,1.3729459,-0.73853606,-0.48762318,-0.6363689,-3.942361,5.278986,7.268164,0,1683969425.7995086
-1.0200596,0.6540016,1.3729459,-0.73853606,-0.48762318,-0.6363689,-3.9334955,5.192379,7.3350477,0,1683969425.8046513
-1.0642084,0.6397324,1.4540482,-0.73853606,-0.48762318,-0.6363689,-3.9334955,5.192379,7.3350477,0,1683969425.8252378
-1.0642084,0.6397324,1.4540482,-0.5487097,-0.19715676,-0.5122105,-3.9334955,5.192379,7.3350477,0,1683969425.8456957
-1.0899417,0.6310734,1.4917334,-0.5487097,-0.19715676,-0.5122105,-3.9334955,5.192379,7.3350477,0,1683969425.850802
-1.0899417,0.6310734,1.4917334,-0.5487097,-0.19715676,-0.5122105,-3.9415424,5.0840535,7.406265,0,1683969425.8610888
-1.1128088,0.6174751,1.4877697,-0.5487097,-0.19715676,-0.5122105,-3.9415424,5.0840535,7.406265,0,1683969425.8764725
-1.1128088,0.6174751,1.4877697,-0.5487097,-0.19715676,-0.5122105,-3.9598062,5.0288653,7.4341483,0,1683969425.8816166
-1.1128088,0.6174751,1.4877697,-0.38026363,0.0010690142,-0.4109596,-3.9598062,5.0288653,7.4341483,0,1683969425.8867552
-1.1128088,0.6174751,1.4877697,-0.38026363,0.0010690142,-0.4109596,-3.9857664,4.9884815,7.4474716,0,1683969425.9175515
-1.1496402,0.57228947,1.4639269,-0.38026363,0.0010690142,-0.4109596,-3.9857664,4.9884815,7.4474716,0,1683969425.9226944
-1.1496402,0.57228947,1.4639269,0.5112942,1.6554449,1.7234036,-3.9857664,4.9884815,7.4474716,0,1683969425.927837
-0.43325698,0.31416467,0.4876504,0.5112942,1.6554449,1.7234036,-3.9857664,4.9884815,7.4474716,0,1683969425.93808
-0.43325698,0.31416467,0.4876504,0.5112942,1.6554449,1.7234036,-4.499492,6.3897405,5.9297466,0,1683969425.943157
-0.41935372,0.2976393,0.46453932,0.5112942,1.6554449,1.7234036,-4.499492,6.3897405,5.9297466,0,1683969425.9790215
-0.41935372,0.2976393,0.46453932,0.4476115,1.6659822,1.7218764,-4.499492,6.3897405,5.9297466,0,1683969425.989301
-0.41935372,0.2976393,0.46453932,0.4476115,1.6659822,1.7218764,-4.4917116,6.480921,5.83595,0,1683969425.9944427
-0.40642616,0.27727225,0.44240385,0.4476115,1.6659822,1.7218764,-4.4917116,6.480921,5.83595,0,1683969425.9995875
-0.40642616,0.27727225,0.44240385,0.4476115,1.6659822,1.7218764,-4.48197,6.56785,5.745554,0,1683969426.020159
-0.40642616,0.27727225,0.44240385,0.35277468,1.7033978,1.7394388,-4.48197,6.56785,5.745554,0,1683969426.0252998
-0.40642616,0.27727225,0.44240385,0.35277468,1.7033978,1.7394388,-4.470539,6.6506643,5.6585383,0,1683969426.0457728
-0.40642616,0.27727225,0.44240385,0.26893342,1.7507398,1.7716619,-4.470539,6.6506643,5.6585383,0,1683969426.0559833
-0.40331623,0.26653996,0.42642733,0.26893342,1.7507398,1.7716619,-4.470539,6.6506643,5.6585383,0,1683969426.0662696
-0.395206,0.25867364,0.38971785,0.26893342,1.7507398,1.7716619,-4.470539,6.6506643,5.6585383,0,1683969426.08162
-0.395206,0.25867364,0.38971785,0.26893342,1.7507398,1.7716619,-4.449347,6.768461,5.534199,0,1683969426.0867548
-0.395206,0.25867364,0.38971785,0.17165314,1.7673858,1.822211,-4.449347,6.768461,5.534199,0,1683969426.0969713
-0.395206,0.25867364,0.38971785,0.17165314,1.7673858,1.822211,-4.4293857,6.844013,5.456753,0,1683969426.112292
-0.395206,0.25867364,0.38971785,0.101556346,1.7536414,1.8732183,-4.4293857,6.844013,5.456753,0,1683969426.117427
-0.3778879,0.25281963,0.3690459,0.101556346,1.7536414,1.8732183,-4.4293857,6.844013,5.456753,0,1683969426.1276906
-0.34056866,0.24702659,0.34404445,0.101556346,1.7536414,1.8732183,-4.4293857,6.844013,5.456753,0,1683969426.1430655
-0.34056866,0.24702659,0.34404445,0.101556346,1.7536414,1.8732183,-4.4029737,6.9176893,5.384749,0,1683969426.148173
-0.34056866,0.24702659,0.34404445,0.005497787,1.7457001,1.9275852,-4.4029737,6.9176893,5.384749,0,1683969426.1737757
-0.31843323,0.24842913,0.32142118,0.005497787,1.7457001,1.9275852,-4.4029737,6.9176893,5.384749,0,1683969426.178924
-0.31843323,0.24842913,0.32142118,0.005497787,1.7457001,1.9275852,-4.371029,6.988917,5.3183885,0,1683969426.189207
-0.31843323,0.24842913,0.32142118,-0.09773844,1.7475327,1.9744692,-4.371029,6.988917,5.3183885,0,1683969426.19945
-0.31843323,0.24842913,0.32142118,-0.09773844,1.7475327,1.9744692,-2.6495671,6.399918,6.9467235,0,1683969426.2251544
-0.31843323,0.24842913,0.32142118,-2.026698,0.8865182,1.0503827,-2.6495671,6.399918,6.9467235,0,1683969426.2353678
0.37038746,1.0410973,1.1596408,-2.026698,0.8865182,1.0503827,-2.6495671,6.399918,6.9467235,0,1683969426.2405229
0.26007617,1.024328,1.153238,-2.026698,0.8865182,1.0503827,-2.6495671,6.399918,6.9467235,0,1683969426.266097
0.26007617,1.024328,1.153238,-2.200642,1.2487613,0.7791586,-2.6495671,6.399918,6.9467235,0,1683969426.2712028
0.26007617,1.024328,1.153238,-2.200642,1.2487613,0.7791586,-2.6462815,6.293224,7.0447598,0,1683969426.27635
0.21495157,1.0083514,1.1781785,-2.200642,1.2487613,0.7791586,-2.6462815,6.293224,7.0447598,0,1683969426.2969093
0.21495157,1.0083514,1.1781785,-2.2779164,1.3179418,0.73456544,-2.6462815,6.293224,7.0447598,0,1683969426.3071637
0.21495157,1.0083514,1.1781785,-2.2779164,1.3179418,0.73456544,-2.6721537,6.171604,7.141919,0,1683969426.312304
0.21495157,1.0083514,1.1781785,-2.2779164,1.3179418,0.73456544,-2.7218475,5.980691,7.2841606,0,1683969426.3380108
0.22787915,1.0445122,1.2633665,-2.2779164,1.3179418,0.73456544,-2.7218475,5.980691,7.2841606,0,1683969426.343171
0.22787915,1.0445122,1.2633665,-2.147344,1.1876748,0.7432703,-2.7218475,5.980691,7.2841606,0,1683969426.3482754
0.25647837,1.1092111,1.3272725,-2.147344,1.1876748,0.7432703,-2.7218475,5.980691,7.2841606,0,1683969426.3533397
0.25647837,1.1092111,1.3272725,-1.8848248,0.9807441,0.70539665,-2.7218475,5.980691,7.2841606,0,1683969426.3738456
0.25647837,1.1092111,1.3272725,-1.8848248,0.9807441,0.70539665,-2.7463417,5.863731,7.3695574,0,1683969426.3789852
0.25647837,1.1092111,1.3272725,-1.5628988,0.75579304,0.6082691,-2.7463417,5.863731,7.3695574,0,1683969426.4045858
0.25647837,1.1092111,1.3272725,-1.5628988,0.75579304,0.6082691,-2.7607868,5.763942,7.442523,0,1683969426.4097278
0.29215118,1.170495,1.3719094,-1.5628988,0.75579304,0.6082691,-2.7607868,5.763942,7.442523,0,1683969426.4148707
0.29215118,1.170495,1.3719094,-1.1707232,0.5531385,0.43218717,-2.7607868,5.763942,7.442523,0,1683969426.4251537
0.30489585,1.203119,1.4154484,-1.1707232,0.5531385,0.43218717,-2.7607868,5.763942,7.442523,0,1683969426.4354272
0.30489585,1.203119,1.4154484,-1.1707232,0.5531385,0.43218717,-2.7676318,5.6824584,7.5023985,0,1683969426.4507637
0.30489585,1.203119,1.4154484,-0.8266534,0.41890085,0.2518292,-2.7676318,5.6824584,7.5023985,0,1683969426.4609468
0.30489585,1.203119,1.4154484,-0.8266534,0.41890085,0.2518292,-2.7723408,5.6177897,7.549217,0,1683969426.4711695
0.30489585,1.203119,1.4154484,-0.8266534,0.41890085,0.2518292,-3.1772923,6.6132545,6.511973,0,1683969426.486603
0.30489585,1.203119,1.4154484,1.5845845,-1.0170907,-1.6100881,-3.1772923,6.6132545,6.511973,0,1683969426.4968865
-0.01323248,0.5100907,0.6687586,1.5845845,-1.0170907,-1.6100881,-3.1772923,6.6132545,6.511973,0,1683969426.502027
-0.01323248,0.5100907,0.6687586,1.5845845,-1.0170907,-1.6100881,-3.2085855,6.658131,6.450611,0,1683969426.527781
-0.01323248,0.5100907,0.6687586,1.5780176,-1.0175488,-1.7076738,-3.2085855,6.658131,6.450611,0,1683969426.532944
-0.02420873,0.49496788,0.64644015,1.5780176,-1.0175488,-1.7076738,-3.2085855,6.658131,6.450611,0,1683969426.5380983
-0.02420873,0.49496788,0.64644015,1.5566374,-1.0193814,-1.7919732,-3.2085855,6.658131,6.450611,0,1683969426.5636744
-0.044453815,0.47057623,0.61784095,1.5566374,-1.0193814,-1.7919732,-3.2085855,6.658131,6.450611,0,1683969426.5739622
-0.044453815,0.47057623,0.61784095,1.5566374,-1.0193814,-1.7919732,-3.246007,6.6987624,6.3895335,0,1683969426.579112
-0.053844605,0.4355742,0.5800948,1.5566374,-1.0193814,-1.7919732,-3.246007,6.6987624,6.3895335,0,1683969426.5996745
-0.053844605,0.4355742,0.5800948,1.5566374,-1.0193814,-1.7919732,-3.3114743,6.7509837,6.300354,0,1683969426.6099582
-0.053844605,0.4355742,0.5800948,1.5315919,-1.0639745,-1.8443549,-3.3114743,6.7509837,6.300354,0,1683969426.6150753
-0.053844605,0.4355742,0.5800948,1.5224289,-1.1194105,-1.8916969,-3.3114743,6.7509837,6.300354,0,1683969426.6303902
-0.066894144,0.40496266,0.56753314,1.5224289,-1.1194105,-1.8916969,-3.3114743,6.7509837,6.300354,0,1683969426.6354907
-0.066894144,0.40496266,0.56753314,1.5224289,-1.1194105,-1.8916969,-3.3577847,6.779883,6.244564,0,1683969426.6405878
-0.08183405,0.3787416,0.55051994,1.5224289,-1.1194105,-1.8916969,-3.3577847,6.779883,6.244564,0,1683969426.6558957
-0.08183405,0.3787416,0.55051994,1.5181528,-1.1626292,-1.9427042,-3.3577847,6.779883,6.244564,0,1683969426.6764922
-0.08183405,0.3787416,0.55051994,1.5181528,-1.1626292,-1.9427042,-3.4055471,6.8050456,6.1911,0,1683969426.681638
-0.08183405,0.3787416,0.55051994,1.5181528,-1.1626292,-1.9427042,-3.4559064,6.8265643,6.1392865,0,1683969426.7022018
-0.08183405,0.3787416,0.55051994,1.4964671,-1.1691961,-1.9891299,-3.4559064,6.8265643,6.1392865,0,1683969426.7124507
-0.10342067,0.35044727,0.5136885,1.4964671,-1.1691961,-1.9891299,-3.4559064,6.8265643,6.1392865,0,1683969426.7227433
-0.10342067,0.35044727,0.5136885,1.4355333,-1.1612549,-2.032196,-3.4559064,6.8265643,6.1392865,0,1683969426.7483237
-0.13238578,0.33233646,0.47673512,1.4355333,-1.1612549,-2.032196,-3.4559064,6.8265643,6.1392865,0,1683969426.753476
-0.13238578,0.33233646,0.47673512,1.4355333,-1.1612549,-2.032196,-3.5103753,6.84341,6.089427,0,1683969426.7586093
-0.42722008,0.23501371,0.4288055,1.4355333,-1.1612549,-2.032196,-3.5103753,6.84341,6.089427,0,1683969426.7637503
-0.42722008,0.23501371,0.4288055,-0.0061086523,-2.019826,-1.8008307,-3.5103753,6.84341,6.089427,0,1683969426.7740378
-0.42722008,0.23501371,0.4288055,-0.0061086523,-2.019826,-1.8008307,-4.297637,6.2630844,6.2080755,0,1683969426.7843525
-0.42722008,0.23501371,0.4288055,-0.024129177,-2.0813706,-1.8092301,-4.297637,6.2630844,6.2080755,0,1683969426.8100529
-0.45844138,0.25403923,0.4750887,-0.024129177,-2.0813706,-1.8092301,-4.297637,6.2630844,6.2080755,0,1683969426.8151855
-0.45844138,0.25403923,0.4750887,-0.024129177,-2.0813706,-1.8092301,-4.291065,6.18622,6.289162,0,1683969426.82548
-0.51881075,0.25885656,0.51295674,-0.024129177,-2.0813706,-1.8092301,-4.291065,6.18622,6.289162,0,1683969426.8409085
-0.51881075,0.25885656,0.51295674,-0.024129177,-2.0813706,-1.8092301,-4.2719216,6.0673857,6.416669,0,1683969426.851203
-0.51881075,0.25885656,0.51295674,-0.10629055,-2.0685425,-1.8060231,-4.2719216,6.0673857,6.416669,0,1683969426.866626
-0.51881075,0.25885656,0.51295674,-0.23197608,-1.9920316,-1.7718146,-4.2719216,6.0673857,6.416669,0,1683969426.8923385
-0.5674721,0.2719061,0.5436293,-0.23197608,-1.9920316,-1.7718146,-4.2719216,6.0673857,6.416669,0,1683969426.8974838
-0.5674721,0.2719061,0.5436293,-0.23197608,-1.9920316,-1.7718146,-4.2573113,5.983025,6.5049844,0,1683969426.9025774
-0.61223084,0.28885832,0.5791801,-0.23197608,-1.9920316,-1.7718146,-4.2573113,5.983025,6.5049844,0,1683969426.918
-0.61223084,0.28885832,0.5791801,-0.23197608,-1.9920316,-1.7718146,-4.2435765,5.891579,6.5967774,0,1683969426.9282863
-0.61223084,0.28885832,0.5791801,-0.4538729,-1.835192,-1.7140878,-4.2435765,5.891579,6.5967774,0,1683969426.938569
-0.63759816,0.30739596,0.63082945,-0.4538729,-1.835192,-1.7140878,-4.2435765,5.891579,6.5967774,0,1683969426.948849
-0.63759816,0.30739596,0.63082945,-0.6301075,-1.7209601,-1.6716328,-4.2435765,5.891579,6.5967774,0,1683969426.9641848
-0.63759816,0.30739596,0.63082945,-0.6301075,-1.7209601,-1.6716328,-4.231449,5.7914815,6.6925106,0,1683969426.9693248
-0.69424784,0.31715265,0.6866255,-0.6301075,-1.7209601,-1.6716328,-4.231449,5.7914815,6.6925106,0,1683969426.98474
-0.69424784,0.31715265,0.6866255,-0.7695375,-1.6126842,-1.6265814,-4.231449,5.7914815,6.6925106,0,1683969426.989879
-0.69424784,0.31715265,0.6866255,-0.7695375,-1.6126842,-1.6265814,-4.2207975,5.6820974,6.7922554,0,1683969426.995023
-0.69424784,0.31715265,0.6866255,-0.75228053,-1.7128662,-1.5699236,-4.2207975,5.6820974,6.7922554,0,1683969427.0360494
-0.76266646,0.31770146,0.74772656,-0.75228053,-1.7128662,-1.5699236,-4.2207975,5.6820974,6.7922554,0,1683969427.0411417
-0.72400564,0.3091034,0.6279025,0.6412558,1.6490307,1.4265231,-4.356489,5.474192,6.8767962,0,1683969427.0514555
-0.72400564,0.3091034,0.6279025,0.63117653,1.5364788,1.5392277,-4.356489,5.474192,6.8767962,0,1683969427.0566344
-0.6822959,0.30623737,0.60540116,0.63117653,1.5364788,1.5392277,-4.41162,5.6108665,6.729925,0,1683969427.06181
-0.6822959,0.30623737,0.60540116,0.6088799,1.4569136,1.6346754,-4.41162,5.6108665,6.729925,0,1683969427.0669801
-0.6300368,0.30587152,0.5998521,0.6088799,1.4569136,1.6346754,-4.429414,5.706249,6.6374035,0,1683969427.0721629
-0.6300368,0.30587152,0.5998521,0.6088799,1.4569136,1.6346754,-4.4353204,5.803377,6.5486526,0,1683969427.0824397
-0.6300368,0.30587152,0.5998521,0.56199604,1.4187346,1.7151569,-4.4353204,5.803377,6.5486526,0,1683969427.0875835
-0.56363046,0.31812832,0.5977788,0.56199604,1.4187346,1.7151569,-4.4353204,5.803377,6.5486526,0,1683969427.0927284
-0.52307934,0.32160413,0.5985105,0.56199604,1.4187346,1.7151569,-4.4353204,5.803377,6.5486526,0,1683969427.113244
-0.52307934,0.32160413,0.5985105,0.56199604,1.4187346,1.7151569,-4.433237,5.8999624,6.4632,0,1683969427.1235192
-0.52307934,0.32160413,0.5985105,0.50762904,1.4393512,1.745242,-4.433237,5.8999624,6.4632,0,1683969427.1286607
-0.52307934,0.32160413,0.5985105,0.4286747,1.5088371,1.7675385,-4.433237,5.8999624,6.4632,0,1683969427.1492171
-0.4808817,0.3032494,0.5799119,0.4286747,1.5088371,1.7675385,-4.433237,5.8999624,6.4632,0,1683969427.1543622
-0.4808817,0.3032494,0.5799119,0.4286747,1.5088371,1.7675385,-4.4246826,6.039751,6.3387465,0,1683969427.1646469
-0.45331916,0.27422333,0.5612523,0.4286747,1.5088371,1.7675385,-4.4246826,6.039751,6.3387465,0,1683969427.169795
-0.45331916,0.27422333,0.5612523,0.4286747,1.5088371,1.7675385,-4.418569,6.128064,6.257731,0,1683969427.180174
-0.45331916,0.27422333,0.5612523,0.3643811,1.5783231,1.7815884,-4.418569,6.128064,6.257731,0,1683969427.1904576
-0.4379524,0.24806325,0.5376533,0.3643811,1.5783231,1.7815884,-4.418569,6.128064,6.257731,0,1683969427.2058458
-0.4379524,0.24806325,0.5376533,0.3643811,1.5783231,1.7815884,-4.4157906,6.1708636,6.2175035,0,1683969427.2263985
-0.4379524,0.24806325,0.5376533,0.3643811,1.5783231,1.7815884,-3.0124846,6.280774,6.9074545,0,1683969427.2623713
0.07896802,0.63534194,0.7130294,0.3643811,1.5783231,1.7815884,-3.0124846,6.280774,6.9074545,0,1683969427.2675014
0.07896802,0.63534194,0.7130294,-2.3979516,0.42760566,1.5529722,-3.0124846,6.280774,6.9074545,0,1683969427.2726626
0.07896802,0.63534194,0.7130294,-2.3898575,0.32330042,1.5364788,-3.0124846,6.280774,6.9074545,0,1683969427.2829416
0.07896802,0.63534194,0.7130294,-2.3898575,0.32330042,1.5364788,-2.939099,6.1726055,7.0353928,0,1683969427.2932215
0.15409435,0.7218714,0.8720631,-2.3898575,0.32330042,1.5364788,-2.939099,6.1726055,7.0353928,0,1683969427.3086329
0.15409435,0.7218714,0.8720631,-2.2970061,0.3578143,1.3880385,-2.939099,6.1726055,7.0353928,0,1683969427.3292007
0.15409435,0.7218714,0.8720631,-2.2970061,0.3578143,1.3880385,-2.8649528,6.061566,7.161394,0,1683969427.3446062
0.25800288,0.84139055,1.036036,-2.2970061,0.3578143,1.3880385,-2.8649528,6.061566,7.161394,0,1683969427.3497467
0.25800288,0.84139055,1.036036,-2.2970061,0.3578143,1.3880385,-2.8027654,5.948546,7.2797947,0,1683969427.365127
0.31392074,0.9120045,1.106345,-2.2970061,0.3578143,1.3880385,-2.8027654,5.948546,7.2797947,0,1683969427.375404
0.31392074,0.9120045,1.106345,-2.225993,0.47769663,1.1633929,-2.8027654,5.948546,7.2797947,0,1683969427.3805435
0.30184686,0.962922,1.1371396,-2.225993,0.47769663,1.1633929,-2.8027654,5.948546,7.2797947,0,1683969427.3908222
0.30184686,0.962922,1.1371396,-2.225993,0.47769663,1.1633929,-2.7499585,5.77219,7.440139,0,1683969427.40625
0.30184686,0.962922,1.1371396,-2.1658227,0.6059783,0.88499105,-2.7499585,5.77219,7.440139,0,1683969427.4216292
0.30184686,0.962922,1.1371396,-2.1658227,0.6059783,0.88499105,-2.7370427,5.649569,7.5383744,0,1683969427.4370437
0.30184686,0.962922,1.1371396,-2.1192443,0.59712076,0.7302894,-2.7370427,5.649569,7.5383744,0,1683969427.4524243
0.27178416,0.9934116,1.1654949,-2.1192443,0.59712076,0.7302894,-2.7370427,5.649569,7.5383744,0,1683969427.4575677
0.27178416,0.9934116,1.1654949,-2.0050125,0.45891252,0.6536258,-2.7370427,5.649569,7.5383744,0,1683969427.4781177
0.27178416,0.9934116,1.1654949,-2.0050125,0.45891252,0.6536258,-2.7287395,5.5264635,7.6320567,0,1683969427.4831963
0.23050125,1.0115834,1.2465361,-2.0050125,0.45891252,0.6536258,-2.7287395,5.5264635,7.6320567,0,1683969427.4934661
0.23050125,1.0115834,1.2465361,-1.7831156,0.2593123,0.6264423,-2.7287395,5.5264635,7.6320567,0,1683969427.4986079
0.22513509,0.9215781,1.2622079,-1.7831156,0.2593123,0.6264423,-2.7287395,5.5264635,7.6320567,0,1683969427.514033
0.22513509,0.9215781,1.2622079,-1.7831156,0.2593123,0.6264423,-2.6396425,5.2615385,7.8475857,0,1683969427.5191655
0.22513509,0.9215781,1.2622079,1.3764321,-0.5279403,-0.72295904,-2.6396425,5.2615385,7.8475857,0,1683969427.5243075
0.22501312,0.9001745,1.2259251,1.3764321,-0.5279403,-0.72295904,-2.6396425,5.2615385,7.8475857,0,1683969427.544841
0.22501312,0.9001745,1.2259251,1.3764321,-0.5279403,-0.72295904,-2.6275907,5.347129,7.7935934,0,1683969427.5499802
0.22501312,0.9001745,1.2259251,1.5184582,-0.5543602,-0.83062404,-2.6275907,5.347129,7.7935934,0,1683969427.5705447
0.22501312,0.86797744,1.1727513,1.5184582,-0.5543602,-0.83062404,-2.6275907,5.347129,7.7935934,0,1683969427.580833
0.22501312,0.86797744,1.1727513,1.5184582,-0.5543602,-0.83062404,-2.6207812,5.4381766,7.7326484,0,1683969427.5911202
0.22501312,0.86797744,1.1727513,1.6310102,-0.5308419,-0.98868537,-2.6207812,5.4381766,7.7326484,0,1683969427.6065416
0.22001283,0.8349268,1.1350663,1.6310102,-0.5308419,-0.98868537,-2.6207812,5.4381766,7.7326484,0,1683969427.6168206
0.22001283,0.8349268,1.1350663,1.6597209,-0.4549419,-1.1169671,-2.6207812,5.4381766,7.7326484,0,1683969427.6270707
0.22001283,0.8349268,1.1350663,1.6597209,-0.4549419,-1.1169671,-2.6235201,5.5304604,7.665981,0,1683969427.632215
0.22001283,0.8349268,1.1350663,1.6597209,-0.4549419,-1.1169671,-2.6531153,5.662713,7.5584903,0,1683969427.6630607
0.22001283,0.8349268,1.1350663,1.6406313,-0.3182608,-1.2788464,-2.6531153,5.662713,7.5584903,0,1683969427.6784837
0.20690231,0.7824237,1.0818313,1.6406313,-0.3182608,-1.2788464,-2.6531153,5.662713,7.5584903,0,1683969427.68363
0.20690231,0.7824237,1.0818313,1.6406313,-0.3182608,-1.2788464,-2.6919584,5.7433805,7.483519,0,1683969427.7042036
0.20690231,0.7824237,1.0818313,1.6189456,-0.20845777,-1.3990341,-2.6919584,5.7433805,7.483519,0,1683969427.7093406
0.18196183,0.7429702,1.0348774,1.6189456,-0.20845777,-1.3990341,-2.6919584,5.7433805,7.483519,0,1683969427.7144954
0.18196183,0.7429702,1.0348774,1.6157386,-0.13652839,-1.5189165,-2.6919584,5.7433805,7.483519,0,1683969427.724766
0.18196183,0.7429702,1.0348774,1.6157386,-0.13652839,-1.5189165,-2.7446446,5.818107,7.4062586,0,1683969427.7453082
0.14689882,0.6946747,0.9771302,1.6157386,-0.13652839,-1.5189165,-2.7446446,5.818107,7.4062586,0,1683969427.7504492
0.11464083,0.65235513,0.9349326,1.6157386,-0.13652839,-1.5189165,-2.7446446,5.818107,7.4062586,0,1683969427.7709866
0.11464083,0.65235513,0.9349326,1.6157386,-0.13652839,-1.5189165,-2.8065102,5.888666,7.326884,0,1683969427.7812738
0.11464083,0.65235513,0.9349326,1.6157386,-0.13652839,-1.5189165,-4.993568,5.9281435,6.0131097,0,1683969427.7966044
0.11464083,0.65235513,0.9349326,0.36163223,-1.5372424,-2.154827,-4.993568,5.9281435,6.0131097,0,1683969427.8120258
-0.47734493,0.12482436,0.25739306,0.36163223,-1.5372424,-2.154827,-4.993568,5.9281435,6.0131097,0,1683969427.8171678
-0.4911872,0.12634884,0.28056514,0.36163223,-1.5372424,-2.154827,-4.993568,5.9281435,6.0131097,0,1683969427.827433
-0.4911872,0.12634884,0.28056514,0.36163223,-1.5372424,-2.154827,-5.034371,5.8419394,6.063247,0,1683969427.8377125
-0.4911872,0.12634884,0.28056514,0.28603765,-1.6763669,-2.0984747,-5.034371,5.8419394,6.063247,0,1683969427.8479848
-0.5131397,0.12744646,0.33178765,0.28603765,-1.6763669,-2.0984747,-5.034371,5.8419394,6.063247,0,1683969427.8582692
-0.5131397,0.12744646,0.33178765,0.22495113,-1.783421,-2.033723,-5.034371,5.8419394,6.063247,0,1683969427.8633618
-0.5131397,0.12744646,0.33178765,0.22495113,-1.783421,-2.033723,-5.0616274,5.7535133,6.124796,0,1683969427.873642
-0.5131397,0.12744646,0.33178765,0.14645495,-1.8758144,-1.9544634,-5.0616274,5.7535133,6.124796,0,1683969427.9147048
-0.5241769,0.12708059,0.36947277,0.14645495,-1.8758144,-1.9544634,-5.0616274,5.7535133,6.124796,0,1683969427.9198468
-0.5241769,0.12708059,0.36947277,0.14645495,-1.8758144,-1.9544634,-5.0795307,5.6192884,6.2336245,0,1683969427.9249926
-0.5241769,0.12708059,0.36947277,0.046731193,-1.8898643,-1.8915442,-5.0795307,5.6192884,6.2336245,0,1683969427.9455092
-0.5494833,0.1349469,0.40898728,0.046731193,-1.8898643,-1.8915442,-5.0795307,5.6192884,6.2336245,0,1683969427.9506536
-0.5494833,0.1349469,0.40898728,0.046731193,-1.8898643,-1.8915442,-5.078894,5.52817,6.315083,0,1683969427.9609373
-0.5712528,0.15488708,0.4431966,0.046731193,-1.8898643,-1.8915442,-5.078894,5.52817,6.315083,0,1683969427.971164
-0.5712528,0.15488708,0.4431966,0.046731193,-1.8898643,-1.8915442,-5.0713744,5.434563,6.40178,0,1683969427.9763114
-0.5712528,0.15488708,0.4431966,-0.10369437,-1.8648189,-1.8009834,-5.0713744,5.434563,6.40178,0,1683969427.9814196
-0.5712528,0.15488708,0.4431966,-0.10369437,-1.8648189,-1.8009834,-5.057877,5.337847,6.4931793,0,1683969428.001981
-0.5712528,0.15488708,0.4431966,-0.22556199,-1.8544341,-1.7357736,-5.057877,5.337847,6.4931793,0,1683969428.0071313
-0.59857154,0.18305947,0.48655275,-0.22556199,-1.8544341,-1.7357736,-5.057877,5.337847,6.4931793,0,1683969428.032803
-0.6219875,0.20495099,0.53527516,-0.22556199,-1.8544341,-1.7357736,-5.057877,5.337847,6.4931793,0,1683969428.0430498
-0.6219875,0.20495099,0.53527516,-0.22556199,-1.8544341,-1.7357736,-5.038011,5.237652,6.5895042,0,1683969428.0533352
-0.6219875,0.20495099,0.53527516,-0.29458976,-1.8413006,-1.6911805,-5.038011,5.237652,6.5895042,0,1683969428.0636215
-1.3576401,0.2924561,1.5694817,-0.29458976,-1.8413006,-1.6911805,-5.038011,5.237652,6.5895042,0,1683969428.0790384
-1.3576401,0.2924561,1.5694817,-0.23380867,-0.65194595,-0.310625,-5.038011,5.237652,6.5895042,0,1683969428.0893157
-1.3576401,0.2924561,1.5694817,-0.23380867,-0.65194595,-0.310625,-4.4315853,3.9071074,7.831454,0,1683969428.0944552
-1.4035575,0.24178241,1.6342417,-0.23380867,-0.65194595,-0.310625,-4.4315853,3.9071074,7.831454,0,1683969428.1047318
-1.4035575,0.24178241,1.6342417,0.022296581,-0.5348125,-0.08536842,-4.4315853,3.9071074,7.831454,0,1683969428.1149983
-1.4035575,0.24178241,1.6342417,0.022296581,-0.5348125,-0.08536842,-4.4018407,3.8741848,7.8645153,0,1683969428.1303918
-1.4035575,0.24178241,1.6342417,0.29367346,-0.35979962,0.18371773,-4.4018407,3.8741848,7.8645153,0,1683969428.1355329
-1.4035575,0.24178241,1.6342417,0.29367346,-0.35979962,0.18371773,-4.3728647,3.8683455,7.883532,0,1683969428.150971
-1.4192902,0.21373199,1.6555235,0.29367346,-0.35979962,0.18371773,-4.3728647,3.8683455,7.883532,0,1683969428.161219
-1.4192902,0.21373199,1.6555235,0.57726765,-0.058948494,0.5364924,-4.3728647,3.8683455,7.883532,0,1683969428.1766298
-1.3759949,0.22287886,1.6155821,0.57726765,-0.058948494,0.5364924,-4.3728647,3.8683455,7.883532,0,1683969428.1920202
-1.3759949,0.22287886,1.6155821,0.57726765,-0.058948494,0.5364924,-4.3473797,3.8920608,7.8859534,0,1683969428.1971653
-1.2972099,0.25714916,1.5369799,0.57726765,-0.058948494,0.5364924,-4.3473797,3.8920608,7.8859534,0,1683969428.207438
-1.2972099,0.25714916,1.5369799,0.57726765,-0.058948494,0.5364924,-4.3236213,3.9772072,7.8564773,0,1683969428.2280054
-1.2972099,0.25714916,1.5369799,0.71944654,0.226631,0.7799222,-4.3236213,3.9772072,7.8564773,0,1683969428.238299
-1.2095828,0.2932488,1.4425232,0.71944654,0.226631,0.7799222,-4.3236213,3.9772072,7.8564773,0,1683969428.2485745
-1.2095828,0.2932488,1.4425232,0.78022766,0.52732944,0.9483683,-4.3236213,3.9772072,7.8564773,0,1683969428.2537162
-1.2095828,0.2932488,1.4425232,0.78022766,0.52732944,0.9483683,-4.3223457,4.0566874,7.8164396,0,1683969428.2588615
-1.2095828,0.2932488,1.4425232,0.77839506,0.87781334,1.0784826,-4.3223457,4.0566874,7.8164396,0,1683969428.289664
-1.1078695,0.3123353,1.3098935,0.77839506,0.87781334,1.0784826,-4.3223457,4.0566874,7.8164396,0,1683969428.2948067
-1.1078695,0.3123353,1.3098935,0.77839506,0.87781334,1.0784826,-4.335432,4.144974,7.7626886,0,1683969428.310239
-1.1078695,0.3123353,1.3098935,0.77839506,0.87781334,1.0784826,-4.362924,4.236005,7.6978745,0,1683969428.3307753
-1.1078695,0.3123353,1.3098935,0.731053,1.1096367,1.1490375,-4.362924,4.236005,7.6978745,0,1683969428.341069
-0.18781583,0.21915914,0.29904184,0.731053,1.1096367,1.1490375,-4.362924,4.236005,7.6978745,0,1683969428.356454
-0.18781583,0.21915914,0.29904184,0.731053,1.1096367,1.1490375,-4.369313,6.7336426,5.639439,0,1683969428.3666973
-0.18781583,0.21915914,0.29904184,-0.5421429,1.3918564,2.361605,-4.369313,6.7336426,5.639439,0,1683969428.3769715
-0.18781583,0.21915914,0.29904184,-0.5421429,1.3918564,2.361605,-4.2961426,6.794366,5.622798,0,1683969428.3923495
-0.17824212,0.21178065,0.26714975,-0.5421429,1.3918564,2.361605,-4.2961426,6.794366,5.622798,0,1683969428.3974783
-0.17824212,0.21178065,0.26714975,-0.6939429,1.389413,2.3388503,-4.2961426,6.794366,5.622798,0,1683969428.4025812
-0.16293633,0.21562232,0.24739249,-0.6939429,1.389413,2.3388503,-4.2961426,6.794366,5.622798,0,1683969428.4179978
-0.16293633,0.21562232,0.24739249,-0.6939429,1.389413,2.3388503,-4.222781,6.845467,5.616388,0,1683969428.4282782
-0.16293633,0.21562232,0.24739249,-0.903317,1.3067935,2.3672554,-4.222781,6.845467,5.616388,0,1683969428.4436927
-0.16293633,0.21562232,0.24739249,-1.0548116,1.184315,2.4109323,-4.222781,6.845467,5.616388,0,1683969428.464265
-0.16293633,0.21562232,0.24739249,-1.0548116,1.184315,2.4109323,-4.098981,6.9059787,5.6339965,0,1683969428.4745498
-0.12744646,0.2245253,0.26641798,-1.0548116,1.184315,2.4109323,-4.098981,6.9059787,5.6339965,0,1683969428.4848318
-0.12744646,0.2245253,0.26641798,-1.1731668,1.0520626,2.4378104,-4.098981,6.9059787,5.6339965,0,1683969428.5053887
-0.085309856,0.24653877,0.30343235,-1.1731668,1.0520626,2.4378104,-4.098981,6.9059787,5.6339965,0,1683969428.5105286
-0.085309856,0.24653877,0.30343235,-1.1731668,1.0520626,2.4378104,-4.0013146,6.9369287,5.666094,0,1683969428.5156698
-0.031282313,0.28763872,0.37044844,-1.1731668,1.0520626,2.4378104,-4.0013146,6.9369287,5.666094,0,1683969428.5463774
-0.031282313,0.28763872,0.37044844,-1.2742649,0.906524,2.4585798,-4.0013146,6.9369287,5.666094,0,1683969428.551507
-0.031282313,0.28763872,0.37044844,-1.2742649,0.906524,2.4585798,-3.8929996,6.961047,5.711785,0,1683969428.556666
0.010610376,0.3242872,0.42917135,-1.2742649,0.906524,2.4585798,-3.8929996,6.961047,5.711785,0,1683969428.5618057
0.010610376,0.3242872,0.42917135,-1.2742649,0.906524,2.4585798,-3.7755303,6.9792247,5.7681804,0,1683969428.5720818
0.010610376,0.3242872,0.42917135,-1.3129021,0.81290895,2.4527767,-3.7755303,6.9792247,5.7681804,0,1683969428.5772247
0.010610376,0.3242872,0.42917135,-1.3327552,0.78786343,2.3625214,-3.7755303,6.9792247,5.7681804,0,1683969428.5977693
0.010610376,0.3242872,0.42917135,-1.3327552,0.78786343,2.3625214,-3.6528683,6.9917836,5.831605,0,1683969428.6183224
0.010610376,0.3242872,0.42917135,-1.3327552,0.78786343,2.3625214,-2.6202598,6.0224338,7.2870193,0,1683969428.6387928
0.011647021,0.67814934,0.69607717,-1.3327552,0.78786343,2.3625214,-2.6202598,6.0224338,7.2870193,0,1683969428.643935
0.011647021,0.67814934,0.69607717,-1.3327552,0.78786343,2.3625214,-2.6272473,5.7719855,7.4845085,0,1683969428.6490757
0.011647021,0.67814934,0.69607717,-2.8609874,0.6907359,1.0319041,-2.6272473,5.7719855,7.4845085,0,1683969428.664459
0.067321,0.7701669,0.90438205,-2.8609874,0.6907359,1.0319041,-2.6272473,5.7719855,7.4845085,0,1683969428.6798801
0.067321,0.7701669,0.90438205,-2.7348437,0.42913285,1.0668762,-2.6272473,5.7719855,7.4845085,0,1683969428.6850238
0.067321,0.7701669,0.90438205,-2.7348437,0.42913285,1.0668762,-2.6052823,5.6061883,7.6170373,0,1683969428.695263
0.14738666,0.88810056,1.0575616,-2.7348437,0.42913285,1.0668762,-2.6052823,5.6061883,7.6170373,0,1683969428.7055442
0.22915971,0.9842038,1.1822032,-2.7348437,0.42913285,1.0668762,-2.6052823,5.6061883,7.6170373,0,1683969428.7311165
0.41551206,1.2083632,1.5569811,-2.3648121,0.17073683,0.79809546,-2.5246606,5.2943616,7.863329,0,1683969428.7363832
0.41551206,1.2083632,1.5569811,-2.107638,0.19486602,0.49327368,-2.5246606,5.2943616,7.863329,0,1683969428.7415195
0.41551206,1.2083632,1.5569811,-2.107638,0.19486602,0.49327368,-2.488991,5.146605,7.9720445,0,1683969428.7517524
0.41551206,1.2083632,1.5569811,-1.9793562,0.2125811,0.3755294,-2.488991,5.146605,7.9720445,0,1683969428.7825496
0.40673104,1.2206199,1.606801,-1.9793562,0.2125811,0.3755294,-2.488991,5.146605,7.9720445,0,1683969428.7876801
0.40673104,1.2206199,1.606801,-1.9793562,0.2125811,0.3755294,-2.466896,5.0061827,8.067755,0,1683969428.7928193
0.37130213,1.205924,1.7005872,-1.9793562,0.2125811,0.3755294,-2.466896,5.0061827,8.067755,0,1683969428.8133512
0.37130213,1.205924,1.7005872,-1.9793562,0.2125811,0.3755294,-2.458955,4.8775663,8.148558,0,1683969428.818499
0.37130213,1.205924,1.7005872,-1.6038266,0.26221392,0.106595986,-2.458955,4.8775663,8.148558,0,1683969428.8236427
0.37130213,1.205924,1.7005872,2.2510383,-0.9925033,-2.53112,-2.458955,4.8775663,8.148558,0,1683969428.8544774
0.10555494,0.38051,0.7341282,2.2510383,-0.9925033,-2.53112,-2.458955,4.8775663,8.148558,0,1683969428.859624
0.10555494,0.38051,0.7341282,2.2510383,-0.9925033,-2.53112,-2.9668865,5.901634,7.2528896,0,1683969428.8647647
0.07165052,0.33989787,0.6570505,2.2510383,-0.9925033,-2.53112,-2.9668865,5.901634,7.2528896,0,1683969428.8801708
0.07165052,0.33989787,0.6570505,2.2510383,-0.9925033,-2.53112,-3.0285258,5.9767923,7.16534,0,1683969428.885317
0.07165052,0.33989787,0.6570505,2.078469,-0.93386024,-2.5932758,-3.0285258,5.9767923,7.16534,0,1683969428.890466
0.07165052,0.33989787,0.6570505,2.078469,-0.93386024,-2.5932758,-3.1364446,6.063966,7.044654,0,1683969428.9264455
0.05933273,0.32129923,0.6154018,2.078469,-0.93386024,-2.5932758,-3.1364446,6.063966,7.044654,0,1683969428.9315882
0.05933273,0.32129923,0.6154018,1.9167424,-0.9266826,-2.6112962,-3.1364446,6.063966,7.044654,0,1683969428.9367237
0.05933273,0.32129923,0.6154018,1.7345519,-0.89888823,-2.682004,-3.1364446,6.063966,7.044654,0,1683969428.957255
0.05933273,0.32129923,0.6154018,1.7345519,-0.89888823,-2.682004,-3.2128522,6.10421,6.975121,0,1683969428.9675226
0.063235395,0.30873755,0.6193654,1.7345519,-0.89888823,-2.682004,-3.2128522,6.10421,6.975121,0,1683969428.9726658
0.05933273,0.29666364,0.61692625,1.7345519,-0.89888823,-2.682004,-3.2128522,6.10421,6.975121,0,1683969428.977809
0.05933273,0.29666364,0.61692625,1.7345519,-0.89888823,-2.682004,-3.2958872,6.130423,6.913115,0,1683969428.9932332
0.05933273,0.29666364,0.61692625,1.6087136,-0.83031857,-2.7794368,-3.2958872,6.130423,6.913115,0,1683969428.9983742
0.041343875,0.2651374,0.6125358,1.6087136,-0.83031857,-2.7794368,-3.2958872,6.130423,6.913115,0,1683969429.029118
0.041343875,0.2651374,0.6125358,1.4373659,-0.6786713,-2.9153545,-3.2958872,6.130423,6.913115,0,1683969429.034227
0.041343875,0.2651374,0.6125358,1.4373659,-0.6786713,-2.9153545,-3.3902783,6.142195,6.856789,0,1683969429.0393429
0.041343875,0.2651374,0.6125358,1.3687963,-0.61193424,-2.9733865,-3.3902783,6.142195,6.856789,0,1683969429.0650218
0.041343875,0.2651374,0.6125358,1.3687963,-0.61193424,-2.9733865,-3.4993553,6.138022,6.8055353,0,1683969429.0701475
0.027379647,0.24470939,0.5950957,1.3687963,-0.61193424,-2.9733865,-3.4993553,6.138022,6.8055353,0,1683969429.0803971
0.027379647,0.24470939,0.5950957,1.3687963,-0.61193424,-2.9733865,-3.6227205,6.11745,6.7593493,0,1683969429.100945
0.027379647,0.24470939,0.5950957,1.2133311,-0.49327368,-3.078608,-3.6227205,6.11745,6.7593493,0,1683969429.1060886
0.027379647,0.24470939,0.5950957,-0.1133155,-1.9530889,-1.4370605,-3.6227205,6.11745,6.7593493,0,1683969429.1316943
-0.93157876,0.015305771,0.74754363,-0.1133155,-1.9530889,-1.4370605,-3.6227205,6.11745,6.7593493,0,1683969429.1368217
-0.93157876,0.015305771,0.74754363,-0.1133155,-1.9530889,-1.4370605,-4.783641,4.541184,7.261579,0,1683969429.1470425
-0.95792174,0.06043036,0.7918145,-0.1133155,-1.9530889,-1.4370605,-4.783641,4.541184,7.261579,0,1683969429.15731
-0.95792174,0.06043036,0.7918145,-0.2507602,-1.7582229,-1.2447907,-4.783641,4.541184,7.261579,0,1683969429.1727161
-0.95792174,0.06043036,0.7918145,-0.2507602,-1.7582229,-1.2447907,-4.7227316,4.461872,7.350076,0,1683969429.1829941
-0.95792174,0.06043036,0.7918145,-0.41599923,-1.5662584,-1.1064297,-4.7227316,4.461872,7.350076,0,1683969429.2035363
-0.95792174,0.06043036,0.7918145,-0.41599923,-1.5662584,-1.1064297,-4.6345706,4.3431487,7.476224,0,1683969429.2086775
-0.9842648,0.11567748,0.8326705,-0.41599923,-1.5662584,-1.1064297,-4.6345706,4.3431487,7.476224,0,1683969429.2188914
-0.9842648,0.11567748,0.8326705,-0.6301075,-1.3548992,-0.9767735,-4.6345706,4.3431487,7.476224,0,1683969429.2392802
-0.9842648,0.11567748,0.8326705,-0.6301075,-1.3548992,-0.9767735,-4.582549,4.258131,7.556764,0,1683969429.244413
-1.0248158,0.16031423,0.8807221,-0.6301075,-1.3548992,-0.9767735,-4.582549,4.258131,7.556764,0,1683969429.2546918
-1.0248158,0.16031423,0.8807221,-0.7469355,-1.2486086,-0.8584184,-4.582549,4.258131,7.556764,0,1683969429.2751942
-1.0963445,0.17982757,0.96645886,-0.7469355,-1.2486086,-0.8584184,-4.582549,4.258131,7.556764,0,1683969429.285463
-1.0963445,0.17982757,0.96645886,-0.7469355,-1.2486086,-0.8584184,-4.5353875,4.1199975,7.674676,0,1683969429.2905674
-1.14153,0.18970619,1.0465854,-0.7469355,-1.2486086,-0.8584184,-4.5353875,4.1199975,7.674676,0,1683969429.3111107
-1.14153,0.18970619,1.0465854,-0.7469355,-1.2486086,-0.8584184,-4.4646306,4.0275455,7.7512617,0,1683969429.3213837
-1.14153,0.18970619,1.0465854,-0.72219545,-1.2073752,-0.7475463,-4.4646306,4.0275455,7.7512617,0,1683969429.326527
-1.1776907,0.20580468,1.1039668,-0.72219545,-1.2073752,-0.7475463,-4.4646306,4.0275455,7.7512617,0,1683969429.3522208
-1.1776907,0.20580468,1.1039668,-0.6440047,-1.154688,-0.61682117,-4.4646306,4.0275455,7.7512617,0,1683969429.3573647
-1.1776907,0.20580468,1.1039668,-0.6440047,-1.154688,-0.61682117,-4.414429,3.943398,7.8229485,0,1683969429.3624663
-1.2097657,0.22623271,1.1525673,-0.6440047,-1.154688,-0.61682117,-4.414429,3.943398,7.8229485,0,1683969429.3727155
-1.2097657,0.22623271,1.1525673,-0.5476407,-1.0784826,-0.44944412,-4.414429,3.943398,7.8229485,0,1683969429.3778582
-1.2097657,0.22623271,1.1525673,-0.5476407,-1.0784826,-0.44944412,-4.3620787,3.8702886,7.8885517,0,1683969429.3829956
-1.2097657,0.22623271,1.1525673,0.036193766,0.6386596,2.2953262,-4.3620787,3.8702886,7.8885517,0,1683969429.3881369
-1.2097657,0.22623271,1.1525673,0.036193766,0.6386596,2.2953262,-3.1165326,5.583358,7.4397216,0,1683969429.4035428
-0.11073817,0.3684971,0.6748565,0.036193766,0.6386596,2.2953262,-3.1165326,5.583358,7.4397216,0,1683969429.4189675
-0.11073817,0.3684971,0.6748565,-0.021838432,0.7535023,2.2664628,-3.1165326,5.583358,7.4397216,0,1683969429.4241042
-0.11073817,0.3684971,0.6748565,-0.021838432,0.7535023,2.2664628,-3.002467,5.6772594,7.4155264,0,1683969429.4343927
-0.064820856,0.41459736,0.67016107,-0.021838432,0.7535023,2.2664628,-3.002467,5.6772594,7.4155264,0,1683969429.4600847
-0.064820856,0.41459736,0.67016107,-0.021838432,0.7535023,2.2664628,-2.9359322,5.731854,7.4001527,0,1683969429.4703274
-0.064820856,0.41459736,0.67016107,-0.1731803,0.9790643,2.16567,-2.9359322,5.731854,7.4001527,0,1683969429.4806032
-0.064820856,0.41459736,0.67016107,-0.1731803,0.9790643,2.16567,-2.8845482,5.775122,7.386708,0,1683969429.4857423
-0.064820856,0.41459736,0.67016107,-0.32650748,1.1542299,2.059074,-2.8845482,5.775122,7.386708,0,1683969429.4960265
-0.0646989,0.43868414,0.646867,-0.32650748,1.1542299,2.059074,-2.8845482,5.775122,7.386708,0,1683969429.506311
-0.07226031,0.43905002,0.6168043,-0.32650748,1.1542299,2.059074,-2.8845482,5.775122,7.386708,0,1683969429.5371635
-0.07226031,0.43905002,0.6168043,-0.32650748,1.1542299,2.059074,-2.8494735,5.8054786,7.376518,0,1683969429.5474422
-0.07226031,0.43905002,0.6168043,-0.4877759,1.2738068,1.9172006,-2.8494735,5.8054786,7.376518,0,1683969429.5525887
-0.10659158,0.43008605,0.5841804,-0.4877759,1.2738068,1.9172006,-2.8494735,5.8054786,7.376518,0,1683969429.557731
-0.10659158,0.43008605,0.5841804,-0.57543504,1.2753339,1.8387043,-2.8494735,5.8054786,7.376518,0,1683969429.5731716
-0.10659158,0.43008605,0.5841804,-0.57543504,1.2753339,1.8387043,-2.8184166,5.829887,7.3691964,0,1683969429.578311
-0.10659158,0.43008605,0.5841804,-0.57543504,1.2753339,1.8387043,-2.8103685,5.833915,7.369082,0,1683969429.5937262
-0.10659158,0.43008605,0.5841804,-0.61162883,1.2111931,1.8144225,-2.8103685,5.833915,7.369082,0,1683969429.5988646
-0.114823766,0.42087823,0.5763751,-0.61162883,1.2111931,1.8144225,-2.8103685,5.833915,7.369082,0,1683969429.619404
-0.114823766,0.42087823,0.5763751,-0.6230826,1.0453432,1.8406897,-2.8103685,5.833915,7.369082,0,1683969429.6347494
-0.092505395,0.4170975,0.5954006,-0.6230826,1.0453432,1.8406897,-2.8103685,5.833915,7.369082,0,1683969429.6398568
-0.092505395,0.4170975,0.5954006,-0.6230826,1.0453432,1.8406897,-2.7908125,5.838962,7.372516,0,1683969429.6602464
0.03823394,0.7380918,0.7715694,-0.6230826,1.0453432,1.8406897,-2.7908125,5.838962,7.372516,0,1683969429.675552
0.03823394,0.7380918,0.7715694,-0.8900307,0.77564615,0.89995724,-2.7908125,5.838962,7.372516,0,1683969429.6858275
0.03823394,0.7380918,0.7715694,-0.8900307,0.77564615,0.89995724,-2.5223112,5.5771604,7.666116,0,1683969429.6909714
0.03823394,0.7380918,0.7715694,-0.8900307,0.77564615,0.89995724,-2.5209455,5.540277,7.693262,0,1683969429.711481
0.04311227,0.7712035,0.82669455,-0.8900307,0.77564615,0.89995724,-2.5209455,5.540277,7.693262,0,1683969429.7217653
0.04311227,0.7712035,0.82669455,-0.81107634,0.5991061,0.81581056,-2.5209455,5.540277,7.693262,0,1683969429.73204
0.04311227,0.7712035,0.82669455,-0.6921103,0.49281552,0.71944654,-2.5209455,5.540277,7.693262,0,1683969429.7423136
0.03518498,0.78791183,0.88810056,-0.6921103,0.49281552,0.71944654,-2.5209455,5.540277,7.693262,0,1683969429.7474418
0.03518498,0.78791183,0.88810056,-0.6921103,0.49281552,0.71944654,-2.5143104,5.506422,7.7196937,0,1683969429.7679877
0.03518498,0.78791183,0.88810056,-0.5708536,0.4454735,0.6093381,-2.5143104,5.506422,7.7196937,0,1683969429.7833724
0.020549979,0.7704718,0.8948693,-0.5708536,0.4454735,0.6093381,-2.5143104,5.506422,7.7196937,0,1683969429.793636
0.020549979,0.7704718,0.8948693,-0.5708536,0.4454735,0.6093381,-2.5062273,5.478114,7.7424283,0,1683969429.7987802
-0.019208437,0.72284704,0.86620915,-0.5708536,0.4454735,0.6093381,-2.5062273,5.478114,7.7424283,0,1683969429.8090253
-0.019208437,0.72284704,0.86620915,-0.5708536,0.4454735,0.6093381,-2.501052,5.4447265,7.767613,0,1683969429.824393
-0.019208437,0.72284704,0.86620915,-0.4792238,0.45677447,0.48655418,-2.501052,5.4447265,7.767613,0,1683969429.8347046
-0.019208437,0.72284704,0.86620915,-0.47907108,0.49464813,0.43386704,-2.501052,5.4447265,7.767613,0,1683969429.8501494
-0.019208437,0.72284704,0.86620915,-0.47907108,0.49464813,0.43386704,-2.5057092,5.4243383,7.7803664,0,1683969429.8552554
-0.06518673,0.68193007,0.82925564,-0.47907108,0.49464813,0.43386704,-2.5057092,5.4243383,7.7803664,0,1683969429.8603923
-0.06518673,0.68193007,0.82925564,-0.52213705,0.52503866,0.44211373,-2.5057092,5.4243383,7.7803664,0,1683969429.9014516
-0.06518673,0.68193007,0.82925564,-0.52213705,0.52503866,0.44211373,-2.5101783,5.413316,7.7865996,0,1683969429.9065945
-0.10122541,0.65278196,0.8242554,-0.52213705,0.52503866,0.44211373,-2.5101783,5.413316,7.7865996,0,1683969429.9117372
-0.10122541,0.65278196,0.8242554,-0.52213705,0.52503866,0.44211373,-2.527948,5.374956,7.807397,0,1683969429.9271574
-0.10122541,0.65278196,0.8242554,-0.56596667,0.6082691,0.49510628,-2.527948,5.374956,7.807397,0,1683969429.9322975
-0.12549512,0.6170482,0.86925805,-0.56596667,0.6082691,0.49510628,-2.527948,5.374956,7.807397,0,1683969429.9374425
-0.12549512,0.6170482,0.86925805,-0.56596667,0.6082691,0.49510628,-2.6193328,5.155384,7.92447,0,1683969429.947679
